,Time (s),Acceleration x (m/s^2),Acceleration y (m/s^2),Acceleration z (m/s^2),Gyroscope x (rad/s),Gyroscope y (rad/s),Gyroscope z (rad/s),Linear Acceleration x (m/s^2),Linear Acceleration y (m/s^2),Linear Acceleration z (m/s^2),Still,Walk,Run,Cycle,Timestamps,Acceleration x (m/s^2)_kalman,Acceleration y (m/s^2)_kalman,Acceleration z (m/s^2)_kalman,Gyroscope x (rad/s)_kalman,Gyroscope y (rad/s)_kalman,Gyroscope z (rad/s)_kalman,Linear Acceleration x (m/s^2)_kalman,Linear Acceleration y (m/s^2)_kalman,Linear Acceleration z (m/s^2)_kalman
0,0.0476,0.812,5.72,9.93,-0.422,1.65,0.437,3.41,1.5,1.47,0,1,0,0,47600000,-0.221183627,3.65207542,6.460828503,-0.256192106,1.403031048,0.57349529,1.71493247,0.813756235,0.551568551
1,0.0976,-2.14,5.36,8.53,0.355,1.34,0.904,1.01,1.07,0.292,0,1,0,0,97600000,-0.530054164,4.166878623,6.981007338,0.201431027,1.371895046,0.814876034,1.573246382,0.888250177,0.46483879
2,0.148,-1.79,5.58,5.92,-0.11,0.966,1.51,1.54,0.965,-2.07,0,1,0,0,148000000,-0.850889367,4.760492549,6.596888796,-0.041494754,1.138169148,1.346939948,1.563061611,0.919635718,-0.674412086
3,0.198,-1.38,4.71,8.98,0.134,1.72,1.94,2.03,-0.106,1.15,0,1,0,0,198000000,-1.011361441,4.737396845,7.559886857,0.095660458,1.481484731,1.802017397,1.728161666,0.460626298,0.205506463
4,0.248,-2.04,4.85,5.63,-0.339,0.764,1.86,1.36,-0.268,-2.01,0,1,0,0,248000000,-1.346826034,4.790115579,6.75191331,-0.244072873,1.056419042,1.846515659,1.590935316,0.126133777,-0.882226166
5,0.298,-0.306,4.12,7.56,-1.45,1.53,2.25,2.98,-0.998,-0.14,0,1,0,0,298000000,-0.996755883,4.474349154,7.094175651,-1.186637247,1.337173564,2.156168514,2.119031138,-0.393696515,-0.516161879
6,0.348,-2.96,4.48,10.1,-0.873,-0.0189,2.72,0.268,-0.482,2.33,0,1,0,0,348000000,-1.66584355,4.477016688,8.372145966,-0.941495302,0.533159367,2.588879501,1.410033197,-0.434615914,0.889190296
7,0.398,-1.09,3.44,5.83,0.0272,0.701,3.33,-0.69,-0.724,2.15,0,1,0,0,398000000,-1.46847714,3.987240728,7.289957522,-0.184353494,0.632673658,3.157650398,0.603387856,-0.568795664,1.511926781
8,0.448,-0.606,1.24,10.8,-1.3,3.35,2.86,1.55,-3.95,2.72,0,1,0,0,448000000,-1.172148642,2.689557216,8.784796565,-1.056353776,2.243807081,2.929219311,0.96738004,-2.136841693,2.108661178
9,0.498,-0.299,1.62,10.2,0.0431,0.0409,2.45,1.99,-3.54,2.19,0,1,0,0,498000000,-0.871839569,2.184322847,9.387578243,-0.197009855,0.937677935,2.561443762,1.360757706,-2.787593842,2.148839746
10,0.548,-0.235,1.24,11.5,0.493,1.83,2.61,1.7,-4.25,3.61,0,1,0,0,548000000,-0.652707613,1.738241531,10.28736866,0.342308658,1.466746101,2.598708037,1.491276146,-3.465833468,2.87060548
11,0.598,-0.0144,1.75,6.7,-0.0553,2.81,2.03,1.77,-4.16,-0.918,0,1,0,0,598000000,-0.433028013,1.743796039,8.759298864,0.031533806,2.263176953,2.162254544,1.598517197,-3.787777598,0.999154838
12,0.648,-0.342,4.88,11.4,1.96,1.41,2.33,2.08,-1.28,4.21,0,1,0,0,648000000,-0.401697257,3.225288751,9.884132944,1.538842045,1.757318377,2.29099029,1.783775285,-2.624705943,2.585210799
13,0.698,0.283,3.01,9.02,-0.0504,1.77,2.81,2.29,-3.93,2.39,0,1,0,0,698000000,-0.166024183,3.123589756,9.51604609,0.296674779,1.764837448,2.689302868,1.978554843,-3.230083029,2.488782883
14,0.748,1.62,0.838,10.4,-0.218,2.74,2.26,3.44,-6.24,3.84,0,1,0,0,748000000,0.448735536,2.043913341,9.892576137,-0.105600103,2.343022693,2.359835516,2.540875409,-4.626040286,3.156241424
15,0.798,5.83,-4.72,1.86,-2.8,3.77,0.866,8.01,-11.8,-4.6,0,1,0,0,798000000,2.301009711,-1.151252191,6.471008496,-2.211569616,3.189094154,1.213395419,4.645234155,-7.953222573,-0.675096866
16,0.848,0.663,-4.39,11.3,-4.73,3.54,-1.03,4.05,-10.1,4.03,0,1,0,0,848000000,1.737192079,-2.681185351,8.527972839,-4.179999673,3.397150296,-0.508292408,4.416205489,-8.948868109,1.649072515
17,0.898,-4.63,-2.4,13,-2.25,3.08,-1.3,0.35,-6.34,5.51,0,1,0,0,898000000,-0.45445524,-2.548357885,10.43288409,-2.671492882,3.209108145,-1.115886258,2.851647963,-7.738911619,3.556248889
18,0.948,-5.72,-0.728,7.06,-2.13,1.09,-0.992,0.3,-3.64,-0.114,0,1,0,0,948000000,-2.266906054,-1.688449612,8.996165402,-2.248256791,1.952664254,-1.020810066,1.869848035,-5.837893755,1.743261833
19,0.998,-9.09,0.397,7.71,-3.26,0.0935,-0.627,-2.8,-1.33,0.387,0,1,0,0,998000000,-4.615480857,-0.703316202,8.448308513,-3.03904526,0.850344107,-0.718581558,0.073026288,-3.747195664,1.073311312
20,1.05,-9.17,-0.0694,12.7,-1.84,-0.0354,-0.0861,-2.87,-0.499,5.16,0,1,0,0,1050000000,-6.183190456,-0.403864216,10.25936519,-2.101859678,0.325176106,-0.233185266,-1.059364636,-2.240727925,3.092006403
21,1.1,-8.92,-0.73,4.92,-1.85,1,-0.136,-2.5,-0.619,-2.49,0,1,0,0,1100000000,-7.125226857,-0.55792561,7.985001375,-1.905003687,0.725287056,-0.158600698,-1.61367925,-1.48859319,0.334671499
22,1.15,-10.6,-3.14,7.11,-2.15,-0.0593,0.7,-3.91,-2.3,-0.00135,0,1,0,0,1150000000,-8.321277609,-1.777656751,7.61228456,-2.096495298,0.260096248,0.500330116,-2.497236763,-1.864912305,0.168687489
23,1.2,-7.24,-6.15,6.93,-2.11,-0.197,0.946,-0.626,-4.94,-0.206,0,1,0,0,1200000000,-7.949091286,-3.843082574,7.321657553,-2.107050624,-0.010921442,0.842358268,-1.777239241,-3.29109502,-0.016396299
24,1.25,-13.1,-7.01,5.55,-2.1,0.541,0.417,-6.37,-5.23,-1.35,0,1,0,0,1250000000,-9.72208418,-5.339084372,6.566999778,-2.101539712,0.316319217,0.515918193,-3.544400045,-4.190332056,-0.675154428
25,1.3,-6.1,-7.12,5.26,-2.15,-0.142,1.01,0.82,-4.9,-1.33,0,1,0,0,1300000000,-8.475327623,-6.180360685,6.010268329,-2.139416826,0.04457641,0.895099955,-1.865105765,-4.519466173,-0.998627484
26,1.35,-6.68,-6.52,3.24,-1.43,0.18,0.266,0.264,-3.94,-3.18,0,1,0,0,1350000000,-7.857358373,-6.340800915,4.830240763,-1.584929593,0.124870639,0.412298869,-1.045887751,-4.250717888,-2.076156658
27,1.4,-8.28,-3.47,1.47,-1.67,0.315,0.667,-1.16,-0.513,-4.58,0,1,0,0,1400000000,-8.002835631,-4.984679994,3.39890768,-1.651421429,0.237600551,0.607768571,-1.089794815,-2.517216584,-3.312976167
28,1.45,-3.84,-3.17,0.864,-1.31,0.154,1.05,3.5,-0.0758,-4.86,0,1,0,0,1450000000,-6.569947179,-4.12745391,2.319134687,-1.384563026,0.18803281,0.947157869,0.676224825,-1.3849217,-4.077157156
29,1.5,-6.76,-3.89,0.749,-1.13,0.834,-0.00909,0.808,-0.682,-4.6,0,1,0,0,1500000000,-6.635365283,-4.015284489,1.650317813,-1.185594049,0.571034278,0.213287985,0.726928093,-1.058916432,-4.335424964
30,1.55,-8.43,-4.61,1.03,-1.46,0.11,0.378,-0.722,-1.15,-3.95,0,1,0,0,1550000000,-7.253096074,-4.296218751,1.386086313,-1.400072478,0.297681683,0.339695776,0.169422676,-1.101159707,-4.145037226
31,1.6,-13.5,-1.94,1.31,1.28,1.39,-0.316,-5.59,1.63,-3.3,0,1,0,0,1600000000,-9.403341028,-3.183178317,1.353676451,0.694698597,0.945329932,-0.163516215,-2.046635828,0.165513986,-3.727615497
32,1.65,-11.9,-4,2.67,0.917,1.01,0.492,-3.7,-0.694,-1.58,0,1,0,0,1650000000,-10.26271514,-3.569031957,1.914379598,0.868451564,0.983673563,0.339557972,-2.682802324,-0.233116589,-2.666761278
33,1.7,-8.89,-5.33,2.26,0.491,0.269,-0.258,-0.5,-2.36,-1.87,0,1,0,0,1700000000,-9.790213388,-4.400885365,2.061600568,0.573431694,0.559935277,-0.119036294,-1.842923434,-1.219535336,-2.273186368
34,1.75,-9.72,-5.42,3.08,0.164,-0.368,0.249,-1.39,-2.49,-1.19,0,1,0,0,1750000000,-9.76604535,-4.882299032,2.495399455,0.253415845,0.009751639,0.16341218,-1.668651655,-1.808759093,-1.738126535
35,1.8,-11.2,-5.56,-0.373,0.471,-0.654,0.65,-2.84,-2.84,-4.8,0,1,0,0,1800000000,-10.25962639,-5.20243422,1.273571808,0.423481757,-0.383794432,0.53684269,-2.11935242,-2.287034171,-3.250595436
36,1.85,-7.32,-3.73,4.61,0.208,-1.79,0.621,0.834,-1.44,-0.337,0,1,0,0,1850000000,-9.247778519,-4.506879599,2.694761722,0.255059093,-1.217550076,0.601428988,-0.982988253,-1.894191589,-1.811371299
37,1.9,-6.42,-5.71,-0.0407,1.05,-0.188,-0.458,1.4,-3.61,-5.58,0,1,0,0,1900000000,-8.274429736,-5.07521466,1.529560426,0.876392714,-0.607117836,-0.211626975,-0.066083645,-2.689959497,-3.672954837
38,1.95,-0.34,-2.63,1.32,0.13,-2.41,-0.197,7.35,-0.454,-4.36,0,1,0,0,1950000000,-5.543322022,-3.920133994,1.440295781,0.293004799,-1.676067729,-0.20040154,2.787409752,-1.652952735,-4.012333519
39,2,-9.19,-6.17,0.0838,-0.606,-2.12,-2.01,-2.63,-3.63,-6.75,0,1,0,0,2000000000,-6.798543827,-4.982935137,0.862480845,-0.409666229,-1.939280277,-1.589173059,0.702947896,-2.569879674,-5.364654313
40,2.05,-3.9,-7.41,0.417,-1.74,-1.07,-1.69,1.93,-3.97,-6.68,0,1,0,0,2050000000,-5.800836946,-6.129442108,0.672723168,-1.449468241,-1.423873903,-1.666552471,1.17508186,-3.219235923,-6.014393463
41,2.1,-6.28,-8.56,6,-2.01,-0.775,-1.3,-1.04,-3.95,-0.885,0,1,0,0,2100000000,-5.965769591,-7.277599402,2.941937839,-1.887585388,-1.039148991,-1.385242715,0.322782758,-3.558154109,-3.480635059
42,2.15,-10.3,-10.6,10.9,0.501,-1.45,0.323,-5.59,-5.44,4.04,0,1,0,0,2150000000,-7.457653825,-8.847049062,6.331765534,-0.020643486,-1.28274737,-0.074256375,-1.952284248,-4.430927955,0.234321162
43,2.2,-3.5,-1.62,3.61,-0.351,0.349,0.954,0.982,3.27,-3.61,0,1,0,0,2200000000,-6.095390971,-5.433105424,5.172398241,-0.278853406,-0.315265337,0.714876243,-0.823256958,-0.859345224,-1.664652048
44,2.25,-9.67,-15.1,-0.436,-0.251,0.662,-1.1,-4.96,-10,-7.34,0,1,0,0,2250000000,-7.325806115,-9.999593666,2.783436686,-0.257082899,0.264166668,-0.677945722,-2.414955459,-5.098653139,-4.468094801
45,2.3,-5.78,-7.64,1.54,0.0583,-0.47,0.51,-1.12,-2.25,-5.2,0,1,0,0,2300000000,-6.793724721,-8.884958885,2.253780551,-0.010576513,-0.171129303,0.233740056,-1.916694239,-3.777487632,-4.829632763
46,2.35,0.74,-6.12,-0.213,-0.823,1.69,-1.3,5.58,-0.675,-6.77,0,1,0,0,2350000000,-4.200543558,-7.578835997,1.203027081,-0.645574739,0.93235598,-0.943324635,0.967815779,-2.338597241,-5.788112898
47,2.4,-5.24,-9.53,-0.687,-0.192,2.67,-3.21,-0.362,-3.41,-6.59,0,1,0,0,2400000000,-4.558334474,-8.500534877,0.397948377,-0.291056248,1.962625411,-2.682878646,0.456141324,-2.835498904,-6.18421988
48,2.45,-4.6,-8.86,0.52,-0.962,0.225,-1.19,-0.097,-1.84,-4.64,0,1,0,0,2450000000,-4.572676119,-8.670340352,0.449937658,-0.815472516,0.932367055,-1.537172943,0.243308619,-2.373800443,-5.421423955
49,2.5,-2.03,-5.67,-0.292,-1.24,-0.258,-1.21,2.17,1.83,-5.01,0,1,0,0,2500000000,-3.697462314,-7.253027073,0.133900804,-1.147287394,0.226584566,-1.286084967,0.984643491,-0.424136539,-5.218193626
50,2.55,-3.14,-7.42,0.891,-1.36,-0.186,-1.45,0.425,0.673,-3.35,0,1,0,0,2550000000,-3.505578412,-7.331902478,0.456395879,-1.313545677,-0.018041633,-1.41188116,0.769308947,0.084700041,-4.29536492
51,2.6,-1.12,-8.76,1.43,-0.821,0.139,-1.81,1.8,-0.197,-2.35,0,1,0,0,2600000000,-2.684439173,-8.006513262,0.871113699,-0.928567099,0.07507018,-1.717416361,1.165888888,-0.045948499,-3.334416031
52,2.65,-6.39,-11.5,0.0838,-0.501,0.434,-2,-4.28,-2.58,-3.37,0,1,0,0,2650000000,-3.959929124,-9.656781128,0.5357484,-0.594376425,0.287883844,-1.934284423,-0.929530949,-1.221206128,-3.351993332
53,2.7,-3.69,-13.3,4.78,0.095,0.158,-0.685,-2.19,-4.18,1.52,0,1,0,0,2700000000,-3.86701692,-11.37778018,2.34363614,-0.055553009,0.210874204,-0.975524416,-1.414522826,-2.593453288,-0.945382479
54,2.75,-3.63,-14.3,4.56,1.45,0.191,-0.154,-2.28,-5.28,1,0,1,0,0,2750000000,-3.785433435,-12.75819068,3.287721724,1.121202118,0.199090557,-0.345047687,-1.747533276,-3.839436197,0.015575036
55,2.8,-1.83,-13.5,0.362,2.14,-0.853,0.275,-0.547,-4.85,-4.04,0,1,0,0,2800000000,-3.112354285,-13.10860967,2.041476992,1.917504679,-0.424706184,0.130806266,-1.285602962,-4.308121519,-1.98775095
56,2.85,2.69,-13.9,-0.797,1.3,-3.14,0.595,3.71,-5.75,-6.14,0,1,0,0,2850000000,-1.115127611,-13.48244976,0.832395164,1.434856891,-2.034635588,0.487050535,0.636559872,-4.976844603,-4.038830799
57,2.9,0.0287,-17.1,2.85,1.76,-0.676,1.2,0.815,-9.39,-3.15,0,1,0,0,2900000000,-0.721411047,-15.19132344,1.691817045,1.688991946,-1.229084717,1.034201743,0.705218446,-7.023604548,-3.599776498
58,2.95,1.04,-9.01,0.177,1.45,-0.0153,1.2,2.16,-1.92,-6.5,0,1,0,0,2950000000,-0.115116284,-12.27136415,1.04656335,1.50219352,-0.509417616,1.161443211,1.264976137,-4.656624078,-5.032395327
59,3,0.426,-2.45,0.974,0.812,-0.646,1.22,1.9,4.14,-6.14,0,1,0,0,3000000000,0.071141192,-7.631907127,1.015654149,0.962731435,-0.590398919,1.206382485,1.509314853,-0.576872854,-5.579516995
60,3.05,1.1,-2.49,-1.85,0.0589,-1.59,0.499,2.51,3.82,-9.23,0,1,0,0,3050000000,0.425284386,-5.202951553,-0.205004115,0.256287865,-1.183074067,0.663503688,1.894349408,1.462335285,-7.382740102
61,3.1,2.32,-4.56,-0.567,-0.971,-0.593,0.0404,3.33,1.87,-7.91,0,1,0,0,3100000000,1.077463865,-4.899231384,-0.359200403,-0.702972454,-0.833212274,0.185304418,2.446745999,1.651404483,-7.643189767
62,3.15,-0.0455,-8.84,5.75,-1.37,0.691,-0.428,0.932,-1.96,-1.17,0,1,0,0,3150000000,0.690928805,-6.760788205,2.243083582,-1.224327771,0.070510934,-0.285374429,1.863915758,-0.023514453,-4.445638405
63,3.2,-5.1,-14.4,9.66,0.524,0.641,0.088,-4.05,-7.23,3.02,0,1,0,0,3200000000,-1.302365055,-10.36943082,5.402404138,0.14218246,0.408760532,0.001170783,-0.411587208,-3.365781725,-0.757848786
64,3.25,-5.82,-4.55,-0.33,0.688,1.19,1.04,-4.13,2.32,-7.13,0,1,0,0,3250000000,-2.857378904,-7.620423858,2.960620839,0.568798854,0.871966549,0.798417474,-1.842324416,-0.728795669,-3.905490328
65,3.3,6.31,-9.96,11.7,-1.27,0.863,-0.791,8.92,-2.95,5.39,0,1,0,0,3300000000,0.29812186,-8.725602632,6.683259553,-0.868424462,0.866650163,-0.421376747,2.298705235,-1.758959211,0.686188304
66,3.35,0.314,-24.2,4.02,0.444,0.0177,2.37,3.31,-17.1,-2.03,0,1,0,0,3350000000,0.303587274,-16.03546349,5.54881359,0.157379454,0.36329772,1.720857827,2.687822045,-8.873919666,-0.655522935
67,3.4,7.6,-2.33,-2.38,-0.933,2.27,-0.929,10.8,4.67,-8.46,0,1,0,0,3400000000,2.81508331,-9.561219332,2.171444448,-0.69487191,1.493803707,-0.312768531,5.80915241,-2.592439009,-4.510688181
68,3.45,-5.79,-19.5,-5.1,-1.54,3.25,-0.574,-2.06,-12,-10.2,0,1,0,0,3450000000,-0.146869861,-14.25614208,-0.925910678,-1.355432336,2.535072952,-0.513249928,2.781331306,-6.955534296,-7.321028474
69,3.5,-3.62,-9.55,1.45,-1.31,3.06,0.161,0.995,-1.78,-2.36,0,1,0,0,3500000000,-1.34235492,-12.03303511,0.086135747,-1.319921929,2.846308281,0.004201385,2.094002942,-4.555193821,-4.870437011
70,3.55,-2.72,-6.31,-0.893,-0.943,1.56,-0.712,2.07,1.77,-3.71,0,1,0,0,3550000000,-1.816553736,-9.329563837,-0.330938358,-1.025316044,2.08364108,-0.545445473,2.084767282,-1.621657351,-4.297217789
71,3.6,-1.37,-10.3,1.06,-0.517,2.06,-0.587,3.38,-1.97,-1.01,0,1,0,0,3600000000,-1.662845608,-9.787982618,0.261547766,-0.628011223,2.069623974,-0.577336394,2.583135229,-1.783213815,-2.673435998
72,3.65,-3.32,-7.87,0.273,-0.11,1.69,-0.851,1.29,0.651,-1.24,0,1,0,0,3650000000,-2.233254209,-8.881957919,0.266425977,-0.223128538,1.844540531,-0.787358809,2.085574364,-0.654259463,-1.965363883
73,3.7,-5.16,-9.85,0.733,-0.236,1.36,-0.498,-0.768,-1.15,-0.365,0,1,0,0,3700000000,-3.24066846,-9.339245863,0.465168525,-0.233189001,1.557250813,-0.565291157,0.987601887,-0.884176984,-1.174834664
74,3.75,-4.07,-10.9,1.92,-0.00519,0.952,-0.431,0.173,-2.07,1.16,0,1,0,0,3750000000,-3.526132484,-10.07652125,1.084870661,-0.054982732,1.198390567,-0.462229761,0.674166755,-1.434145092,-0.021500084
75,3.8,-4.14,-11.6,5.09,0.778,1.05,-0.166,-0.0275,-2.73,4.42,0,1,0,0,3800000000,-3.737431594,-10.79618869,2.790901507,0.59608479,1.110408042,-0.234889014,0.404185782,-2.035144493,2.172460746
76,3.85,-5.23,-12.8,3.98,2.5,0.677,1.05,-1.02,-4.03,2.89,0,1,0,0,3850000000,-4.251188131,-11.74275754,3.297411657,2.084203707,0.853435356,0.751195607,-0.143799505,-2.96033069,2.526902531
77,3.9,3.67,-17,0.766,4.13,-0.128,1.06,8.47,-8.83,-1.64,0,1,0,0,3900000000,-1.524638278,-14.22619571,2.219127815,3.683218369,0.271530894,0.988186673,3.170540282,-5.682601233,0.468584267
78,3.95,-1.9,-15.1,0.625,2.82,-1.11,0.318,3.05,-7.63,-3.35,0,1,0,0,3950000000,-1.653841417,-14.63896721,1.540090787,3.008518321,-0.547594879,0.473853684,3.124159867,-6.585777613,-1.417675734
79,4,-2.98,-12.3,1.39,2.92,-0.666,0.689,1.99,-5.64,-3.79,0,1,0,0,4000000000,-2.110318078,-13.53407619,1.476157889,2.939331587,-0.61779866,0.63896716,2.687768119,-6.147139115,-2.589528992
80,4.05,-0.345,-5.55,0.606,1.54,-1.31,0.575,4.54,0.262,-5.6,0,1,0,0,4050000000,-1.502678463,-9.762525003,1.105504158,1.845600179,-1.028212866,0.589875724,3.400453096,-3.174669984,-4.076606561
81,4.1,-2.04,-2.86,0.0982,0.789,-1.91,0.341,2.44,2.45,-6.82,0,1,0,0,4100000000,-1.687629738,-6.501881344,0.676431398,1.019751032,-1.551034712,0.398876704,3.030898683,-0.566026646,-5.431756376
82,4.15,0.599,-0.606,0.414,-0.603,-1.48,0.168,4.47,4.56,-6.97,0,1,0,0,4150000000,-0.900549599,-3.716760277,0.564645736,-0.248607178,-1.508917415,0.22169099,3.584622961,1.811352833,-6.191600049
83,4.2,0.34,-2.94,4.57,-1.78,-0.703,0.0587,3.81,2.59,-2.75,0,1,0,0,4200000000,-0.473540387,-3.349831038,2.2707724,-1.445558898,-1.031079595,0.096603987,3.671341473,2.172478465,-4.491558301
84,4.25,-1.63,-14.9,13.3,-0.31,0.19,-0.446,1.67,-8.82,6.43,0,1,0,0,4250000000,-0.871605007,-8.805947945,6.968798484,-0.557994859,-0.307087277,-0.319816007,2.901283428,-2.92567925,0.903346544
85,4.3,-0.56,-9.31,4.68,0.213,-1.04,0.235,2.59,-3.21,-2.32,0,1,0,0,4300000000,-0.76434754,-9.044054359,5.993858444,0.044622331,-0.741639747,0.105976062,2.781510579,-3.057543257,-0.688884832
86,4.35,2.14,-3.55,0.982,-0.334,0.712,0.265,5.1,2.51,-6.14,0,1,0,0,4350000000,0.235357104,-6.448749977,3.85899985,-0.251312613,0.120240204,0.228018549,3.673597883,-0.475394523,-3.381563529
87,4.4,-1.09,-19.8,12.4,-1.1,2.53,-0.324,2.6,-13.3,6.05,0,1,0,0,4400000000,-0.220843684,-12.7556689,7.497136668,-0.914655069,1.549014848,-0.195626619,3.260508586,-6.423267367,1.277331127
88,4.45,3.12,-6.41,1.25,-0.261,0.366,0.498,7.52,0.21,-4.5,0,1,0,0,4450000000,0.929107094,-9.758075233,4.836097149,-0.403751822,0.847591558,0.336695282,4.89943707,-3.346850686,-1.576488018
89,4.5,3.79,-8.73,0.752,-1.89,2.27,-0.768,8.44,-1.78,-4.36,0,1,0,0,4500000000,1.913854183,-9.272428542,3.096429112,-1.565418054,1.690954086,-0.51110018,6.261742616,-2.620167227,-2.951455108
90,4.55,-5.9,-14.3,0.275,-2.01,2.99,-0.848,-1.02,-6.65,-3.48,0,1,0,0,4550000000,-0.77575029,-11.64737385,1.894609022,-1.912907683,2.46117355,-0.769653043,3.459939713,-4.489147381,-3.212539604
91,4.6,-3.07,-6.18,0.352,-1.91,1.65,-0.851,1.91,1.93,-2.02,0,1,0,0,4600000000,-1.565453282,-9.064672859,1.237517014,-1.910634983,1.980219287,-0.832082557,2.863567948,-1.512036578,-2.623462687
92,4.65,-0.84,-6.49,0.548,-1.58,0.403,-0.972,3.85,2.01,-0.804,0,1,0,0,4650000000,-1.315745213,-7.848438025,0.943809324,-1.652207451,1.045067593,-0.939461829,3.243118294,0.12143475,-1.724705583
93,4.7,0.134,-11.7,0.51,-1.33,1.35,-1.05,4.41,-2.89,-0.067,0,1,0,0,4700000000,-0.81672884,-9.667854878,0.759023262,-1.400366961,1.225865584,-1.024294018,3.6921004,-1.275226641,-0.905851371
94,4.75,-2.64,-8.33,2.16,-0.584,1.43,-0.968,1.15,0.711,2.36,0,1,0,0,4750000000,-1.444316504,-9.035873363,1.35578541,-0.762286481,1.346899227,-0.981091319,2.713974044,-0.354042477,0.707376028
95,4.8,-5.54,-11.6,-0.0144,-0.376,1.09,-0.311,-2.12,-2.4,0.594,0,1,0,0,4800000000,-2.854090497,-10.2471264,0.772139218,-0.460361145,1.194580702,-0.46683151,0.854001378,-1.302929022,0.651371841
96,4.85,-2.62,-12.5,2.08,0.202,0.806,0.0282,0.667,-3.33,2.94,0,1,0,0,4850000000,-2.773514237,-11.31134825,1.329237487,0.057346868,0.964186673,-0.086920894,0.782048682,-2.243056171,1.781881912
97,4.9,-5.9,-13.7,1.14,1.78,1.19,0.839,-2.51,-4.53,1.81,0,1,0,0,4900000000,-3.84968101,-12.43970946,1.248629603,1.403789534,1.098074059,0.623674624,-0.484635962,-3.303708849,1.795771331
98,4.95,-0.821,-9.84,1.84,3.09,-0.999,1.27,3.13,-0.862,1.67,0,1,0,0,4950000000,-2.807179608,-11.21164791,1.500530621,2.721748208,-0.145305593,1.119695301,0.906170939,-2.17127841,1.733644244
99,5,-0.453,-21.2,0.45,2.27,-1.16,1.43,4.02,-12.7,-1.31,0,1,0,0,5000000000,-1.996848144,-15.92998778,1.053045048,2.368657336,-0.74692971,1.357837777,2.104281849,-7.054352222,0.230180125
100,5.05,-0.625,-16.1,0.223,1.91,-0.867,1.76,4.4,-8.13,-2.57,0,1,0,0,5050000000,-1.524644699,-16.01029904,0.699477841,2.01016621,-0.818120774,1.666476098,2.987607504,-7.553222679,-1.153020402
101,5.1,-2.2,-9.32,0.656,1.45,-0.79,1.41,3.34,-2.07,-2.95,0,1,0,0,5100000000,-1.757108564,-12.84990747,0.680957964,1.572334809,-0.801447652,1.469644173,3.123197861,-5.010180615,-2.040671604
102,5.15,1.15,-2.96,0.0239,0.811,-1.58,0.861,6.9,3.68,-4.32,0,1,0,0,5150000000,-0.756453593,-8.178071666,0.401076588,0.977268001,-1.263060436,1.002541822,4.576401586,-0.979796288,-3.166587942
103,5.2,1.55,-1.53,-1.27,0.165,-1.85,0.227,7.07,4.83,-6.29,0,1,0,0,5200000000,0.037450101,-5.037627774,-0.310737644,0.34239132,-1.611063757,0.407354311,5.535865844,1.714705984,-4.709454851
104,5.25,1.23,-2.46,-2.11,-1.11,-0.977,0.0477,6.36,3.92,-7.51,0,1,0,0,5250000000,0.447937356,-3.819997211,-1.077154038,-0.79281208,-1.235119966,0.131338566,5.852968764,2.737490558,-6.092835835
105,5.3,-1.23,-9.24,5.33,-1.8,-0.301,-0.0121,3.75,-2.46,0.293,0,1,0,0,5300000000,-0.129624972,-6.380320673,1.652046683,-1.580040061,-0.681269354,0.02125702,5.043807508,0.326967071,-2.938434572
106,5.35,-8.84,-18.6,12.9,0.921,-0.357,-0.122,-4.02,-11.5,8.12,0,1,0,0,5350000000,-3.12782064,-12.15270404,6.443241251,0.374797536,-0.489006272,-0.0886852,1.556317831,-5.158214937,2.524082857
107,5.4,0.529,-6.81,2.47,0.743,-1.14,0.668,5.26,-0.0836,-2.88,0,1,0,0,5400000000,-1.869107493,-9.628895152,4.750793579,0.662588193,-0.87498803,0.492030831,2.981387168,-2.804679463,-0.145363486
108,5.45,6.85,-6.36,-2.83,-0.736,1.91,-0.547,11.6,0.216,-8.3,0,1,0,0,5450000000,1.132093888,-8.084720861,1.521667634,-0.430562142,0.776263803,-0.30537061,6.297579028,-1.403730549,-4.173496518
109,5.5,-3.94,-30.3,6.65,0.642,2.7,-0.069,1.3,-23.3,2.27,0,1,0,0,5500000000,-0.61377007,-18.57886691,3.706139668,0.407763028,1.916869437,-0.123968613,4.374655857,-11.5589139,-0.990612715
110,5.55,2.66,-1.8,-4.32,-0.597,1.45,-0.51,8.24,5.07,-8.55,0,1,0,0,5550000000,0.513093388,-10.65279561,0.287313343,-0.377569673,1.640057136,-0.420227367,5.861927847,-3.846655994,-4.724711424
111,5.6,-0.905,-10.8,-1.68,-1.58,2.67,-1.28,4.83,-3.44,-4.65,0,1,0,0,5600000000,0.024971892,-10.72233272,-0.550686319,-1.317401117,2.250722306,-1.080057566,5.464871975,-3.658054655,-4.687806387
112,5.65,-4.76,-14.2,2.18,-2.3,1.52,-0.259,0.842,-6.32,0.702,0,1,0,0,5650000000,-1.622061948,-12.36512764,0.612480869,-2.085410064,1.817468525,-0.449939123,3.686125209,-4.892627776,-2.025412215
113,5.7,1.45,-4.87,1.17,-1.65,0.136,-1.21,6.77,3.36,0.674,0,1,0,0,5700000000,-0.564628396,-8.824547864,0.849962519,-1.745089242,0.820506249,-1.033245851,4.872710586,-1.065174419,-0.691987808
114,5.75,-2.41,-8.97,-1.12,-1.24,0.832,-0.945,2.43,-0.443,-0.892,0,1,0,0,5750000000,-1.19982324,-8.893257278,0.010834386,-1.350306513,0.827321038,-0.965521802,3.932826577,-0.776618615,-0.790787525
115,5.8,0.12,-8.51,2.64,-1.11,0.648,-1.31,4.51,0.213,3.55,0,1,0,0,5800000000,-0.745527274,-8.712212712,1.130757681,-1.162480582,0.720999506,-1.229890635,4.154906223,-0.317647335,1.353424419
116,5.85,-3.66,-11.1,-0.156,-0.593,0.919,-1.04,0.102,-2.17,1.29,0,1,0,0,5850000000,-1.748717099,-9.840165831,0.582648486,-0.717368935,0.838396324,-1.084159543,2.595465707,-1.176742644,1.32209474
117,5.9,-5.16,-12.9,0.881,-0.181,0.705,-0.537,-1.82,-3.88,2.6,0,1,0,0,5900000000,-2.922913726,-11.2855829,0.709734728,-0.298137678,0.759304079,-0.664243407,0.896522821,-2.430475672,1.953339539
118,5.95,-4.04,-12.5,4.31,0.432,0.924,0.0459,-0.921,-3.37,6.19,0,1,0,0,5950000000,-3.307425649,-11.85925433,2.243308992,0.272545146,0.856954224,-0.119245739,0.197192865,-2.866213869,4.046116054
119,6,-5.93,-10.2,2.21,2.3,0.657,1.49,-2.64,-1.06,3.63,0,1,0,0,6000000000,-4.210141133,-11.07544874,2.229120661,1.857223831,0.738399038,1.115765632,-0.894476525,-2.028517098,3.840567919
120,6.05,3,-16.9,-3.86,3.25,-2.58,2.05,7.1,-7.95,-3.77,0,1,0,0,6050000000,-1.728340584,-13.82687443,-0.364610083,2.94583143,-1.229118371,1.832741277,2.181565641,-4.774818008,0.081187696
121,6.1,-1.41,-20.7,3.16,2.32,0.00794,1.16,3.24,-12.2,1.7,0,1,0,0,6100000000,-1.618764654,-17.07363057,1.136738046,2.456675356,-0.495652049,1.316447747,2.588820422,-8.218513536,0.88082988
122,6.15,-0.718,-13.1,-0.189,2.07,-0.706,1.56,4.46,-5.17,-2.78,0,1,0,0,6150000000,-1.308712717,-15.19655054,0.572024721,2.15444603,-0.620369783,1.503361232,3.308795951,-6.804655606,-0.927504468
123,6.2,-1.04,-6.68,-0.785,1.21,-1.22,1.61,4.63,0.553,-4.21,0,1,0,0,6200000000,-1.216219179,-11.17346672,-0.006015535,1.416257722,-0.975897542,1.585200882,3.817156912,-3.392277795,-2.548953628
124,6.25,1.28,-2.32,-0.857,0.76,-2.37,0.875,7.08,4.33,-5.13,0,1,0,0,6250000000,-0.356996323,-6.991229076,-0.368502126,0.903320203,-1.802477065,1.040159104,5.072604066,0.189206667,-3.82390909
125,6.3,1.7,-1.12,-1.58,-0.103,-2.1,0.406,7.12,5.27,-6.68,0,1,0,0,6300000000,0.35104179,-4.217753349,-0.88455356,0.116770401,-1.978881823,0.553475377,5.860382469,2.545607586,-5.234727728
126,6.35,1.68,-2.31,-0.673,-1.59,-0.188,-0.1,6.85,4.17,-5.91,0,1,0,0,6350000000,0.808482085,-3.316560822,-0.794439885,-1.217258214,-0.91704712,0.051967435,6.241158494,3.298978117,-5.568290832
127,6.4,-1.25,-15.9,13.8,-1.26,-0.411,-0.864,3.74,-8.84,9.16,0,1,0,0,6400000000,0.099932575,-9.260778232,5.422229265,-1.250665608,-0.617005894,-0.650989354,5.278785407,-2.330910323,1.707019687
128,6.45,-9.38,-16.7,5.18,1.66,-0.976,0.94,-4.77,-9.63,0.244,0,1,0,0,6450000000,-3.163152255,-12.77494926,5.319048858,1.02433933,-0.829857689,0.570011193,1.412304863,-5.71612614,0.984334161
129,6.5,10,0.764,-3.1,-0.362,1.45,-0.109,14.8,7.38,-8.49,0,1,0,0,6500000000,1.367732493,-6.379363826,1.73285847,-0.059237163,0.521896527,0.048905861,6.563500904,0.357674156,-3.69568763
130,6.55,-2.28,-28.4,8.85,0.147,2.17,-0.942,2.68,-21.2,4.36,0,1,0,0,6550000000,0.112147579,-16.78156379,4.764486702,0.101959839,1.499076325,-0.711562186,5.069242658,-9.640474133,0.28356775
131,6.6,2.52,-4.18,-1.66,-0.82,1.35,-0.115,7.84,2.95,-5.78,0,1,0,0,6600000000,0.940953743,-10.82878434,2.027902916,-0.618653064,1.410687249,-0.253732124,6.135349608,-3.801188201,-2.711643352
132,6.65,0.45,-6.35,-2.16,-1.57,2.67,-1.15,5.83,1.22,-5.31,0,1,0,0,6650000000,0.771962696,-8.71307743,0.244017596,-1.362235259,2.157348497,-0.941570504,6.017859925,-1.472431287,-3.995149459
133,6.7,-7.02,-16.7,1.17,-2.3,1.6,-0.8,-1.82,-8.56,-0.703,0,1,0,0,6700000000,-1.910106475,-12.48597365,0.638450404,-2.095201398,1.826890093,-0.832922606,3.002079218,-4.759546779,-2.368931587
134,6.75,0.91,-4.84,0.711,-1.89,0.851,-0.812,5.86,3.59,-0.00597,0,1,0,0,6750000000,-0.939398449,-8.874136736,0.669353747,-1.934813949,1.248273493,-0.81686559,4.101724119,-0.887143735,-1.201703179
135,6.8,-1.58,-8.18,-0.843,-1.5,0.406,-1.1,2.96,0.51,-0.723,0,1,0,0,6800000000,-1.159899735,-8.546237668,0.025149324,-1.594959075,0.748879718,-1.034156358,3.662421877,-0.239168004,-0.965238919
136,6.85,-0.632,-9.9,1.83,-1.07,0.56,-1.11,3.41,-1,2.66,0,1,0,0,6850000000,-0.978191533,-9.185733396,0.79394619,-1.184645922,0.636890734,-1.09236237,3.565297309,-0.592031249,0.825514675
137,6.9,-4.81,-10.1,-0.515,-0.881,0.843,-0.881,-1.34,-1.02,0.881,0,1,0,0,6900000000,-2.297137174,-9.617618656,0.236385552,-0.947313259,0.759095316,-0.930152868,1.677881467,-0.790517165,0.852922665
138,6.95,-3.89,-12,1.19,-0.095,0.615,-0.676,-0.821,-2.8,2.95,0,1,0,0,6950000000,-2.845416052,-10.74301791,0.642588589,-0.281136804,0.67365953,-0.735103924,0.716384518,-1.722487193,1.888812672
139,7,-2.86,-13.1,3.65,0.257,0.621,-0.0433,-0.0599,-3.87,5.49,0,1,0,0,7000000000,-2.850435953,-11.85641914,1.923630015,0.139476232,0.642437076,-0.204180841,0.417692798,-2.718473561,3.667685384
140,7.05,-5.61,-11.5,2.65,1.9,0.83,1.23,-2.71,-2.26,4.17,0,1,0,0,7050000000,-3.800304724,-11.68805238,2.233035683,1.515518965,0.753645309,0.896477446,-0.785752497,-2.505839928,3.91581298
141,7.1,1.67,-12.3,-2.26,3.38,-1.83,1.64,5.24,-3.17,-1.98,0,1,0,0,7100000000,-1.917372766,-11.97712684,0.319175602,2.972815831,-0.778228124,1.467091842,1.532781834,-2.813868121,1.003467531
142,7.15,-0.433,-22.8,3.06,1.86,-0.64,1.05,3.77,-14,1.79,0,1,0,0,7150000000,-1.406437254,-17.08968054,1.486661168,2.103028007,-0.69627105,1.14699578,2.393598351,-8.001839724,1.391989716
143,7.2,-1.22,-12.9,-0.541,1.58,-0.845,1.89,3.57,-4.67,-2.73,0,1,0,0,7200000000,-1.342263752,-15.11054155,0.622955632,1.694224189,-0.784454194,1.717212382,2.846243487,-6.456579069,-0.644143053
144,7.25,-1.03,-7.41,-0.529,1.11,-1.16,1.61,4.36,0.241,-3.45,0,1,0,0,7250000000,-1.234779528,-11.47292748,0.132266924,1.237588808,-1.007119659,1.634932536,3.428693046,-3.350335518,-2.030147808
145,7.3,1.41,-2.07,-0.953,0.785,-2.6,0.898,7,5.05,-4.74,0,1,0,0,7300000000,-0.32442076,-7.031133267,-0.330014974,0.88384095,-1.951556916,1.069375622,4.80282816,0.545622762,-3.368729108
146,7.35,1.46,-2.45,-0.934,0.048,-2.32,0.266,6.7,4.39,-5.61,0,1,0,0,7350000000,0.289794196,-4.86707841,-0.58728933,0.230539415,-2.170011074,0.452827139,5.532804668,2.328591125,-4.475846222
147,7.4,1.36,-3.8,-0.113,-1.05,-0.471,0.18,6.29,3.08,-5.07,0,1,0,0,7400000000,0.658169424,-4.363007429,-0.385260349,-0.770342792,-1.162647603,0.243446682,5.824151409,2.677084023,-4.769339511
148,7.45,-0.74,-11.3,7.54,-1.5,0.225,-0.461,4.17,-4.11,3.07,0,1,0,0,7450000000,0.176905937,-7.639933062,2.990595184,-1.340650067,-0.339895174,-0.297179047,5.187682055,-0.470670738,-0.896953369
149,7.5,-14.4,-22.5,10.6,1.79,-1.3,0.101,-9.83,-15.1,6.08,0,1,0,0,7500000000,-4.840606418,-14.65959359,6.231908609,1.106296891,-0.909152484,0.008402406,-0.590685473,-7.255549334,2.549441246
150,7.55,5.39,0.931,-1.23,0.449,-0.824,0.907,9.9,7.8,-6.58,0,1,0,0,7550000000,-1.319132451,-7.294843832,3.05342304,0.592547155,-0.858664585,0.698028744,3.445825233,-0.272995914,-1.960214411
151,7.6,2,-17.2,10.3,-1.95,2.89,-0.796,6.76,-10.1,5.44,0,1,0,0,7600000000,-0.176654851,-11.97388326,6.140185696,-1.39473283,1.363962388,-0.448559646,4.721023443,-4.830623222,1.695257859
152,7.65,-3.05,-6.77,-2.96,0.0235,0.342,0.399,2.09,0.447,-7.16,0,1,0,0,7650000000,-1.165688119,-9.515651128,2.263857202,-0.286228055,0.758028985,0.201897742,3.708682061,-2.382935345,-2.678959825
153,7.7,2.96,-3.37,-4.57,-1.7,2.13,-1.09,8.13,4.08,-8.3,0,1,0,0,7700000000,0.254413782,-6.612542709,-0.647102731,-1.391246197,1.571486654,-0.78956577,5.40987674,0.614483692,-5.455576269
154,7.75,-7.33,-19.6,-2.05,-2.13,2.15,-1.08,-2.23,-11.6,-4.45,0,1,0,0,7750000000,-2.356215018,-12.74761224,-1.244682894,-1.968663549,1.914494014,-1.012458781,2.47027422,-5.050423284,-4.958853251
155,7.8,-0.35,-6.19,0.259,-1.79,1.07,-0.754,4.6,2.2,-0.88,0,1,0,0,7800000000,-1.665656338,-9.649899992,-0.604171916,-1.829018326,1.413783704,-0.814105283,3.289730762,-1.687778291,-2.944028541
156,7.85,-0.335,-6.25,-0.79,-1.52,0.339,-1.11,4.23,2.43,-1.03,0,1,0,0,7850000000,-1.207631516,-8.043841024,-0.683327529,-1.587486538,0.776531915,-1.041188908,3.651519043,0.221989752,-1.998558867
157,7.9,-1.48,-10.2,0.979,-1.25,0.634,-0.972,2.64,-1.33,1.48,0,1,0,0,7900000000,-1.301383398,-9.062376323,0.024759937,-1.323703729,0.692023084,-0.988090067,3.262315956,-0.497801421,-0.28026062
158,7.95,-2.45,-9.32,0.584,-1.25,0.339,-1.3,1.12,-0.259,1.74,0,1,0,0,7950000000,-1.696748395,-9.184073528,0.262974653,-1.266096167,0.482711576,-1.227464479,2.438015045,-0.387048661,0.717684337
159,8,-3.43,-11.5,0.108,-0.138,0.801,-0.818,-0.399,-2.35,1.74,0,1,0,0,8000000000,-2.293350441,-10.27808055,0.196961423,-0.384365067,0.671428491,-0.913222068,1.34641412,-1.297438009,1.222675997
160,8.05,-4.33,-12.1,1.92,-0.155,0.599,-0.249,-1.66,-2.81,3.69,0,1,0,0,8050000000,-2.994384958,-11.13872666,0.93090945,-0.205091068,0.628484781,-0.403466606,0.189633362,-1.998943091,2.441456172
161,8.1,-8.31,-13.5,1.43,1.31,0.737,0.827,-5.67,-4.24,3.15,0,1,0,0,8100000000,-4.824071385,-12.25415483,1.143502772,0.979119018,0.692824712,0.540851736,-2.064983271,-3.038313853,2.791454496
162,8.15,-1.56,-11.6,5.76,2.81,-0.814,1.88,1.67,-2.33,6.65,0,1,0,0,8150000000,-3.700546319,-11.94514262,3.109952816,2.410153617,-0.200589223,1.568577507,-0.627870284,-2.709807754,4.697454181
163,8.2,4.81,-22.2,-4.25,1.9,-2.71,1.18,8.87,-13.3,-5.01,0,1,0,0,8200000000,-0.771133704,-16.78937537,-0.025103506,2.011412497,-1.688448134,1.270364692,3.026634096,-7.621390974,-0.097721765
164,8.25,-2,-14.6,0.781,2.16,-0.692,1.62,2.52,-6.08,-1.11,0,1,0,0,8250000000,-1.194121409,-15.75514926,0.318265536,2.127550023,-1.097642408,1.538691383,2.831696014,-6.906515351,-0.597755255
165,8.3,-1.13,-9.11,-1.37,1.44,-0.56,1.47,3.99,-1.24,-4.21,0,1,0,0,8300000000,-1.172050196,-12.61608572,-0.400870536,1.590154184,-0.778867961,1.485974386,3.277377725,-4.278464743,-2.382090114
166,8.35,1.31,-4.99,-1.38,0.996,-2.13,1.17,6.74,2.32,-5.01,0,1,0,0,8350000000,-0.317704451,-9.013643366,-0.81794196,1.125757404,-1.579969958,1.243480651,4.609694045,-1.218189061,-3.680194729
167,8.4,1.12,-2.63,-1.73,0.519,-2.39,0.613,6.4,4.25,-6.31,0,1,0,0,8400000000,0.177167375,-5.998111287,-1.206443551,0.651509824,-2.06024627,0.759619933,5.298551777,1.31788059,-4.979235463
168,8.45,2.06,-2.56,-1.64,-0.534,-1.39,0.513,7.01,4.15,-6.8,0,1,0,0,8450000000,0.825256617,-4.374001881,-1.391121888,-0.275096338,-1.662849439,0.57035213,5.957067397,2.631378029,-5.878635744
169,8.5,1.13,-6.92,2.05,-1.83,0.12,-0.354,5.99,0.0163,-2.9,0,1,0,0,8500000000,0.930152245,-5.576691149,0.07466343,-1.490424419,-0.605777235,-0.139039456,5.969738817,1.418541393,-4.40728379
170,8.55,-9.76,-20.1,16.6,0.281,-1.48,-0.678,-5.22,-12.7,12,0,1,0,0,8550000000,-2.74950198,-12.43727266,7.113820252,-0.10586162,-1.12411411,-0.552663272,1.664252637,-5.129440664,3.697396308
171,8.6,0.0934,-9.27,4.23,0.578,-0.217,0.511,4.48,-2.08,-0.799,0,1,0,0,8600000000,-1.770947529,-10.94110338,5.885423946,0.428651378,-0.58627558,0.263642261,2.747670389,-3.715152675,1.476318503
172,8.65,-0.11,-12.1,0.515,0.245,1.4,-0.643,4.43,-5.02,-4.57,0,1,0,0,8650000000,-1.19923327,-11.48854799,3.597830261,0.285107652,0.591410341,-0.432157937,3.394981859,-4.320322616,-1.510371997
173,8.7,2.4,-6.41,-2.77,0.04,1.06,-0.217,7.31,0.624,-7.52,0,1,0,0,8700000000,0.039657783,-9.089522193,0.885379929,0.093529092,0.869242576,-0.267035545,4.901367025,-2.027214893,-4.478938455
174,8.75,1.02,-10.5,-2.01,-1.77,2.43,-0.871,6.1,-3.1,-6.01,0,1,0,0,8750000000,0.377101081,-9.755809594,-0.347940358,-1.363023622,1.794633878,-0.730546454,5.362566118,-2.524757586,-5.235234625
175,8.8,-5.01,-12.5,-0.802,-1.92,2,-0.972,0.1,-4.58,-3.5,0,1,0,0,8800000000,-1.477191469,-11.05212173,-0.541352265,-1.798361822,1.916397844,-0.915849338,3.337683636,-3.477950254,-4.378083514
176,8.85,-1.61,-8.17,0.74,-1.96,0.673,-1.14,3.27,0.213,-0.723,0,1,0,0,8850000000,-1.522905459,-9.690653056,0.004454434,-1.924699847,1.179172762,-1.087873157,3.311640933,-1.766139119,-2.57258767
177,8.9,-0.239,-6.74,-0.33,-1.71,0.00611,-0.951,4.16,2,-0.925,0,1,0,0,8900000000,-1.080972738,-8.296811125,-0.138010274,-1.756888358,0.483650182,-0.982830197,3.638064785,-0.01945644,-1.758731393
178,8.95,0.0814,-9.06,-0.0886,-1.55,0.455,-1.06,4.04,-0.0933,0.0756,0,1,0,0,8950000000,-0.680872761,-8.657329674,-0.116963402,-1.595182338,0.466663163,-1.042053913,3.792717759,-0.053704051,-0.852629609
179,9,-1.19,-8.67,2.29,-1.1,0.406,-1.45,2.21,0.485,3.18,0,1,0,0,9000000000,-0.856119317,-8.663314972,0.908310251,-1.208142954,0.43069526,-1.355131089,3.183733982,0.196139365,1.139362112
180,9.05,-3.12,-11.5,-0.357,-0.594,0.776,-0.437,-0.273,-2.25,1.01,0,1,0,0,9050000000,-1.635368979,-10.0033201,0.369336839,-0.728122746,0.635430477,-0.650513831,1.853683217,-0.93834588,1.075461309
181,9.1,-3.88,-13.3,-1.07,-0.0119,0.822,-0.649,-1.32,-3.96,0.494,0,1,0,0,9100000000,-2.407992799,-11.56061962,-0.243765219,-0.16831598,0.746049737,-0.649352037,0.63254214,-2.339746841,0.788237777
182,9.15,-7.42,-13.7,1.07,0.525,0.57,0.142,-5.11,-4.33,2.69,0,1,0,0,9150000000,-4.133174343,-12.57122898,0.315848167,0.373586614,0.641667792,-0.042031017,-1.577021217,-3.262798401,1.727648291
183,9.2,-4.47,-11.8,2.42,2.13,-0.546,1.75,-1.78,-2.49,3.6,0,1,0,0,9200000000,-4.249112931,-12.2069127,1.212135808,1.746416739,-0.062514282,1.333258422,-1.655121542,-2.904385309,2.652530865
184,9.25,6.25,-16.9,-7.86,2.73,-2.24,1.81,9.87,-7.79,-8.04,0,1,0,0,9250000000,-0.635216371,-14.42385271,-2.652244555,2.515195138,-1.353570941,1.699132434,2.779410199,-5.170265093,-2.629241725
185,9.3,1.45,-16.8,3.61,2.5,0.497,1.18,5.59,-8.03,2.14,0,1,0,0,9300000000,0.082535356,-15.54630674,0.015230297,2.503318468,-0.256345863,1.300725588,3.860843522,-6.496570045,-0.27338686
186,9.35,-1.56,-11.9,-1.11,1.88,-0.598,1.5,3.11,-3.67,-3.62,0,1,0,0,9350000000,-0.482841234,-13.82384894,-0.46407446,2.016126598,-0.458916576,1.453658206,3.571940718,-5.185646404,-1.926508018
187,9.4,-0.843,-7.2,0.204,1.23,-0.974,1.39,4.35,0.449,-3.07,0,1,0,0,9400000000,-0.606811374,-10.6948474,-0.179500483,1.401682306,-0.764315526,1.404803874,3.871315278,-2.572376164,-2.491356916
188,9.45,0.733,-2.08,-1.38,0.777,-1.9,0.923,6.11,5.06,-5.42,0,1,0,0,9450000000,-0.145635304,-6.625329747,-0.69086702,0.913424459,-1.437676069,1.035044755,4.732696142,0.967413188,-3.938014159
189,9.5,1.6,-1.96,-1.28,-0.192,-1.62,0.437,6.81,4.9,-5.97,0,1,0,0,9500000000,0.455229317,-4.421501801,-0.941814958,0.049413791,-1.545778055,0.576076903,5.531982266,2.791292025,-4.941750897
190,9.55,2.1,-3.47,-0.0239,-1.49,-0.379,0.0502,7.15,3.46,-4.78,0,1,0,0,9550000000,1.021375315,-3.972027417,-0.550818553,-1.153807228,-0.853981756,0.172494072,6.154548498,3.101429454,-4.861851165
191,9.6,-3,-15.8,13.3,-1.09,-0.618,-0.58,1.91,-8.44,9.12,0,1,0,0,9600000000,-0.362821094,-9.55937463,5.349096561,-1.103934895,-0.714065406,-0.40500549,4.521369594,-2.251324004,2.044741748
192,9.65,-7.05,-13.8,5.62,1.42,-0.495,0.692,1.62,-8.46,8.76,0,1,0,0,9650000000,-2.664613035,-11.56257906,5.46449094,0.868797494,-0.584178977,0.436888435,3.405006906,-5.130821162,5.361867389
193,9.7,6.58,-7.4,2.81,-0.102,0.00855,0.233,11.2,-0.429,-2.3,0,1,0,0,9700000000,0.51747246,-9.596242609,4.333780052,0.110012594,-0.23274306,0.280414794,6.404293609,-2.950182226,1.577146862
194,9.75,1.55,-16.4,5.4,0.214,2.11,-0.318,6.35,-9.28,0.662,0,1,0,0,9750000000,0.872878443,-12.81022978,4.787948709,0.191290178,1.156296535,-0.17883704,6.38340297,-5.885863106,1.12509321
195,9.8,0.728,-6.12,-5.5,-1.39,1.75,-0.456,5.74,1.09,-9.87,0,1,0,0,9800000000,0.823009872,-9.649871022,0.405678952,-1.044661819,1.508310237,-0.391545017,6.13584012,-2.650555292,-4.306135586
196,9.85,-1.17,-11.1,-2.55,-1.51,2.69,-1.08,3.9,-3.28,-5.72,0,1,0,0,9850000000,0.136996548,-10.33488919,-0.853326379,-1.408374726,2.2089479,-0.919897996,5.275553864,-2.942482936,-5.004539857
197,9.9,-5.09,-11.3,0.359,-2.13,1.91,-0.732,-0.0916,-3.07,-1.46,0,1,0,0,9900000000,-1.662186442,-10.79079236,-0.336922053,-1.972404251,2.031698187,-0.775696173,3.210429056,-3.001623537,-3.253649113
198,9.95,-1.47,-7.23,-0.0646,-1.89,1.07,-0.803,3.27,1.33,-0.672,0,1,0,0,9950000000,-1.596034014,-9.108730391,-0.220923351,-1.907996264,1.461496158,-0.796650402,3.233350217,-0.992677069,-1.978395968
199,10,-0.69,-8.24,-0.761,-1.55,0.427,-0.967,3.69,0.525,-0.44,0,1,0,0,10000000000,-1.284168313,-8.69835579,-0.450975185,-1.628182814,0.848131324,-0.927384754,3.409055803,-0.28879967,-1.218476936
200,10,-1.1,-9.36,1.52,-0.838,0.663,-1.07,2.81,-0.427,2.53,0,1,0,0,10000000000,-1.2207758,-9.010905885,0.388584295,-1.010568128,0.738364798,-1.036834486,3.17855652,-0.352895045,0.63315229
201,10.1,-4.36,-9.37,-0.553,-1.08,0.499,-1.1,-1.04,-0.262,0.949,0,1,0,0,10100000000,-2.301327281,-9.18053621,-0.012494324,-1.064836798,0.596442628,-1.08531071,1.5553786,-0.310739191,0.789171086
202,10.1,-1.19,-11.3,0.809,-0.34,0.688,-0.616,1.72,-2.12,2.8,0,1,0,0,10100000000,-1.918797665,-10.18173746,0.337430612,-0.498297206,0.650728074,-0.725139451,1.618720141,-1.149849011,1.78245705
203,10.2,-4.52,-12.1,1.83,0.104,0.692,-0.315,-1.96,-2.91,3.92,0,1,0,0,10200000000,-2.814156746,-11.08789452,0.973207681,-0.027535764,0.675198663,-0.410379018,0.241732634,-1.966182476,2.838335807
204,10.2,-7.94,-13.3,1.98,1.31,0.491,1.07,-5.36,-4.08,3.91,0,1,0,0,10200000000,-4.578521758,-12.13285824,1.402062426,1.017895344,0.565985128,0.725733963,-1.913651318,-2.946541461,3.367704121
205,10.3,-1.55,-11.8,5.8,2.79,-0.668,1.94,1.72,-2.59,6.88,0,1,0,0,10300000000,-3.536075162,-11.97562136,3.275414462,2.402989802,-0.165659022,1.657619248,-0.515527894,-2.781182475,5.102667434
206,10.3,4.63,-21.3,-6.53,1.78,-3.1,1.03,8.7,-12.4,-7.13,0,1,0,0,10300000000,-0.725232804,-16.38030995,-0.901314387,1.916054802,-1.905463922,1.175954503,3.030339312,-7.242255412,-0.939884063
207,10.4,-0.362,-14.4,0.737,2.37,-0.505,1.39,4.09,-5.82,-1.02,0,1,0,0,10400000000,-0.600204544,-15.44484268,-0.203455587,2.270862759,-1.075112542,1.34022314,3.438066004,-6.582633312,-0.979458797
208,10.4,-2.38,-9.84,-0.965,1.56,-0.44,1.37,2.61,-1.85,-3.7,0,1,0,0,10400000000,-1.212827451,-12.79720374,-0.527844154,1.715245367,-0.698546914,1.363075316,3.119450233,-4.387704147,-2.323320268
209,10.5,0.96,-4.56,-0.943,0.976,-1.82,1.07,2.96,-2.38,-4.44,0,1,0,0,10500000000,-0.464919164,-8.906078985,-0.704684556,1.137443901,-1.363469547,1.138155484,3.058098433,-3.456559081,-3.368893245
210,10.5,0.962,-1.65,-1.62,0.421,-2.47,0.474,6.15,5.44,-5.97,0,1,0,0,10500000000,0.026240264,-5.478422057,-1.09457367,0.577464281,-2.019544362,0.628451129,4.247772325,0.669540689,-4.653757743
211,10.6,2.3,-1.48,-1.46,-0.463,-1.34,0.113,7.1,5.51,-6.39,0,1,0,0,10600000000,0.808890415,-3.589630744,-1.250231223,-0.235772869,-1.616634612,0.232869529,5.345226596,2.914478163,-5.511406527
212,10.6,2.23,-7.08,4.53,-1.98,0.159,-0.623,6.85,0.23,-0.1,0,1,0,0,10600000000,1.298050132,-5.238425925,1.211924656,-1.599078023,-0.563840165,-0.423965285,5.924219628,1.669454717,-2.83834258
213,10.7,-13.4,-24,14.5,0.762,-1.52,-0.692,-9.2,-16.2,10.2,0,1,0,0,10700000000,-3.76116123,-14.1010967,6.872132765,0.24636388,-1.130758461,-0.629667793,0.104859583,-6.618148951,3.602186848
214,10.7,2.73,-7.66,3.67,1.03,-0.907,0.593,6.79,-0.237,-1.27,0,1,0,0,10700000000,-1.526840534,-11.05842445,5.508147617,0.858861583,-0.998089465,0.30866535,2.677107293,-3.658661266,1.195480404
215,10.8,6.66,-10.1,2.57,0.0693,1.19,-0.819,10.8,-2.89,-2.62,0,1,0,0,10800000000,1.291149375,-10.60568008,4.25660991,0.24173246,0.299254308,-0.556758429,5.802560384,-3.302166964,-0.689246377
216,10.8,-2.11,-11,-2.44,-1.05,1.97,-0.0934,2.12,-3.56,-7.27,0,1,0,0,10800000000,0.120440789,-10.79195057,1.404112084,-0.767898341,1.289858913,-0.201155236,4.38561814,-3.421746296,-3.939930857
217,10.9,1.69,-9.19,-2.33,-1.61,1.61,-0.635,6.26,-1.41,-6.19,0,1,0,0,10900000000,0.660698321,-10.03521427,-0.186475757,-1.426093319,1.479674302,-0.534108239,5.106825888,-2.488726469,-5.051393991
218,10.9,-2.33,-11.4,-1.31,-1.99,2.19,-0.778,2.23,-3.1,-3.96,0,1,0,0,10900000000,-0.368729038,-10.67991728,-0.665053771,-1.866848353,1.900834719,-0.72128232,3.99990691,-2.772226544,-4.512279841
219,11,-1.53,-10.1,0.769,-1.99,1.8,-0.811,2.91,-1.42,-0.542,0,1,0,0,11000000000,-0.768449763,-10.40597371,-0.054202121,-1.963104903,1.841048611,-0.790135907,3.580542443,-2.145082755,-2.551086967
220,11,-1.32,-7.08,-0.34,-1.73,1.61,-0.586,2.84,1.81,-0.403,0,1,0,0,11000000000,-0.958298725,-8.834836312,-0.175941007,-1.780907825,1.704057206,-0.633472367,3.295603202,-0.310770685,-1.489999834
221,11.1,-2.03,-9,-0.376,-1.4,0.839,-0.697,1.82,-0.0267,0.515,0,1,0,0,11100000000,-1.327188694,-8.912857025,-0.261158424,-1.483186491,1.191154701,-0.682226501,2.727833999,-0.179022672,-0.499593235
222,11.1,0.242,-10.1,1.94,-0.793,1.09,-0.982,3.69,-1.09,3.49,0,1,0,0,11100000000,-0.787058718,-9.473644765,0.676450278,-0.943729905,1.13117892,-0.91228687,3.098047533,-0.601521238,1.471139848
223,11.2,-5.13,-9.76,0.742,-1.01,0.966,-0.724,-2.24,-0.629,2.84,0,1,0,0,11200000000,-2.281941293,-9.608914556,0.704371927,-0.995527258,1.033242426,-0.767786595,1.044121992,-0.614265508,2.147313496
224,11.2,-3.88,-12.1,1.06,-0.124,0.401,-0.639,-1.39,-2.95,3.51,0,1,0,0,11200000000,-2.832008648,-10.78566409,0.85585576,-0.314332951,0.658378521,-0.668949664,0.107542604,-1.697546538,2.820437595
225,11.3,-2.07,-12.5,3.72,0.223,0.479,-0.0384,0.157,-3.23,6.21,0,1,0,0,11300000000,-2.569717853,-11.59548925,2.075870863,0.10565179,0.552022907,-0.185036002,0.126572374,-2.408277041,4.494774409
226,11.3,-7.59,-12.2,2.49,2.05,0.833,1.19,-5.27,-2.91,4.66,0,1,0,0,11300000000,-4.29774774,-11.88105048,2.252273923,1.625373502,0.718617502,0.870231765,-1.949871813,-2.640969176,4.576390558
227,11.4,-0.697,-12.4,2.31,3.43,-0.7,1.8,2.32,-3.08,3.34,0,1,0,0,11400000000,-3.058335434,-12.12619384,2.276862983,3.035887434,-0.122497337,1.583779888,-0.306949272,-2.8445855,3.965652622
228,11.4,-2.23,-21.9,-0.546,1.73,-2.18,1.39,1.57,-12.9,-1.22,0,1,0,0,11400000000,-2.773214345,-16.74318506,1.074432115,2.015192943,-1.342414679,1.435064017,0.415246274,-7.508146011,1.40410396
229,11.5,-0.436,-15.4,0.546,2.13,-1.51,1.6,3.95,-6.83,-1.33,0,1,0,0,11500000000,-1.968722482,-16.10868551,0.849340396,2.104927361,-1.441777963,1.561643717,1.775316786,-7.193631335,0.053542918
230,11.5,-0.656,-8.51,-1.43,1.44,-1.4,1.33,4.17,-0.493,-4.38,0,1,0,0,11500000000,-1.516870671,-12.5191868,-0.121570768,1.585213618,-1.417007308,1.383869395,2.696721313,-4.085972185,-2.136487342
231,11.6,2.05,-3.99,-1.16,1.06,-1.98,0.779,7.03,3.54,-5,0,1,0,0,11600000000,-0.289119188,-8.490133896,-0.563901596,1.174701426,-1.750812246,0.919663974,4.364041083,-0.549152901,-3.550972174
232,11.6,1.07,-2.09,-1.2,0.395,-1.96,0.456,5.84,5.11,-5.84,0,1,0,0,11600000000,0.178702844,-5.466811857,-0.834855028,0.565279105,-1.874842125,0.56382629,4.931947234,2.075483172,-4.681679714
233,11.7,2.82,-1.23,-2.54,-0.998,-0.77,0.295,7.35,5.89,-7.52,0,1,0,0,11700000000,1.087862935,-3.465408974,-1.561181071,-0.656595291,-1.219768345,0.357516259,5.862343619,3.844602695,-6.0837203
234,11.7,0.184,-9.18,6.83,-2.2,-0.261,-0.86,4.59,-1.6,2.44,0,1,0,0,11700000000,0.776744541,-6.16489151,2.013138722,-1.86293568,-0.651303426,-0.576863368,5.372782835,1.31947206,-1.873271598
235,11.8,-13.8,-23,11,1.22,-1.62,-0.242,-9.94,-15,6.74,0,1,0,0,11800000000,-4.240712456,-14.11753042,5.841195364,0.546717295,-1.225654915,-0.319873366,-0.519130764,-6.249270965,2.381412476
236,11.8,2.08,-7.1,2.07,0.725,-0.184,0.757,5.92,0.533,-2.74,0,1,0,0,11800000000,-2.065061915,-10.80256003,4.234811414,0.686064835,-0.608045579,0.506570258,1.958459626,-3.103748499,-0.148403572
237,11.9,1.94,-12.2,5.15,-0.209,1.63,-0.818,5.98,-4.58,0.415,0,1,0,0,11900000000,-0.686480717,-11.46268847,4.62464653,-0.013526678,0.718917719,-0.509967679,3.505831481,-3.788413274,0.129899998
238,11.9,-3.53,-9.12,-6.02,-0.578,1.22,-0.0744,0.606,-1.43,-10.5,0,1,0,0,11900000000,-1.665247639,-10.35603945,0.090437253,-0.454724604,1.016015259,-0.175692422,2.390060615,-2.69461414,-5.12093494
239,12,2.57,-8.69,-1.88,-1.63,2.05,-0.721,6.94,-0.69,-5.5,0,1,0,0,12000000000,-0.207434324,-9.569028571,-0.748893094,-1.373331448,1.629076831,-0.594187285,4.140745066,-1.764902122,-5.30818111
240,12,-3.55,-13.2,-0.85,-1.82,1.8,-0.952,0.757,-4.7,-3.26,0,1,0,0,12000000000,-1.357977851,-11.28424194,-0.79196075,-1.722452037,1.730419141,-0.868789718,2.838778326,-3.126159402,-4.296444312
241,12.1,-1.68,-8.7,0.898,-1.91,1,-0.923,2.36,0.151,-0.36,0,1,0,0,12100000000,-1.468820982,-10.06348684,-0.072102584,-1.86904135,1.297345122,-0.910393238,2.654558302,-1.606258683,-2.351965131
242,12.1,-0.812,-6.46,-0.412,-1.77,0.368,-0.74,2.86,2.63,-0.677,0,1,0,0,12100000000,-1.242736818,-8.361256685,-0.216885787,-1.791629638,0.746325571,-0.779625408,2.733606256,0.358458932,-1.52458524
243,12.2,-0.977,-9.55,0.292,-1.51,0.382,-0.78,2.34,-0.335,0.867,0,1,0,0,12200000000,-1.151267626,-8.92280031,-0.000120051,-1.571505126,0.530312695,-0.779912866,2.582157976,0.036842369,-0.343217659
244,12.2,0.725,-9.22,1.3,-0.95,0.561,-1.38,3.59,0.0841,2.51,0,1,0,0,12200000000,-0.505438092,-9.063192868,0.553680977,-1.085730577,0.548507549,-1.240448138,2.96994626,0.058759798,1.066181764
245,12.3,-4.6,-10.3,0.352,-0.788,0.859,-0.672,-2.32,-0.971,2.09,0,1,0,0,12300000000,-1.914826004,-9.64744108,0.467772651,-0.85302141,0.732602157,-0.804194119,0.93452872,-0.41882841,1.571915601
246,12.3,-4.1,-12.9,0.402,-0.04,0.456,-0.635,-2.17,-3.48,2.38,0,1,0,0,12300000000,-2.666984067,-11.18389828,0.43975604,-0.217555852,0.568601515,-0.674346535,-0.260003726,-1.838557012,1.971083834
247,12.4,-4.89,-13.4,2.53,0.464,0.56,0.138,-3.19,-3.94,4.54,0,1,0,0,12400000000,-3.432167678,-12.23074949,1.330119418,0.315154918,0.563501578,-0.050913349,-1.387381152,-2.813176922,3.240047282
248,12.4,-4.96,-11.3,1.53,2.28,-0.293,1.51,-2.95,-1.81,3.05,0,1,0,0,12400000000,-3.958062403,-11.79107825,1.415260832,1.850897202,0.055671805,1.147005443,-1.988631485,-2.347917462,3.146169902
249,12.5,4.55,-16.4,-5.92,3.16,-2.19,1.9,7.39,-6.97,-5.85,0,1,0,0,12500000000,-1.029504692,-13.96825979,-1.709277688,2.874104935,-1.275813208,1.724889095,1.619993264,-4.491574637,-1.297653909
250,12.5,-0.227,-18.2,2.7,2.17,0.659,1.44,3.28,-9.15,1.42,0,1,0,0,12500000000,-0.753274788,-15.96726728,0.168904738,2.323769629,-0.128639925,1.506251761,2.258715596,-6.652087027,0.044781285
251,12.6,-2.59,-11.8,-0.285,1.62,-0.69,2.03,1.68,-3.29,-2.51,0,1,0,0,12600000000,-1.385493401,-13.99871623,-0.02444119,1.773696345,-0.461476853,1.908200932,2.036042635,-5.092798042,-1.217199993
252,12.6,-0.383,-7.09,-0.249,0.81,-1.52,1.64,4.57,0.857,-3.17,0,1,0,0,12600000000,-1.040425439,-10.73514806,-0.12009459,1.020461773,-1.089087549,1.702370829,3.011035844,-2.333364881,-2.18182157
253,12.7,1.13,-3.84,-0.912,0.667,-2.67,1.03,6.27,3.63,-4.65,0,1,0,0,12700000000,-0.293343942,-7.47798916,-0.457415783,0.74419256,-2.026429007,1.186361602,4.26499052,0.432360447,-3.401023824
254,12.7,0.713,-3.57,-1.33,-0.0675,-2.35,0.428,5.58,3.62,-5.89,0,1,0,0,12700000000,0.053049409,-5.631916876,-0.829103057,0.109765643,-2.218277962,0.60435901,4.770967917,1.910743061,-4.630499394
255,12.8,1.87,-2.78,-1.09,-1.07,-0.9,0.207,6.44,4.43,-5.91,0,1,0,0,12800000000,0.678461437,-4.284716449,-0.940235117,-0.812350868,-1.436655584,0.299406896,5.413162973,3.079139135,-5.262532215
256,12.8,0.278,-9.72,9.76,-1.44,-0.335,-0.726,4.7,-2.15,5.36,0,1,0,0,12800000000,0.540618723,-6.852258535,3.617652862,-1.302927668,-0.783471157,-0.487538908,5.138758516,0.653937454,-0.015336664
257,12.9,-12.4,-20.1,8.87,1.27,-0.845,-0.0421,-8.47,-12.3,4.36,0,1,0,0,12900000000,-3.913667693,-13.1102822,5.854950322,0.708097974,-0.819952342,-0.145688003,-0.097496317,-5.353917753,2.145941554
258,12.9,3.05,-7.02,1.52,0.666,-0.476,0.545,6.95,0.41,-3.55,0,1,0,0,12900000000,-1.51670571,-10.23332923,4.008428502,0.675193789,-0.616018997,0.384378681,2.614175353,-2.68069327,-0.667673689
259,13,-2.26,-17.4,4.05,0.129,2.11,-0.412,1.71,-9.97,-0.967,0,1,0,0,13000000000,-1.772554815,-13.61875094,4.026136439,0.248283328,1.000269367,-0.22680002,2.266274972,-6.061371964,-0.815531439
260,13,-0.328,-5.15,-7.14,-0.917,0.889,-0.0677,3.94,2.22,-12,0,1,0,0,13000000000,-1.275325032,-9.618247022,-0.730207397,-0.662513618,0.934296462,-0.104699132,2.910275737,-2.220587392,-6.340305735
261,13.1,0.812,-10.9,-2.54,-1.7,2.25,-1.06,5.2,-3.03,-6.47,0,1,0,0,13100000000,-0.556847507,-10.22372667,-1.501109299,-1.47342325,1.71439242,-0.837842199,3.791295008,-2.595981632,-6.404370503
262,13.1,-3.79,-12.5,-0.982,-2.19,1.95,-0.647,0.613,-4.17,-3.62,0,1,0,0,13100000000,-1.669729959,-11.29900218,-1.279988736,-2.033506754,1.854086928,-0.691380872,2.568379458,-3.325989385,-5.02897934
263,13.2,-1.17,-8.53,0.728,-2.02,1.38,-1.05,3.07,0.215,-0.578,0,1,0,0,13200000000,-1.497718042,-9.990969231,-0.424662908,-2.022949727,1.572995261,-0.966602132,2.761388437,-1.683728003,-2.8303361
264,13.2,-1.04,-6.46,-0.0479,-1.63,0.663,-0.877,2.8,2.55,-0.278,0,1,0,0,13200000000,-1.340167037,-8.322995246,-0.264176425,-1.715816339,1.033448461,-0.897837194,2.776245026,0.279815843,-1.56956266
265,13.3,-1.88,-9.4,-0.335,-1.31,0.698,-0.944,1.54,-0.227,0.226,0,1,0,0,13300000000,-1.52598278,-8.831755073,-0.294344543,-1.398626239,0.834557168,-0.933264721,2.300573857,0.04476174,-0.682611407
266,13.3,0.314,-8.77,0.745,-1.17,0.505,-1.43,3.21,0.519,1.99,0,1,0,0,13300000000,-0.892642847,-8.80258317,0.148376189,-1.219929681,0.63915888,-1.31448285,2.650494619,0.264706813,0.63757424
267,13.4,-4.31,-10.5,-0.273,-0.763,0.648,-0.806,-2.05,-1.11,1.53,0,1,0,0,13400000000,-2.068930324,-9.604416026,-0.031113833,-0.862788942,0.644400884,-0.924249034,0.84188093,-0.372862997,1.078404371
268,13.4,-3.84,-13.4,0.575,-0.149,0.504,-0.54,-1.94,-4,2.63,0,1,0,0,13400000000,-2.678549664,-11.39738967,0.227067301,-0.304884464,0.561155569,-0.629358151,-0.228506017,-2.055078438,1.844843673
269,13.5,-6.09,-14.8,0.697,0.516,0.533,0.254,-4.38,-5.35,2.81,0,1,0,0,13500000000,-3.852804029,-13.00472905,0.427240536,0.336726913,0.5444618,0.048572719,-1.82588028,-3.583216957,2.321600394
270,13.5,-4.63,-12.6,1.47,2.28,-0.226,1.83,-2.53,-3.17,3.1,0,1,0,0,13500000000,-4.120322464,-12.81354163,0.871415902,1.855608313,0.087646024,1.415724382,-2.096805072,-3.391572744,2.706105172
271,13.6,6.21,-16,-5.14,3.17,-1.59,1.9,9.3,-6.65,-4.85,0,1,0,0,13600000000,-0.564525208,-14.31877415,-1.689215596,2.882949887,-0.907049871,1.787380399,2.288354339,-4.902785803,-1.026372136
272,13.6,-0.69,-17.3,2.93,2.59,0.817,1.08,2.97,-8.24,1.74,0,1,0,0,13600000000,-0.607714848,-15.72705772,0.278392299,2.653977297,0.115159369,1.244503226,2.550631788,-6.450538993,0.34012835
273,13.7,-2.36,-11.9,-1.14,2.1,-0.316,1.43,1.86,-3.29,-3.38,0,1,0,0,13700000000,-1.210868366,-13.91921602,-0.325788164,2.2209831,-0.140480053,1.386862192,2.284896755,-4.984725169,-1.497497641
274,13.7,-1.31,-7.47,0.0718,1.3,-0.998,1.4,3.47,0.533,-2.97,0,1,0,0,13700000000,-1.244990417,-10.8727083,-0.156430925,1.501133583,-0.648913637,1.396944749,2.740890049,-2.425681367,-2.224867323
275,13.8,0.699,-3.45,-1.3,0.932,-2.22,0.907,5.65,4.07,-5.19,0,1,0,0,13800000000,-0.57585005,-7.366338355,-0.643547269,1.056293143,-1.580429064,1.020937958,3.86023104,0.586924933,-3.689549263
276,13.8,1.4,-2.05,-1.4,-0.0895,-2.07,0.456,6.12,5.18,-6.04,0,1,0,0,13800000000,0.104256704,-4.854984201,-0.965766976,0.160729913,-1.870701337,0.587377825,4.72972441,2.717128866,-4.850597688
277,13.9,1.98,-2.4,0.0479,-1.36,-0.903,-0.0103,6.42,4.91,-4.74,0,1,0,0,13900000000,0.749905756,-3.695288549,-0.533983901,-1.027887606,-1.296939937,0.128691567,5.380093358,3.734151775,-4.795965809
278,13.9,-0.991,-12.4,9.72,-1.49,-0.318,-0.638,3.21,-4.68,5.44,0,1,0,0,13900000000,0.150669101,-7.807256344,3.83381827,-1.389079221,-0.716515035,-0.459703846,4.545104523,-0.168214124,0.260278107
279,14,-9.74,-18.5,6.77,1.13,-0.624,0.417,-5.92,-10.6,2.39,0,1,0,0,14000000000,-3.253795109,-12.85833928,5.084518548,0.579857955,-0.661661801,0.213120186,0.518436448,-5.006330772,1.312293523
280,14,3.79,-3.59,0.845,0.548,-0.524,0.717,7.68,3.91,-4.13,0,1,0,0,14000000000,-0.829252489,-8.480122395,3.278647007,0.554957446,-0.580040509,0.599821415,3.273997882,-0.871061155,-1.376027682
281,14.1,-0.953,-24.2,9.78,-0.371,2.09,-0.778,2.95,-16.5,5.09,0,1,0,0,14100000000,-0.871847586,-15.90594424,6.047972772,-0.168780026,1.003057569,-0.457583964,3.149332932,-8.119544526,1.81798589
282,14.1,5.78,-2.47,-1.57,-0.54,0.419,0.309,10,5.06,-6.2,0,1,0,0,14100000000,1.417782978,-9.559016758,2.803009868,-0.458929238,0.656763031,0.13072885,5.785270501,-2.007056028,-2.142645861
283,14.2,2.7,-8.39,-1.96,-1.78,2.6,-1.2,7.02,-0.473,-5.81,0,1,0,0,14200000000,1.859134537,-9.006791898,0.774151166,-1.491491161,1.808930815,-0.890535504,6.260358517,-1.295582281,-3.954202973
284,14.2,-7.95,-16.1,-1.12,-2.13,1.78,-0.657,-3.74,-7.58,-3.67,0,1,0,0,14200000000,-1.517264698,-12.35751137,-0.032684251,-1.99055606,1.791777381,-0.711309306,2.412511222,-4.210207339,-3.813815716
285,14.3,0.599,-6.57,1.08,-2,0.735,-0.969,4.65,2.25,-0.33,0,1,0,0,14300000000,-0.78882586,-9.62358264,0.441276387,-1.997937537,1.165201767,-0.90907333,3.273431907,-1.214053477,-2.092920768
286,14.3,-1.32,-7.09,-0.771,-1.77,0.639,-0.936,2.28,2.02,-1.22,0,1,0,0,14300000000,-0.971661172,-8.426758356,-0.075106657,-1.819779294,0.853210607,-0.929738123,2.891188173,0.28585531,-1.661725487
287,14.4,-0.737,-9.83,0.29,-1.5,0.338,-0.894,2.43,-0.563,0.738,0,1,0,0,14400000000,-0.890888515,-9.089627472,0.080414708,-1.569836642,0.547736235,-0.902310991,2.713736394,-0.107831928,-0.476336885
288,14.4,-0.977,-8.94,-0.134,-1.17,0.44,-1.47,1.67,0.444,0.966,0,1,0,0,14400000000,-0.920528923,-9.018945623,-0.010917698,-1.257320343,0.483858164,-1.337982433,2.31213695,0.148100009,0.236132002
289,14.5,-2.3,-11.5,0.996,-0.628,0.863,-0.588,-0.2,-2.06,2.63,0,1,0,0,14500000000,-1.395356239,-10.19095646,0.417990442,-0.765437369,0.708655762,-0.762410409,1.345539667,-0.875985883,1.418627258
290,14.5,-4.61,-12.5,-1.17,-0.0376,0.619,-0.658,-2.87,-3.03,0.631,0,1,0,0,14500000000,-2.501867864,-11.2817121,-0.258432283,-0.196552498,0.655497827,-0.682280912,-0.276477426,-1.874987508,1.029564255
291,14.6,-6.05,-14.7,0.524,0.509,0.421,0.152,-4.54,-5.21,2.36,0,1,0,0,14600000000,-3.723169444,-12.89645713,0.074853718,0.3549143,0.516461335,-0.042014248,-1.916956976,-3.421719702,1.68675745
292,14.6,-4.46,-12.7,2.92,1.93,-0.00733,1.59,-2.59,-3.21,4.33,0,1,0,0,14600000000,-3.976793685,-12.8036538,1.286776443,1.586016786,0.205899349,1.210470773,-2.175924336,-3.323527081,2.992435766
293,14.7,3.72,-14.3,-0.505,2.83,-0.784,1.93,6.47,-4.92,-0.282,0,1,0,0,14700000000,-1.327482595,-13.51050416,0.523548717,2.558326283,-0.381023497,1.762671525,1.150775969,-4.063948941,1.374967892
294,14.7,-1.96,-18.1,2.54,2.13,-0.734,0.998,1.43,-8.92,1.39,0,1,0,0,14700000000,-1.545201237,-15.67850957,1.382479254,2.223542323,-0.590307394,1.175826416,1.25821324,-6.316117578,1.382393272
295,14.8,-0.84,-12.8,-0.735,2.03,-1.22,1.52,3.05,-4.1,-3.03,0,1,0,0,14800000000,-1.302464119,-14.31874728,0.480514672,2.072267711,-0.963659494,1.439961503,1.947640688,-5.288313179,-0.79718966
296,14.8,-0.342,-7.79,-0.876,1.4,-0.971,1.45,4.05,0.37,-4.08,0,1,0,0,14800000000,-0.971863051,-11.23467033,-0.097308307,1.546816615,-0.968011775,1.447665557,2.756567518,-2.664066617,-2.418794269
297,14.9,1.14,-3.39,-1.29,1.09,-1.73,1.03,5.81,4.24,-5.31,0,1,0,0,14900000000,-0.244939299,-7.528972225,-0.605348997,1.189764267,-1.419803483,1.127129214,3.931439565,0.537942867,-3.846958576
298,14.9,1.15,-2.6,-1.49,0.153,-1.85,0.684,5.74,4.66,-6.23,0,1,0,0,14900000000,0.235212337,-5.20060368,-0.982176243,0.379419082,-1.674872025,0.787050889,4.627320966,2.449695276,-5.024105799
299,15,2.09,-1.82,-1.6,-1.18,-0.853,0.252,6.51,5.41,-6.53,0,1,0,0,15000000000,0.873648221,-3.60366001,-1.245345369,-0.839438221,-1.187574516,0.37642751,5.351721225,3.822643156,-5.767970086
300,15,-0.915,-9.84,8.1,-1.88,-0.206,-0.718,3.33,-2.18,3.69,0,1,0,0,15000000000,0.257978138,-6.549608431,2.735411846,-1.652751573,-0.605587549,-0.463487968,4.573821631,1.038701136,-1.096031491
301,15.1,-14.3,-23.8,8.12,1.34,-0.8,0.195,-10.5,-15.9,3.76,0,1,0,0,15100000000,-4.753019281,-14.69842014,5.029038883,0.686412617,-0.720856963,0.041866867,-1.226146803,-6.817231501,1.302694722
302,15.1,3.32,-4.19,0.558,0.537,-0.318,0.849,7.3,3.31,-4.35,0,1,0,0,15100000000,-1.974207723,-9.73440874,3.1245486,0.569630241,-0.481998369,0.661299026,2.054466743,-2.120363118,-1.489557928
303,15.2,0.663,-21.3,8.26,-0.414,2.04,-0.821,4.66,-13.6,3.65,0,1,0,0,15200000000,-1.066455236,-15.19781072,5.312053125,-0.199184866,1.013323827,-0.476287405,3.05700015,-7.444458416,1.049221443
304,15.2,1.34,-4.53,-4.45,-0.812,0.966,0.0941,5.56,3.1,-8.93,0,1,0,0,15200000000,-0.238129979,-10.1585058,1.153794706,-0.678167204,0.985264991,-0.038545109,4.020081719,-2.55408604,-3.880198986
305,15.3,2.13,-7.64,-2.73,-1.82,2.79,-1.05,6.48,0.416,-6.26,0,1,0,0,15300000000,0.577003381,-8.968803444,-0.500552205,-1.570635027,2.055313383,-0.814783439,4.966586782,-1.176601647,-5.055745653
306,15.3,-6.75,-16,-1.25,-2.01,1.84,-0.675,-2.45,-7.48,-3.43,0,1,0,0,15300000000,-1.945022288,-12.29022946,-0.819788089,-1.914047018,1.927651589,-0.70750702,2.112899737,-4.100029702,-4.25267867
307,15.4,-0.326,-7,-0.187,-1.84,0.993,-0.945,3.78,1.85,-1.22,0,1,0,0,15400000000,-1.387739106,-9.791208757,-0.550244747,-1.856171164,1.373485754,-0.88977037,2.754351452,-1.340489086,-2.754631184
308,15.4,-1.41,-7.97,-1.06,-1.73,0.745,-0.98,2.27,1.12,-1.09,0,1,0,0,15400000000,-1.39540151,-8.930898454,-0.76738082,-1.757554552,1.000849231,-0.959016874,2.567987084,-0.199348639,-1.93235596
309,15.5,-1.2,-9.17,1.53,-1.23,0.582,-1,2.02,0.0576,2.32,0,1,0,0,15500000000,-1.328142431,-9.043846278,0.211214879,-1.345212723,0.752508652,-0.990469265,2.357137574,-0.080179452,0.168173574
310,15.5,-2.48,-8.85,-0.35,-1.08,0.276,-1.46,0.137,0.508,0.996,0,1,0,0,15500000000,-1.724622991,-8.952276543,-0.027841033,-1.137919875,0.469981116,-1.350809408,1.502893163,0.192609964,0.577093684
311,15.6,-1.91,-11.3,0.515,-0.55,0.742,-0.693,0.166,-1.85,2.37,0,1,0,0,15600000000,-1.788431545,-10.06130405,0.203388325,-0.678395908,0.631264272,-0.845975341,0.988495529,-0.754723997,1.462732733
312,15.6,-5.4,-12.6,0.359,-0.0809,0.67,-0.561,-3.72,-3.17,2.37,0,1,0,0,15600000000,-3.031568489,-11.26054403,0.269672902,-0.211387209,0.654231146,-0.627271765,-0.823196706,-1.874895281,1.910894057
313,15.7,-8.33,-14.8,1.69,0.916,0.449,0.465,-6.81,-5.29,3.68,0,1,0,0,15700000000,-4.855340007,-12.93252713,0.874677545,0.669789766,0.532547209,0.210989299,-3.126744582,-3.458773095,2.784776563
314,15.7,-3.8,-12,2.64,2.43,-0.438,1.83,-1.76,-2.46,3.95,0,1,0,0,15700000000,-4.492081719,-12.49201606,1.626636938,2.045587508,-0.042901536,1.453494789,-2.600860988,-2.995556112,3.36036017
315,15.8,5.1,-20.5,-9.17,2.22,-3.49,1.67,8.12,-11.2,-9.29,0,1,0,0,15800000000,-1.190394137,-16.27486098,-2.972314437,2.181910055,-2.086726386,1.619651105,1.524214668,-6.800662415,-2.888518274
316,15.8,0.67,-16.9,0.419,2.47,-0.522,1.57,4.22,-7.89,-1.02,0,1,0,0,15800000000,-0.550028415,-16.57016659,-1.527745154,2.407084022,-1.158981889,1.581546537,2.561474428,-7.305881898,-1.965529239
317,15.9,0.268,-11.5,-1.58,2.11,-0.235,1.53,4.46,-3.08,-4.19,0,1,0,0,15900000000,-0.268455094,-14.1751001,-1.550003723,2.174880136,-0.611142261,1.541987262,3.291971901,-5.345976909,-3.064347581
318,15.9,0.455,-5.43,-1.04,1.5,-1.28,1.27,5.15,2.44,-4.52,0,1,0,0,15900000000,-0.019434825,-10.04405309,-1.332761771,1.647387162,-1.007715791,1.333251346,4.006887146,-1.734949626,-3.783393901
319,16,1.07,-2.14,-1.33,0.986,-2.01,0.615,5.83,5.24,-5.7,0,1,0,0,16000000000,0.355559232,-6.310303505,-1.331585381,1.13044043,-1.601981771,0.782031268,4.708367953,1.499934407,-4.730136699
320,16,1.53,-1.52,-2.36,0.062,-1.73,0.16,5.96,5.61,-7.43,0,1,0,0,16000000000,0.759813132,-4.047439906,-1.76965034,0.295336845,-1.677885282,0.304655023,5.1899596,3.40612544,-6.063783831
321,16.1,2.95,-2.23,-1.21,-1.75,-0.0867,-0.585,7.08,5.07,-6.29,0,1,0,0,16100000000,1.513696723,-3.188910056,-1.531260874,-1.303318618,-0.734452988,-0.378108342,5.917192181,4.177807282,-6.175527456
322,16.1,-2.14,-17.9,18.8,-0.851,-0.715,-0.906,1.66,-9.93,14.4,0,1,0,0,16100000000,0.256058817,-10.13819603,7.129072572,-0.949781931,-0.722919069,-0.783237405,4.279148355,-2.365196675,3.988133203
323,16.2,-5.77,-12.4,6.29,1.08,-0.859,1.19,-2.22,-4.51,1.6,0,1,0,0,16200000000,-1.818169101,-11.20663626,6.77165997,0.636715691,-0.803603055,0.731118438,1.778464958,-3.359926583,2.808470823
324,16.2,7.61,-2.91,0.709,-0.452,0.374,-0.304,11.3,4.58,-4.46,0,1,0,0,16200000000,1.427098246,-7.287436589,4.189200412,-0.214235231,-0.105388475,-0.063280447,5.442074967,0.322500345,-0.781924265
325,16.3,-1.11,-22.7,4.72,0.824,2.12,0.447,11.3,4.87,-4,0,1,0,0,16300000000,0.553804403,-14.56808807,4.415300496,0.597259672,1.214070214,0.328332923,7.696034329,2.431567066,-2.371552061
326,16.3,2.52,-3.28,-6.23,-1.34,1.68,-0.723,6.54,4.44,-10.8,0,1,0,0,16300000000,1.230588002,-9.235773836,-0.119187362,-0.916921632,1.490325382,-0.478509726,7.251225905,3.363050213,-6.534939291
327,16.4,-0.915,-12.2,-2.21,-1.93,2.85,-1.1,3.19,-3.99,-5.57,0,1,0,0,16400000000,0.492055782,-10.63602729,-1.009793003,-1.708753641,2.296492249,-0.955470802,5.688584241,-0.047191698,-6.058289836
328,16.4,-4.09,-11.5,0.682,-2.15,1.32,-0.671,-0.0361,-2.77,-1.31,0,1,0,0,16400000000,-1.085132337,-11.04415433,-0.289154376,-2.053636224,1.717518648,-0.737154444,3.485892136,-1.309992119,-3.712784566
329,16.5,-0.124,-5.96,-0.0215,-1.89,0.443,-1.2,3.58,3.08,-0.888,0,1,0,0,16500000000,-0.754301259,-8.642480277,-0.175143925,-1.925736525,0.961841685,-1.092364072,3.522102078,0.726024826,-2.317430194
330,16.5,-1.3,-8.69,-1.75,-1.69,0.426,-1.12,1.87,0.586,-1.72,0,1,0,0,16500000000,-0.942136045,-8.664927644,-0.845971934,-1.741482575,0.644134906,-1.113573195,2.886421219,0.661083281,-2.022318558
331,16.6,1.44,-9.49,2.65,-1.06,0.581,-1.13,4.1,-0.0866,3.45,0,1,0,0,16600000000,-0.122181681,-9.054678664,0.643177451,-1.208829024,0.606701467,-1.126179899,3.353371024,0.314318227,0.680834033
332,16.6,-5.4,-10.1,-0.845,-1.03,0.425,-1.11,-3.39,-0.573,0.47,0,1,0,0,16600000000,-1.938857998,-9.548472106,0.009271184,-1.069054472,0.498968557,-1.11376269,0.758717814,-0.09720757,0.576688678
333,16.7,-1.38,-11.4,0.85,-0.328,0.57,-0.707,0.182,-1.89,2.58,0,1,0,0,16700000000,-1.74649365,-10.42310441,0.367389277,-0.48983899,0.541083923,-0.801593758,0.53681356,-0.928679632,1.566261175
334,16.7,-5.58,-12,1.88,0.0345,0.39,-0.329,-4.38,-2.47,3.7,0,1,0,0,16700000000,-3.066023712,-11.16800494,1.011703162,-0.080010462,0.451504496,-0.438902932,-1.355033432,-1.643522487,2.620260801
335,16.8,-6.49,-13.7,1.82,1.5,0.505,1.26,-5.26,-4.14,3.43,0,1,0,0,16800000000,-4.2445895,-12.36407926,1.356006494,1.154941308,0.483222601,0.864915598,-2.857551155,-2.801353799,3.020246429
336,16.8,0.335,-12.3,4.64,2.89,-0.687,1.98,2.35,-2.68,5.23,0,1,0,0,16800000000,-2.668250348,-12.33380932,2.754861139,2.511080387,-0.210616,1.720684172,-0.853836868,-2.745071635,4.111794925
337,16.9,1.84,-22.5,-3.96,1.83,-1.22,1.21,4.71,-13.1,-4.83,0,1,0,0,16900000000,-1.116466816,-17.13615696,-0.105411,1.978741269,-0.809091552,1.328760991,1.286965857,-7.547542844,-0.305169374
338,16.9,-1.89,-14.5,0.287,2.05,-1.15,2.08,1.7,-5.55,-1.58,0,1,0,0,16900000000,-1.38272444,-15.89087812,0.061740967,2.034437759,-1.011220129,1.905297312,1.445889409,-6.621110483,-0.934895469
339,17,-0.692,-10.1,-0.68,1.3,-0.757,1.66,3.65,-1.79,-3.52,0,1,0,0,17000000000,-1.144970375,-13.15535909,-0.254212109,1.460393921,-0.86049007,1.717044517,2.293967137,-4.380508954,-2.211855468
340,17,1.53,-4.9,-1.09,1.13,-2.07,1.29,6.26,2.87,-4.75,0,1,0,0,17000000000,-0.224219622,-9.255658106,-0.610225562,1.202154768,-1.577622561,1.389310309,3.819981396,-1.017824303,-3.46561872
341,17.1,1.21,-1.89,-1.63,0.438,-2.45,0.675,5.86,5.46,-6.17,0,1,0,0,17100000000,0.269452703,-5.776237739,-1.044610179,0.604883855,-2.094865337,0.841114771,4.604921312,1.986500078,-4.801497713
342,17.1,1.65,-1.26,-2.37,-0.483,-1.41,0.279,5.97,5.95,-7.43,0,1,0,0,17100000000,0.744650472,-3.642838476,-1.609175127,-0.24541691,-1.688800679,0.409721295,5.130163833,3.824715851,-6.099894758
343,17.2,2.37,-4.19,1.43,-1.9,-0.0678,-0.556,6.5,3.26,-3.43,0,1,0,0,17200000000,1.304111514,-3.901308951,-0.314603644,-1.538655363,-0.727690489,-0.33141894,5.657236975,3.562808528,-4.781051088
344,17.2,-8.13,-23.5,19.1,0.498,-1.6,-0.92,-4.44,-15.5,14.7,0,1,0,0,17200000000,-1.943201263,-13.15942054,7.955269629,0.053214565,-1.244892976,-0.783123922,1.772113647,-5.278255603,4.8419729
345,17.3,-1.2,-7.98,3.77,1.14,-1.21,1.09,2.27,-0.327,-1.28,0,1,0,0,17300000000,-1.687384192,-10.71274423,6.172506017,0.902656775,-1.224204547,0.654400077,1.963685837,-2.98193246,1.817911616
346,17.3,5.4,-5.01,-2.3,-1.03,1.2,-1.06,9.05,2.45,-7.51,0,1,0,0,17300000000,0.75216226,-8.018858183,2.563544918,-0.607926811,0.213134603,-0.66131166,4.690293633,-0.462678092,-2.789782287
347,17.4,-4.93,-16.9,-2.34,0.854,1.69,0.524,-1.06,-9.12,-6.96,0,1,0,0,17400000000,-1.203693074,-12.21416889,0.474823753,0.53472959,1.088785339,0.248352613,2.4777478,-4.477822926,-4.849738173
348,17.4,4.18,-4.52,-5.51,-1.36,1.58,-1.07,8.36,3.26,-9.78,0,1,0,0,17400000000,0.649426269,-8.579565225,-2.074480669,-0.946209767,1.38003226,-0.763413634,4.741067344,-0.889128818,-7.2851317
349,17.5,-2.59,-13.9,-1.28,-1.92,2.48,-1.15,1.5,-5.57,-4.37,0,1,0,0,17500000000,-0.46561566,-11.09285426,-1.736062503,-1.70733379,2.032215961,-1.060098294,3.493998833,-3.060051522,-5.845148635
350,17.5,-2.9,-9.38,0.905,-1.94,1.2,-0.692,1.07,-0.604,-0.935,0,1,0,0,17500000000,-1.303554407,-10.28372906,-0.611071649,-1.889188041,1.538785449,-0.777602216,2.561314557,-1.920969144,-3.419690259
351,17.6,-0.11,-5.83,-0.18,-1.74,0.706,-1.14,3.5,3.25,-0.979,0,1,0,0,17600000000,-0.892721397,-8.179857877,-0.427451739,-1.772581203,1.045017235,-1.055723421,2.922493432,0.477254064,-2.214066327
352,17.6,-1.58,-8.44,-0.702,-1.58,0.632,-0.983,1.57,0.844,-0.609,0,1,0,0,17600000000,-1.129289377,-8.302744702,-0.544398729,-1.622057868,0.800134521,-0.99991201,2.402093291,0.647345694,-1.421214258
353,17.7,1.81,-10,1.8,-0.899,0.604,-1.48,4.44,-0.62,2.6,0,1,0,0,17700000000,-0.117557469,-9.104501253,0.45422478,-1.056908694,0.683844062,-1.368354276,3.186220582,0.059568474,0.56513856
354,17.7,-4.47,-9.92,-0.172,-1.01,0.69,-0.942,-2.53,-0.407,1.18,0,1,0,0,17700000000,-1.615710354,-9.489729996,0.18747715,-1.020244388,0.687493988,-1.041149799,0.986785058,-0.156819465,0.86886067
355,17.8,-3.88,-12.6,-0.919,-0.171,0.447,-0.751,-2.36,-3.06,0.761,0,1,0,0,17800000000,-2.395100864,-10.95897252,-0.283839496,-0.356466596,0.544902298,-0.818475097,-0.300960516,-1.503273989,0.815580894
356,17.8,-3.2,-13.1,1.87,0.0944,0.738,-0.0812,-1.97,-3.51,3.67,0,1,0,0,17800000000,-2.672154974,-11.97036021,0.633613144,-0.004064812,0.659392161,-0.252655287,-0.943158409,-2.433965458,2.225573836
357,17.9,-6.36,-11.8,2.88,1.51,0.531,1.32,-5.01,-2.19,4.41,0,1,0,0,17900000000,-3.941547067,-11.88988483,1.59048744,1.179343179,0.583266964,0.954274871,-2.507960936,-2.320817715,3.304611308
358,17.9,1.21,-13,5.32,2.91,-0.636,2.15,3.39,-3.45,5.7,0,1,0,0,17900000000,-2.16833456,-12.41428567,3.179116166,2.532041697,-0.139650612,1.871931015,-0.238596955,-2.844516697,4.487857588
359,18,0.788,-21.6,-0.797,1.9,-1.65,1.19,3.83,-12.3,-1.89,0,1,0,0,18000000000,-1.150735519,-16.75347198,1.485443883,2.038031651,-1.035154348,1.348584915,1.326880868,-7.229837771,1.337397341
360,18,-1.39,-14.2,-0.0982,2.05,-1.04,1.92,2.29,-5.39,-2.29,0,1,0,0,18000000000,-1.23309267,-15.54725212,0.810872606,2.047386193,-1.038027369,1.78711587,1.697461102,-6.376546668,-0.454422384
361,18.1,-1.37,-9.36,-0.733,1.4,-0.786,1.62,3,-1.15,-3.84,0,1,0,0,18100000000,-1.280217503,-12.62449194,0.153242369,1.541382737,-0.888597413,1.658863243,2.198640211,-3.95254737,-2.126790777
362,18.1,1.65,-4.01,-1.16,1.11,-2.08,1.09,6.33,3.66,-5.09,0,1,0,0,18100000000,-0.271608211,-8.555142344,-0.406148267,1.204209744,-1.594993844,1.222290686,3.788267348,-0.42195427,-3.590522639
363,18.2,1.55,-1.49,-1.81,0.396,-2.35,0.545,6.04,5.79,-6.59,0,1,0,0,18200000000,0.355406997,-5.21768088,-1.004134991,0.57250503,-2.042645734,0.702505763,4.65466861,2.459063271,-5.072169816
364,18.2,2.05,-0.936,-2.08,-0.847,-0.968,0.111,6.21,6.3,-7.23,0,1,0,0,18200000000,0.938702337,-3.195082566,-1.462411999,-0.536994112,-1.405475754,0.248556239,5.253114937,4.240436125,-6.138069798
365,18.3,1.3,-6.3,4.07,-2.09,-0.0428,-0.8,5.26,1.33,-0.662,0,1,0,0,18300000000,1.063064483,-4.66179653,0.894182423,-1.750838773,-0.597529423,-0.556155468,5.255764197,2.890616553,-3.433064237
366,18.3,-14.6,-30.4,15,1.32,-1.34,-0.508,-11.1,-22.4,10.6,0,1,0,0,18300000000,-4.328314446,-16.82011648,6.902717215,0.649359158,-1.037748899,-0.519198694,-1.037458623,-8.83881771,3.498826561
367,18.4,1.53,-3.31,2.21,1.28,-1.15,0.989,5,4.28,-2.93,0,1,0,0,18400000000,-2.311825772,-10.43815116,4.903800508,1.142274241,-1.104303871,0.6382644,1.285579973,-2.754493336,0.323189211
368,18.4,0.948,-11.1,1.06,-1.1,1.14,-1.61,4.46,-3.54,-4.07,0,1,0,0,18400000000,-1.189762101,-10.75079826,3.266489568,-0.610309453,0.226370036,-1.087160146,2.507004548,-3.118800329,-1.84690762
369,18.5,-1.11,-6.72,-3.99,0.177,1.07,0.535,2.57,1,-8.8,0,1,0,0,18500000000,-1.162307217,-8.846712834,0.1755046,0.005059386,0.726568102,0.157762365,2.531243341,-1.20855831,-5.281515792
370,18.5,2.4,-4.86,-3.76,-1.72,2.49,-1.06,6.32,3.1,-7.94,0,1,0,0,18500000000,0.063873531,-6.963452827,-1.500868721,-1.343264077,1.772127427,-0.77680608,3.989046847,0.789690764,-6.594723072
371,18.6,-6.02,-17.2,-1.69,-1.76,2.33,-0.988,-2.08,-8.72,-4.62,0,1,0,0,18600000000,-2.030254773,-11.79903612,-1.581431383,-1.66898898,2.102896531,-0.938886274,1.65385405,-3.620771008,-5.619272174
372,18.6,-0.18,-8.23,0.692,-2,1.07,-0.863,3.61,0.628,-1.11,0,1,0,0,18600000000,-1.393379127,-10.11307971,-0.613037221,-1.92771046,1.490480174,-0.880647536,2.406522115,-1.650250395,-3.391834117
373,18.7,-0.79,-6.6,-0.567,-1.78,0.635,-1.11,2.57,2.58,-1.33,0,1,0,0,18700000000,-1.185690183,-8.453556387,-0.593427127,-1.812258484,0.983256005,-1.056663486,2.469423628,0.311680572,-2.373353191
374,18.7,-0.63,-8.94,-1.46,-1.64,0.636,-0.991,2.28,0.422,-1.34,0,1,0,0,18700000000,-0.994416228,-8.683344456,-0.962553798,-1.677619542,0.77736386,-1.006270216,2.39653891,0.362845176,-1.862909361
375,18.8,2.12,-9.76,2.04,-1.09,0.62,-1.36,4.5,-0.289,2.92,0,1,0,0,18800000000,0.077596022,-9.19193961,0.316418416,-1.218330335,0.684060997,-1.277739209,3.205889599,0.060528493,0.49969687
376,18.8,-6.74,-10,-1.11,-0.928,0.685,-0.82,-5.05,-0.474,0.298,0,1,0,0,18800000000,-2.269086611,-9.573654554,-0.291180876,-0.991405259,0.684617744,-0.926448465,0.02926317,-0.187378354,0.400064989
377,18.9,-2.53,-12.5,-0.156,-0.00458,0.634,-0.65,-1.16,-2.94,1.55,0,1,0,0,18900000000,-2.358895522,-10.95601385,-0.233599033,-0.220092898,0.654605896,-0.714288807,-0.428330718,-1.464005823,0.968096549
378,18.9,-4.85,-13,1.29,0.317,0.699,-0.0799,-3.79,-3.44,3,0,1,0,0,18900000000,-3.216357825,-11.92156057,0.415395435,0.199704213,0.680927678,-0.227428801,-1.721803334,-2.380444328,1.971792692
379,19,-6.47,-12.5,1.96,1.62,0.0299,1.43,-5.21,-2.88,3.34,0,1,0,0,19000000000,-4.336292965,-12.1948062,1.073337483,1.30982142,0.294925782,1.044560485,-3.063960039,-2.612131319,2.647643856
380,19,2.8,-13.5,4.15,2.88,-0.712,2.17,4.93,-3.92,4.38,0,1,0,0,19000000000,-1.879911688,-12.8113591,2.383877212,2.537088583,-0.302092254,1.908276107,0.011883369,-3.218702567,3.503373145
381,19.1,1.87,-20.8,0.0383,1.93,-0.941,1.16,4.83,-11.6,-1.14,0,1,0,0,19100000000,-0.589155692,-16.58506632,1.384751695,2.062582114,-0.680908092,1.334013573,1.865754578,-7.105831338,1.209693443
382,19.1,-2.39,-13.2,-0.11,2.02,-0.856,1.84,1.26,-4.36,-2.28,0,1,0,0,19100000000,-1.209023816,-14.98601445,0.748045066,2.029299499,-0.784722128,1.722331536,1.632677819,-5.832353207,-0.51410491
383,19.2,-1.96,-8.63,-0.754,1.33,-0.93,1.54,2.37,-0.375,-3.79,0,1,0,0,19200000000,-1.467517119,-11.98353384,0.108231738,1.482720143,-0.870859075,1.582401654,1.91637792,-3.301309074,-2.132293622
384,19.2,1.16,-4.41,-1.34,1.07,-2.24,1.06,5.75,3.34,-5.23,0,1,0,0,19200000000,-0.563100239,-8.405916197,-0.508659197,1.160134047,-1.682638688,1.18148585,3.39144427,-0.221162799,-3.662462766
385,19.3,1.81,-2.32,-1.83,0.224,-2.4,0.601,6.2,5.07,-6.55,0,1,0,0,19300000000,0.253743873,-5.531025637,-1.071499486,0.428442443,-2.107970625,0.735993536,4.472094809,2.232804626,-5.088815074
386,19.3,2,-1.13,-1.64,-1.02,-1.08,0.326,6.1,6.22,-6.68,0,1,0,0,19300000000,0.854822179,-3.452050751,-1.313658795,-0.70367445,-1.498474889,0.421345091,5.098465374,4.082010009,-5.874810097
387,19.4,0.984,-7.79,5.78,-2.05,0.0886,-0.606,4.95,-0.0522,1.23,0,1,0,0,19400000000,0.899286448,-5.501229329,1.707966624,-1.755975749,-0.557479694,-0.367088172,5.04134014,2.164621195,-2.365258249
388,19.4,-13.2,-28.3,13,1.36,-1.28,-0.168,-9.63,-20.2,8.76,0,1,0,0,19400000000,-3.953824709,-16.27100754,6.517937761,0.679501658,-0.985870385,-0.214298482,-0.603765159,-8.207777851,3.130268136
389,19.5,0.4,-2.91,-0.127,1.09,-1.06,0.99,4,4.7,-5.15,0,1,0,0,19500000000,-2.45519599,-9.959479,3.687450302,1.000351239,-1.029822664,0.709937193,1.167629863,-2.221331,-0.959922904
390,19.5,-1.78,-13.7,1.79,-0.859,1.43,-1.35,1.88,-6.07,-3.15,0,1,0,0,19500000000,-2.222786968,-11.72644185,2.879209566,-0.45293606,0.428634824,-0.870956147,1.441729184,-4.006289964,-2.04175188
391,19.6,3.06,-6.8,-2.62,0.201,-0.231,0.522,7.02,0.872,-7.26,0,1,0,0,19600000000,-0.404400446,-9.399268751,0.536758223,0.058186822,0.037529647,0.198064356,3.588085651,-1.743807278,-4.619401787
392,19.6,3.24,-6.79,-3.11,-2.01,2.62,-1.32,7.27,1.16,-7.2,0,1,0,0,19600000000,0.850037558,-8.166691455,-1.016620226,-1.558328401,1.568706342,-0.966970138,5.004779268,-0.397062068,-5.894135722
393,19.7,-6.22,-16.2,-1.83,-1.84,2.17,-0.933,-2.27,-7.62,-4.59,0,1,0,0,19700000000,-1.583537909,-11.96149968,-1.363088689,-1.778485729,1.925220403,-0.940899867,2.205655659,-3.746959664,-5.249933932
394,19.7,-0.311,-7.88,0.706,-1.95,0.945,-0.944,3.48,1.01,-0.939,0,1,0,0,19700000000,-1.145518008,-10.03346386,-0.481736642,-1.912543013,1.344036301,-0.94327906,2.695986329,-1.54074827,-3.120468701
395,19.8,-0.429,-6.56,-0.606,-1.77,0.726,-1.07,2.89,2.64,-1.26,0,1,0,0,19800000000,-0.898885553,-8.392654456,-0.534668047,-1.801129972,0.977595383,-1.040530749,2.770637191,0.398224387,-2.201455906
396,19.8,-1.22,-9.65,-0.326,-1.49,0.556,-1.06,1.64,-0.274,-0.122,0,1,0,0,19800000000,-1.009416271,-8.986604419,-0.445783501,-1.557947723,0.727626565,-1.05547233,2.335600857,0.086456118,-1.174270352
397,19.9,0.855,-9.15,-0.0527,-0.813,0.742,-1.58,3.14,0.345,0.802,0,1,0,0,19900000000,-0.367666091,-9.063789726,-0.278345076,-0.975689249,0.736148732,-1.458019729,2.645110307,0.206365156,-0.19805521
398,19.9,-4.2,-10.4,0.953,-0.926,0.689,-0.641,-2.59,-0.829,2.32,0,1,0,0,19900000000,-1.686792548,-9.69499414,0.246160487,-0.936851641,0.708193706,-0.83100009,0.630792056,-0.273822729,1.045784518
399,20,-3.75,-13,-0.642,0.0302,0.793,-0.729,-2.47,-3.37,0.963,0,1,0,0,20000000000,-2.396968575,-11.25622662,-0.132161668,-0.180994534,0.758476336,-0.752720371,-0.562302612,-1.709786415,1.00489158
400,20,-6.53,-13.1,1.18,0.489,0.717,0.0734,-5.56,-3.51,2.8,0,1,0,0,20000000000,-3.819598173,-12.12719618,0.426768623,0.3426798,0.733884537,-0.11871649,-2.485271284,-2.544700308,1.891618432
401,20.1,-5.19,-11.7,2.43,1.82,0.0794,1.53,-3.91,-2.01,3.63,0,1,0,0,20100000000,-4.291303801,-11.92539537,1.280068034,1.497367889,0.345833031,1.146586574,-3.033465516,-2.296713775,2.75032409
402,20.1,4.24,-15,1.74,2.98,-1.09,2.05,6.38,-5.41,1.72,0,1,0,0,20100000000,-1.354746319,-13.37778996,1.475981334,2.656207794,-0.505489123,1.839908769,0.588562451,-3.740612337,2.241376538
403,20.2,0.163,-18.7,1.54,1.94,0.0189,1.14,3.01,-9.42,0.185,0,1,0,0,20200000000,-0.832323306,-15.89191814,1.503250803,2.096412759,-0.194572702,1.302765634,1.520261235,-6.374632983,1.225591464
404,20.2,-2.57,-12.7,-0.362,1.75,-0.963,2.02,0.976,-3.87,-2.67,0,1,0,0,20200000000,-1.430448464,-14.38410642,0.708725834,1.825653128,-0.6501822,1.853205226,1.310845336,-5.213019163,-0.698707746
405,20.3,-0.991,-8.76,-0.484,1.08,-1.13,1.59,3.26,-0.478,-3.58,0,1,0,0,20300000000,-1.279186037,-11.72736763,0.200670585,1.242843318,-0.934671762,1.651209101,2.060823393,-3.016983455,-2.121975099
406,20.3,1.6,-4.35,-1.37,0.847,-2.33,1.02,6.09,3.47,-5.24,0,1,0,0,20300000000,-0.288142254,-8.242415832,-0.468374568,0.933448276,-1.761978087,1.16678934,3.6111335,-0.008411192,-3.662180829
407,20.4,1.17,-2.48,-1.85,0.151,-2.27,0.567,5.45,5.04,-6.47,0,1,0,0,20400000000,0.213764446,-5.520341767,-1.056893779,0.321878976,-2.063190187,0.706482584,4.318675808,2.332971333,-5.049154733
408,20.4,2.31,-1.73,-1.87,-0.967,-1.06,0.222,6.32,5.75,-6.78,0,1,0,0,20400000000,0.935309047,-3.729844291,-1.403245702,-0.685521557,-1.468387002,0.334667715,5.088727254,3.917741465,-5.904137743
409,20.5,0.359,-8.66,8.26,-1.69,-0.47,-0.76,4.16,-0.812,3.77,0,1,0,0,20500000000,0.736937879,-6.058771778,2.712924741,-1.470631866,-0.876431715,-0.505432105,4.731379942,1.724153498,-1.125419189
410,20.5,-15.4,-26,9.91,1.4,-0.881,-0.0305,-12.2,-17.9,5.39,0,1,0,0,20500000000,-4.817552609,-15.47869251,5.778601434,0.773082311,-0.879140294,-0.140946724,-1.783322866,-7.377254407,2.092992087
411,20.6,3.61,-2.93,0.699,0.799,-1.13,0.849,6.96,4.77,-4.37,0,1,0,0,20600000000,-1.916707252,-9.550888726,3.61488694,0.793339852,-1.027877934,0.618785239,1.580853658,-1.743527619,-1.099521865
412,20.6,0.357,-13.3,2.81,-1.31,2.27,-1.11,3.81,-5.54,-2.12,0,1,0,0,20600000000,-1.134075153,-11.32190967,3.272036091,-0.850651289,0.927472308,-0.707966407,2.438564357,-3.504278424,-1.603605784
413,20.7,-1.5,-8.61,-5.34,0.0583,0.608,0.362,2.25,-0.777,-9.89,0,1,0,0,20700000000,-1.260030036,-10.04084628,-0.396359528,-0.140205992,0.738053443,0.113176458,2.366010273,-2.239404818,-5.696823036
414,20.7,2.1,-4.56,-4.69,-1.78,2.42,-1.19,6.01,3.51,-8.68,0,1,0,0,20700000000,-0.103475123,-7.451781182,-2.22528496,-1.421885149,1.735299199,-0.886942893,3.768111693,0.427088766,-7.170418407
415,20.8,-4.72,-18.2,-2.52,-1.98,2.56,-0.884,-0.821,-9.6,-5.17,0,1,0,0,20800000000,-1.692527715,-12.52907007,-2.350822204,-1.858113239,2.224273879,-0.88468438,2.002354907,-4.22333502,-6.182274919
416,20.8,-0.572,-7.79,0.589,-1.82,1.44,-0.854,3.21,1.14,-0.821,0,1,0,0,20800000000,-1.30683121,-10.29040833,-1.098571222,-1.828323596,1.759268792,-0.861135713,2.467021652,-1.735895214,-3.533974393
417,20.9,-1.01,-6.21,-1.13,-1.57,0.839,-1.02,2.36,3,-1.55,0,1,0,0,20900000000,-1.204659024,-8.362888005,-1.111958668,-1.626415365,1.213630695,-0.983055673,2.425842791,0.460546787,-2.553953667
418,20.9,-2.18,-9.55,-0.426,-1.4,0.726,-0.861,0.764,-0.2,-0.0248,0,1,0,0,20900000000,-1.540380876,-8.923661021,-0.819766705,-1.449446863,0.924508781,-0.889384372,1.786413987,0.154194419,-1.304631619
419,21,0.618,-9.22,0.694,-0.969,0.572,-1.45,3.03,0.23,1.75,0,1,0,0,21000000000,-0.797445242,-9.063646992,-0.174960411,-1.073924839,0.715502233,-1.319627382,2.264909728,0.18935199,0.204259944
420,21,-4.21,-10.7,0.285,-0.791,0.723,-0.823,-2.44,-1.16,1.86,0,1,0,0,21000000000,-1.97207972,-9.836634175,0.020965,-0.852787999,0.719947741,-0.938492029,0.454597194,-0.436458586,1.022143255
421,21.1,-4.29,-12.8,-0.752,-0.133,0.536,-0.714,-2.92,-3.26,1.05,0,1,0,0,21100000000,-2.769930362,-11.2364814,-0.308288297,-0.290194597,0.61088299,-0.766206208,-0.843849751,-1.745977621,1.035903584
422,21.1,-4.8,-12.9,1.86,0.458,0.57,0.0996,-3.7,-3.32,3.72,0,1,0,0,21100000000,-3.468700098,-12.02230109,0.61531898,0.294601687,0.586642985,-0.101745534,-1.94281337,-2.475987168,2.361762472
423,21.2,-5.2,-11.4,3.33,1.86,0.238,1.65,-3.79,-1.78,4.73,0,1,0,0,21200000000,-4.06463026,-11.72833572,1.771668466,1.518132468,0.3799285,1.2426269,-2.653557081,-2.153198035,3.531597038
424,21.2,3.99,-15.8,-0.0934,3,-1.28,2.14,6.33,-6.25,0.0863,0,1,0,0,21200000000,-1.292148355,-13.6517256,0.977221159,2.676374755,-0.604262432,1.93131358,0.803054542,-4.05323752,1.829729094
425,21.3,-0.522,-18.5,1.66,2.41,-0.236,1.04,2.48,-9.24,0.389,0,1,0,0,21300000000,-1.027055822,-15.94197372,1.268058624,2.468173685,-0.385915346,1.247277314,1.44829442,-6.45878535,1.118054415
426,21.3,-2.26,-13.8,-0.833,2.1,-0.594,1.85,1.37,-4.98,-3.24,0,1,0,0,21300000000,-1.45144717,-14.93013931,0.373088602,2.180405425,-0.509291151,1.709835255,1.418169005,-5.772945385,-1.034686856
427,21.4,-0.749,-8.36,-0.649,1.3,-1.02,1.7,3.58,-0.181,-3.89,0,1,0,0,21400000000,-1.209658042,-11.82650928,-0.062281757,1.492271819,-0.812096367,1.702287251,2.249978708,-3.179479278,-2.445121439
428,21.4,1.68,-3.28,-1.68,0.967,-2.32,0.994,6.3,4.36,-5.74,0,1,0,0,21400000000,-0.215009719,-7.789273495,-0.751367376,1.081714187,-1.706149961,1.158714097,3.808309258,0.317225885,-4.072687292
429,21.5,1.3,-1.81,-2.4,0.144,-2.37,0.499,5.64,5.51,-7.27,0,1,0,0,21500000000,0.306471312,-4.964759265,-1.453621393,0.34878752,-2.099754316,0.652418277,4.513090565,2.72556204,-5.652058799
430,21.5,3.29,-0.795,-2.38,-1.31,-0.58,0.119,7.34,6.52,-7.51,0,1,0,0,21500000000,1.333430827,-2.995030964,-1.848223035,-0.947737131,-1.198674265,0.243047841,5.600803209,4.485369317,-6.569823197
431,21.6,0.091,-9.29,9.93,-2.06,-0.173,-0.906,3.99,-1.46,5.51,0,1,0,0,21600000000,0.905774079,-5.968674728,3.168846295,-1.817092721,-0.590540038,-0.638785883,4.981012957,1.727990116,-0.60277187
432,21.6,-18.6,-31,5.17,1.51,-0.875,0.45,-15.3,-22.9,0.691,0,1,0,0,21600000000,-5.808302785,-17.79307678,4.021260701,0.783395777,-0.759199664,0.196799939,-2.822531423,-9.694127268,0.036310573
433,21.7,8.31,-2.63,0.634,0.557,0.162,0.764,11.8,5,-4.43,0,1,0,0,21700000000,-0.94864581,-10.63027925,2.578418155,0.606442589,-0.213009649,0.632096116,2.80379373,-2.879196439,-2.169905732
434,21.7,-2.97,-19.1,6.67,-0.0589,2.18,-0.725,0.555,-11.3,1.82,0,1,0,0,21700000000,-1.644415549,-14.63124152,4.321274405,0.086404256,1.205833694,-0.409403708,1.938523268,-6.784647511,-0.199018264
435,21.8,1.05,-7.01,-5.86,-1.22,1.17,0.0111,4.88,0.784,-10.4,0,1,0,0,21800000000,-0.716971585,-11.0310877,-0.015556265,-0.934694225,1.184587454,-0.086689256,3.070318063,-3.274414601,-5.237980936
436,21.8,0.747,-9.52,-3.03,-1.87,2.33,-1.12,4.68,-1.27,-6.58,0,1,0,0,21800000000,-0.213058366,-10.317274,-1.299593138,-1.665738453,1.863715853,-0.879700842,3.68967682,-2.344795118,-5.900895939
437,21.9,-4.34,-12.1,-0.187,-1.87,1.82,-0.685,-0.5,-3.32,-2.47,0,1,0,0,21900000000,-1.633591779,-11.15940574,-0.825671332,-1.825391298,1.837796246,-0.7302782,2.077610955,-2.79708148,-4.206141697
438,21.9,-0.838,-8.2,0.498,-1.84,1.3,-1.02,2.78,0.85,-0.625,0,1,0,0,21900000000,-1.359741367,-9.761429196,-0.261838347,-1.83680963,1.518930557,-0.95262441,2.347869833,-1.105616058,-2.437170781
439,22,-1.7,-7.98,-1.38,-1.57,0.774,-0.911,1.45,1.31,-1.53,0,1,0,0,22000000000,-1.476861707,-8.919910236,-0.738132127,-1.628268631,1.077252544,-0.920679878,2.002395637,0.014712877,-1.989057047
440,22,-1.07,-9.19,0.505,-1.38,0.491,-0.917,1.66,0.205,1.16,0,1,0,0,22000000000,-1.336815977,-9.047496169,-0.20860574,-1.434219415,0.729656578,-0.917855762,1.870651735,0.102965384,-0.43352232
441,22.1,0.63,-8.82,0.00479,-0.971,0.513,-1.42,2.8,0.66,1.25,0,1,0,0,22100000000,-0.659818832,-8.940030434,-0.117707377,-1.072162561,0.601198375,-1.303224989,2.228237917,0.361310265,0.398084545
442,22.1,-3.46,-10.2,-0.429,-0.754,0.776,-0.922,-1.94,-0.695,1.33,0,1,0,0,22100000000,-1.623668378,-9.535220033,-0.250306036,-0.82348357,0.704840309,-1.010654878,0.624421097,-0.128591667,0.858421374
443,22.2,-3.96,-13.1,-0.287,-0.128,0.916,-0.597,-2.88,-3.59,1.69,0,1,0,0,22200000000,-2.427856408,-11.21916587,-0.265936251,-0.279886753,0.830039355,-0.693196544,-0.723978327,-1.733944428,1.269194985
444,22.2,-7.94,-14.5,0.637,0.506,0.646,0.0978,-7.11,-4.93,2.66,0,1,0,0,22200000000,-4.325189745,-12.76898001,0.118679812,0.334370075,0.720920294,-0.086148348,-3.181133905,-3.216230247,1.956208787
445,22.3,-4.93,-12,2.31,1.98,-0.036,1.71,-3.73,-2.41,3.86,0,1,0,0,22300000000,-4.533371245,-12.40572602,1.052097757,1.62061068,0.272133433,1.292300955,-3.392321633,-2.842311968,2.896621478
446,22.3,5.85,-16.1,-3.87,2.97,-1.52,2.09,8.01,-6.54,-3.56,0,1,0,0,22300000000,-0.95931413,-14.15084278,-1.044526191,2.675306712,-0.79044335,1.9044929,0.994960405,-4.557247973,-0.292745622
447,22.4,-0.18,-17.3,2.54,2.36,0.044,1.27,2.62,-7.99,1.5,0,1,0,0,22400000000,-0.691066646,-15.63845447,0.482343839,2.428859792,-0.295692165,1.417552996,1.620228364,-6.149310273,0.592814105
448,22.4,-1.18,-12.4,-2.19,2.1,-0.742,1.77,2.29,-3.51,-4.35,0,1,0,0,22400000000,-0.859362233,-14.10865963,-0.655971696,2.171819659,-0.560313271,1.688037498,1.877937008,-4.925235057,-1.848779936
449,22.5,-0.555,-8.01,-0.46,1.44,-0.975,1.67,3.61,0.342,-3.45,0,1,0,0,22500000000,-0.754597801,-11.22774941,-0.572495308,1.599822236,-0.806185879,1.674194635,2.544384463,-2.48236506,-2.639732109
450,22.5,1.37,-3.73,-1.4,0.99,-2.04,1.04,5.88,4.1,-5.21,0,1,0,0,22500000000,-0.023290618,-7.685931219,-0.924980413,1.123179166,-1.537728625,1.187483619,3.827832414,0.570443801,-3.909363305
451,22.6,1.71,-2.5,-2.06,0.0101,-2.05,0.45,6.04,5.04,-6.59,0,1,0,0,22600000000,0.573324847,-5.236179356,-1.408455,0.253185505,-1.841460264,0.621503768,4.679010189,2.643361472,-5.233513261
452,22.6,2.01,-1.34,-0.541,-1.06,-0.793,-0.136,6.08,6.24,-5.24,0,1,0,0,22600000000,1.067842373,-3.395685884,-1.038952597,-0.773213201,-1.219815947,0.04015951,5.218070318,4.31143204,-5.236717392
453,22.7,-2.08,-10.5,13.1,-1.18,-0.838,-0.954,1.67,-2.46,8.91,0,1,0,0,22700000000,-0.015675494,-6.751651478,4.9836966,-1.091161736,-0.993432823,-0.72280556,3.85287597,1.170936495,1.751314212
454,22.7,-11.9,-24.8,5.03,1.25,-0.925,0.444,-8.7,-16.7,0.59,0,1,0,0,22700000000,-4.106375189,-15.27740542,5.003420154,0.738713381,-0.952858212,0.172656269,-0.977105773,-7.117354401,1.177661649
455,22.8,10.1,-2.5,0.757,0.241,0.927,0.386,13.4,5.21,-4.28,0,1,0,0,22800000000,0.783597148,-9.241561248,3.194608795,0.349695688,0.161731617,0.336386354,4.554786503,-1.400099727,-1.518250972
456,22.8,2.47,-17.6,5.98,0.0571,2.21,-0.588,5.96,-9.71,1.35,0,1,0,0,22800000000,1.364073386,-13.18995566,4.381078135,0.121000012,1.37617383,-0.373031495,5.095471828,-5.254115334,-0.101425551
457,22.9,-1.03,-8.85,-5.41,-1.28,2.29,-0.476,2.73,-0.846,-9.64,0,1,0,0,22900000000,0.540010103,-11.13982945,0.210456164,-0.974035401,1.917991991,-0.452054409,4.18530703,-3.209693067,-4.813180298
458,22.9,-0.326,-7.55,-4.03,-1.91,2.38,-0.88,3.47,0.905,-7.24,0,1,0,0,22900000000,0.241921019,-9.444050899,-1.595814867,-1.705594542,2.191921991,-0.780480111,3.910077686,-1.301355952,-6.011952486
459,23,-3.51,-15.1,0.16,-2.28,1.63,-0.911,0.216,-6.23,-1.72,0,1,0,0,23000000000,-1.049526603,-12.11583195,-0.847905387,-2.154555494,1.858751892,-0.880647263,2.488703965,-3.587192177,-3.891863499
460,23,0.625,-7.38,-0.244,-1.89,1.27,-1.15,3.97,1.82,-0.886,0,1,0,0,23000000000,-0.473138296,-9.878699917,-0.590664961,-1.947776298,1.509674024,-1.087361286,3.058663636,-1.079412004,-2.407061836
461,23.1,-1.42,-7.8,-1.55,-1.58,0.414,-0.959,1.39,1.59,-1.24,0,1,0,0,23100000000,-0.799057268,-8.896755052,-0.999304705,-1.660318748,0.860036131,-0.988850752,2.416610364,0.158623986,-1.830570146
462,23.1,0.0335,-9.98,1.88,-1.14,0.714,-1.03,2.39,-0.52,2.93,0,1,0,0,23100000000,-0.512482977,-9.408462612,0.227168158,-1.253632468,0.7734496,-1.020430611,2.40637151,-0.156112324,0.521001214
463,23.2,-3.87,-9.3,-0.924,-1.04,0.425,-1.29,-2.18,0.231,0.65,0,1,0,0,23200000000,-1.66817288,-9.35722668,-0.263185133,-1.086655193,0.566849779,-1.227310893,0.641669033,0.023424964,0.584722529
464,23.2,-2.22,-11.8,0.733,-0.464,0.682,-0.726,-1.04,-2.24,2.78,0,1,0,0,23200000000,-1.85811714,-10.51115424,0.161151342,-0.599981739,0.635123676,-0.842581189,-0.005388318,-1.0263199,1.669120265
465,23.3,-4.47,-12.5,1.18,-0.0761,0.665,-0.428,-3.69,-2.94,3.35,0,1,0,0,23300000000,-2.757152495,-11.45065351,0.595141592,-0.190510601,0.652837709,-0.52441196,-1.42311982,-1.913858007,2.49942173
466,23.3,-7.91,-13.5,1.06,1.08,0.576,0.532,-7.24,-3.93,3.14,0,1,0,0,23300000000,-4.53081256,-12.41873237,0.793153339,0.802533057,0.607279721,0.286328594,-3.661286154,-2.848916512,2.815847219
467,23.4,-3.72,-11.5,2.05,2.71,-0.351,1.87,-6.68,-3.84,2.34,0,1,0,0,23400000000,-4.251723018,-11.98473773,1.32852157,2.293428074,0.039104502,1.501713007,-4.822799435,-3.308567141,2.580793677
468,23.4,7.39,-22.8,-9.44,2.21,-2.66,1.95,9.64,-13.3,-9.57,0,1,0,0,23400000000,-0.244529024,-17.09369616,-3.25845353,2.228219898,-1.561226057,1.845749704,0.74206555,-7.942454127,-3.421314562
469,23.5,-0.57,-15.8,0.812,2.43,-0.103,1.74,2.37,-6.49,-0.468,0,1,0,0,23500000000,-0.35655929,-16.48257465,-1.52459717,2.385933269,-0.696626837,1.764592382,1.368447365,-7.268826099,-1.962470423
470,23.5,-0.769,-11.2,-1.89,1.82,-0.682,1.86,2.98,-2.47,-4.24,0,1,0,0,23500000000,-0.498525383,-13.98716987,-1.680244691,1.943594282,-0.687954404,1.837812716,1.988525986,-5.043197647,-3.087498003
471,23.6,0.433,-6.28,-0.742,1.16,-1.78,1.45,4.75,1.92,-3.95,0,1,0,0,23600000000,-0.177885306,-10.34642485,-1.280588596,1.331129232,-1.335440945,1.540186915,3.051060923,-1.813763931,-3.513546778
472,23.6,1.33,-2.79,-1.7,0.92,-2.23,0.804,5.74,4.96,-5.78,0,1,0,0,23600000000,0.341143464,-6.776889283,-1.459241715,1.00978658,-1.865835443,0.97520224,4.085686436,1.327813113,-4.633103205
473,23.7,1.83,-1.83,-2.8,-0.129,-1.85,0.456,5.98,5.67,-7.57,0,1,0,0,23700000000,0.853622347,-4.440057069,-2.030353065,0.119699756,-1.856446439,0.576741862,4.814563243,3.34165873,-6.083837568
474,23.7,3.54,-2.19,-1.87,-1.56,-0.648,0.0398,7.5,5.41,-6.65,0,1,0,0,23700000000,1.778299592,-3.377165734,-1.96204884,-1.193170105,-1.139944466,0.164667257,5.847841254,4.300926429,-6.363503979
475,23.8,-2.49,-14.4,15,-1.06,-0.764,-0.814,1.2,-6.33,10.9,0,1,0,0,23800000000,0.309109447,-8.584178073,5.263130421,-1.089082992,-0.917042611,-0.586408335,4.05948705,-0.629548612,2.164121667
476,23.8,-7.1,-15.7,6.03,0.694,-0.0904,0.745,-3.76,-7.5,1.74,0,1,0,0,23800000000,-2.241177894,-11.94557968,5.589787403,0.304592276,-0.426916577,0.435377455,1.050775715,-3.815967929,1.954618961
477,23.9,6.56,-6.64,1.43,-0.0394,0.709,0.134,10.2,1.24,-3.16,0,1,0,0,23900000000,0.788272929,-9.439307716,3.817878223,0.035724518,0.246581592,0.204086131,4.571131219,-1.471080673,-0.571841343
478,23.9,-1.2,-21.1,4.08,0.699,2.75,-0.0708,2.5,-13,-0.156,0,1,0,0,23900000000,0.103890075,-14.94763445,3.929531968,0.554147181,1.730887535,-0.006874498,3.774220124,-6.818032303,-0.366428852
479,24,0.769,-3.49,-6.63,-1.26,1.23,-0.57,4.71,4.5,-10.7,0,1,0,0,24000000000,0.332827364,-9.535229208,-0.568421842,-0.863808152,1.433905491,-0.439043662,4.134281036,-1.568887127,-5.470886601
480,24,0.201,-12.8,-1.81,-1.93,2.62,-0.974,4.13,-4.3,-4.85,0,1,0,0,24000000000,0.287451108,-11.07745537,-1.097286275,-1.697154181,2.137154677,-0.849594463,4.132633862,-2.83553919,-5.164188179
481,24.1,-3.37,-10.9,-0.00239,-2.23,1.74,-0.731,0.455,-2,-1.7,0,1,0,0,24100000000,-0.971479018,-10.99362808,-0.630902648,-2.113631747,1.901677047,-0.758579463,2.717587249,-2.448027793,-3.452988631
482,24.1,0.187,-7.64,0.0503,-1.78,0.922,-1.12,3.68,1.5,-0.434,0,1,0,0,24100000000,-0.572719295,-9.409427169,-0.340736567,-1.852861859,1.320815106,-1.035950697,3.087895728,-0.616987689,-1.961703571
483,24.2,-1.33,-8.18,-1.06,-1.46,0.692,-0.895,1.65,1.15,-0.657,0,1,0,0,24200000000,-0.833382678,-8.828665369,-0.647115052,-1.545797183,0.947983286,-0.927778445,2.534635236,0.202516491,-1.317221208
484,24.2,-1.91,-10.1,1.61,-0.939,0.982,-1.07,0.624,-0.664,2.71,0,1,0,0,24200000000,-1.203964797,-9.429223915,0.314329,-1.071518525,0.968152188,-1.036926039,1.799478336,-0.199361734,0.67209892
485,24.3,-3.41,-7.77,-1.56,-0.98,0.181,-1.32,-1.53,1.72,0.0112,0,1,0,0,24300000000,-1.963303552,-8.645432779,-0.484062912,-0.999986757,0.501440481,-1.254170438,0.518391857,0.690811422,0.345635722
486,24.3,-1.2,-10.9,0.206,-0.651,0.376,-0.991,0.124,-1.43,2.27,0,1,0,0,24300000000,-1.700567078,-9.710454485,-0.190122699,-0.727215282,0.42706535,-1.052200983,0.366641333,-0.292791246,1.2962109
487,24.4,-3.75,-13.3,1.51,-0.243,0.765,-0.478,-2.89,-3.81,3.76,0,1,0,0,24400000000,-2.406001779,-11.40609909,0.534064061,-0.348747839,0.627430733,-0.611531954,-0.886419636,-1.924023475,2.513244912
488,24.4,-8.5,-14.4,1.09,1.01,0.907,0.565,-7.79,-4.88,3.3,0,1,0,0,24400000000,-4.503615106,-12.82037033,0.770871365,0.713262874,0.793190612,0.291394364,-3.542716689,-3.294964121,2.901877058
489,24.5,-4.33,-12.1,3.04,2.63,-0.644,1.84,-3.09,-2.44,4.5,0,1,0,0,24500000000,-4.443855075,-12.48007896,1.737432718,2.211403617,-0.058936444,1.479867667,-3.368524433,-2.898443739,3.691299327
490,24.5,8.36,-21.5,-10.5,2.26,-3.47,1.78,10.6,-11.9,-10.5,0,1,0,0,24500000000,-0.036644021,-16.74094696,-3.475242113,2.249387022,-2.081395788,1.710203406,2.006157913,-7.07323953,-3.31875442
491,24.6,0,-15.8,0.508,2.41,-0.0574,1.65,2.89,-6.47,-0.734,0,1,0,0,24600000000,-0.024030793,-16.29645859,-1.77853444,2.374923778,-0.881345102,1.664000444,2.346234699,-6.793465371,-2.041967369
492,24.6,-1.77,-10.9,-2.29,1.77,-0.508,1.78,1.86,-2.05,-4.63,0,1,0,0,24600000000,-0.625010332,-13.74725675,-1.996399046,1.902109368,-0.65998445,1.753023973,2.159145725,-4.593512415,-3.320373823
493,24.7,0.773,-5.95,-0.807,1.13,-1.61,1.36,4.99,2.33,-3.92,0,1,0,0,24700000000,-0.143801608,-10.06395593,-1.489760872,1.298621063,-1.223259748,1.451398781,3.248376081,-1.382484171,-3.616570258
494,24.7,1.69,-2.09,-1.67,0.634,-2.36,0.776,6,5.8,-5.6,0,1,0,0,24700000000,0.487410722,-6.29718526,-1.566535777,0.779146684,-1.897246226,0.9330658,4.307120988,1.948651678,-4.596321872
495,24.8,1.22,-2.44,-2.48,-0.361,-1.81,0.346,5.27,5.26,-6.99,0,1,0,0,24800000000,0.73957507,-4.475111993,-1.955636349,-0.112003217,-1.845516888,0.482523702,4.677608838,3.484408849,-5.778723169
496,24.8,1.35,-3.95,0.587,-1.71,-0.654,-0.142,5.17,3.92,-3.86,0,1,0,0,24800000000,0.949689263,-4.227057418,-0.872571226,-1.361013303,-1.139052633,0.003234644,4.867066675,3.686429971,-4.830934459
497,24.9,-2.75,-16.9,17.1,-0.348,-1.07,-0.633,0.772,-8.57,13.2,0,1,0,0,24900000000,-0.323779685,-10.21355482,6.783051798,-0.5692321,-1.098110553,-0.485041954,3.291404049,-1.997930785,4.075777705
498,24.9,-5.06,-14.6,5.19,1.1,-1.53,1.01,-1.78,-6.43,0.845,0,1,0,0,24900000000,-1.95403266,-12.28564231,6.104473136,0.735456201,-1.354182822,0.662324011,1.340075186,-4.053462455,2.479875551
499,25,9.85,-0.922,-0.594,-0.496,0.959,-0.196,13.2,6.89,-5.5,0,1,0,0,25000000000,2.109030065,-6.917637457,3.251181679,-0.227062112,0.017330221,0.003605535,5.903429465,1.0219624,-1.46193099
500,25,0.838,-26.3,6.94,0.084,2.19,-0.434,4.17,-18.1,2.67,0,1,0,0,25000000000,1.671529182,-16.07355852,4.822476179,0.016067104,1.305531482,-0.332233658,5.236456219,-7.846536647,0.579112483
501,25.1,2.25,-4.01,-5.49,-1.3,1.76,-0.175,5.87,4.2,-9.47,0,1,0,0,25100000000,1.870644451,-10.37492444,0.429758762,-1.012583895,1.574991156,-0.211565103,5.480225408,-2.259521428,-4.384831894
502,25.1,0.373,-8.44,-3.1,-2,2.35,-0.886,4.06,0.175,-5.98,0,1,0,0,25100000000,1.355140696,-9.460896546,-1.073782429,-1.784358067,2.034502873,-0.729158354,4.933763929,-1.130424421,-5.172794577
503,25.2,-3.67,-14.2,1,-1.9,1.48,-0.713,-0.137,-5.15,-0.585,0,1,0,0,25200000000,-0.374561525,-11.69957395,-0.190431017,-1.874744925,1.70573167,-0.716757668,2.982681356,-2.994647432,-2.906568915
504,25.2,0.333,-6.96,-0.871,-1.73,1.58,-0.796,3.62,2.27,-1.33,0,1,0,0,25200000000,-0.13101198,-9.460674218,-0.480327178,-1.761610878,1.631183923,-0.777571988,3.227903002,-0.552977552,-2.127793675
505,25.3,-1.63,-8.38,-2.25,-1.54,0.952,-0.762,1.28,0.969,-1.73,0,1,0,0,25300000000,-0.646978202,-8.950180868,-1.234139615,-1.588397599,1.228487875,-0.765621326,2.478406533,0.152894353,-1.93129617
506,25.3,-0.141,-9.83,1.47,-1.12,0.724,-1.21,2.31,-0.426,2.77,0,1,0,0,25300000000,-0.472815595,-9.365793471,-0.082280317,-1.222293417,0.929371122,-1.106658587,2.413608572,-0.115588755,0.390995675
507,25.4,-2.05,-8.8,-0.275,-1.23,0.469,-1.38,-0.324,0.671,1.57,0,1,0,0,25400000000,-1.015697757,-9.098521677,-0.164371479,-1.228316973,0.656411727,-1.316433724,1.360256363,0.249220116,0.973386608
508,25.4,-3.85,-11,-0.397,-0.6,0.784,-0.718,-2.71,-1.51,1.99,0,1,0,0,25400000000,-1.991292062,-9.996749954,-0.263462272,-0.737218245,0.732060288,-0.85716735,-0.205859996,-0.566681579,1.475561527
509,25.5,-3.07,-12.7,1.18,-0.0296,0.877,-0.29,-2.31,-3.23,3.75,0,1,0,0,25500000000,-2.362593779,-11.27372242,0.351397017,-0.184136841,0.817996717,-0.421896269,-1.015471889,-1.801891443,2.599062312
510,25.5,-8.53,-14.1,0.962,0.995,0.637,0.668,-7.86,-4.62,3.42,0,1,0,0,25500000000,-4.48547476,-12.60881141,0.611490367,0.737488154,0.710681669,0.414541711,-3.649047418,-3.108890746,3.004579645
511,25.6,-2.64,-13.7,3.36,2.64,-0.597,2.05,-1.37,-4.11,5.13,0,1,0,0,25600000000,-3.850244475,-13.12427155,1.782249526,2.22451027,-0.064658031,1.66966979,-2.772136215,-3.573191286,4.054470242
512,25.6,7.93,-20.2,-9.29,2.5,-3.08,1.65,10.3,-10.6,-9.04,0,1,0,0,25600000000,0.204629936,-16.46673409,-2.934102143,2.439835762,-1.852489373,1.654574244,2.257641925,-6.832127122,-2.413784553
513,25.7,0.369,-16.3,1.17,2.58,0.335,1.47,3.29,-6.98,0.0928,0,1,0,0,25700000000,0.261207703,-16.38797118,-1.185912779,2.549389454,-0.555501431,1.512923253,2.654863291,-6.900708505,-1.175610935
514,25.7,-2.07,-10.9,-1.86,1.99,-0.111,1.57,1.54,-2.07,-4.07,0,1,0,0,25700000000,-0.541216589,-13.79554024,-1.473047969,2.112165144,-0.291951354,1.556726691,2.225896286,-4.660293394,-2.605347822
515,25.8,0.464,-5.82,-0.697,1.48,-1.78,1.12,4.6,2.52,-3.77,0,1,0,0,25800000000,-0.195211288,-10.02802129,-1.142481447,1.618058644,-1.174232718,1.221561957,3.139382354,-1.330173694,-3.180649212
516,25.8,1.04,-2.54,-2.06,0.957,-2.39,0.682,5.17,5.38,-6.12,0,1,0,0,25800000000,0.229960411,-6.490798479,-1.533308974,1.101368697,-1.895075367,0.807476554,3.920705032,1.781911122,-4.632595629
517,25.9,1.12,-2.28,-2.35,-0.166,-1.86,0.189,4.92,5.42,-7.09,0,1,0,0,25900000000,0.536320677,-4.501683881,-1.881187843,0.110780821,-1.874278782,0.332828364,4.30520472,3.469205925,-5.846475866
518,25.9,2.79,-2.85,-0.175,-1.8,-0.444,-0.204,6.29,5.01,-4.87,0,1,0,0,25900000000,1.312058958,-3.721454501,-1.15441756,-1.382704288,-1.02624983,-0.079159134,5.06889624,4.183804786,-5.364127566
519,26,-0.728,-17.1,16.1,-0.879,-0.716,-0.763,2.51,-8.73,12.3,0,1,0,0,26000000000,0.609850872,-10.04126792,6.195299673,-0.989004052,-0.842299103,-0.603970997,4.084307339,-1.80543715,3.361393764
520,26,-4.13,-13.6,5.44,1.13,-0.951,1.01,-1.13,-5.25,1.27,0,1,0,0,26000000000,-1.021651836,-11.72235683,5.873571138,0.667230423,-0.906749117,0.634666746,2.077993434,-3.402977251,2.328311275
521,26.1,7.13,-4.69,4.13,-0.19,0.527,-0.214,10.3,3.31,-0.616,0,1,0,0,26100000000,1.784225873,-8.400382748,5.130877062,-0.002789334,-0.056662554,-0.016640293,5.241582656,-0.289592264,0.87391448
522,26.1,-0.773,-13.7,-1.53,0.325,1.74,-0.0323,2.37,-5.61,-6.08,0,1,0,0,26100000000,0.90400391,-10.903838,2.293600088,0.253414035,1.008599614,-0.028658293,4.13668107,-2.757123064,-2.561099651
523,26.2,1.6,-6.22,-6.45,-1.82,1.82,-0.475,4.95,2,-10.6,0,1,0,0,26200000000,1.143572527,-8.691266933,-1.430836578,-1.367186878,1.489688388,-0.371202045,4.449622482,-0.550835883,-6.532062767
524,26.2,-2.15,-12.7,-1.81,-1.83,2,-0.866,1.2,-4.01,-4.91,0,1,0,0,26200000000,0.009892868,-10.58492892,-1.592345562,-1.728926215,1.792258089,-0.750933417,3.199262221,-2.155147954,-5.730814905
525,26.3,-1.09,-10.2,0.249,-2.05,1.55,-0.658,2.18,-1.16,-1.68,0,1,0,0,26300000000,-0.368700943,-10.4030945,-0.808003301,-1.979880617,1.648620417,-0.679611907,2.80707977,-1.693612228,-3.729840229
526,26.3,-0.96,-9.28,-0.402,-2.01,1.45,-0.853,2.02,0.0347,-1.16,0,1,0,0,26300000000,-0.572231809,-9.8725623,-0.635061542,-2.003422216,1.530856086,-0.812678127,2.504234344,-0.892045176,-2.460420287
527,26.4,-0.848,-8.09,-0.524,-1.66,1.02,-0.733,1.76,1.36,-0.21,0,1,0,0,26400000000,-0.667153893,-9.030508143,-0.5877536,-1.734999997,1.227963549,-0.751529345,2.217874596,0.152421904,-1.348783724
528,26.4,-0.924,-9.64,1.67,-0.909,1.06,-1.1,1.24,-0.136,2.76,0,1,0,0,26400000000,-0.755562824,-9.318422616,0.373962425,-1.089390232,1.12837597,-1.018962241,1.841616878,0.018655853,0.680825688
529,26.5,-3.75,-8.7,-2.34,-0.896,0.376,-1.3,-2.25,0.876,-0.833,0,1,0,0,26500000000,-1.78627716,-9.026289466,-0.782080963,-0.93823454,0.682283483,-1.234643885,0.267281628,0.416280078,-0.066956402
530,26.5,-0.599,-10.9,2.09,-0.779,0.679,-0.71,0.404,-1.32,4.15,0,1,0,0,26500000000,-1.377604832,-9.911400499,0.44131483,-0.81377524,0.68033668,-0.832007314,0.319886889,-0.388982376,2.016086948
531,26.6,-5.48,-12.8,0.28,-0.0559,0.611,-0.649,-4.91,-3.23,2.51,0,1,0,0,26600000000,-2.789689067,-11.27592929,0.372600928,-0.221412473,0.639226155,-0.691558829,-1.692421517,-1.706606647,2.260064395
532,26.6,-7.23,-14.6,0.663,0.688,0.13,0.626,-6.81,-5.01,2.82,0,1,0,0,26600000000,-4.318087188,-12.84616789,0.496299738,0.489393309,0.337300032,0.319598181,-3.66151695,-3.238674415,2.53665487
533,26.7,-2.6,-13.6,3.21,2.44,-0.37,2,-1.57,-3.92,4.73,0,1,0,0,26700000000,-3.726704872,-13.20226643,1.652231508,2.014006793,-0.082066401,1.609218089,-2.856762039,-3.554663733,3.620098114
534,26.7,6.78,-16.9,-7.54,2.62,-2.44,1.89,8.85,-7.29,-7.47,0,1,0,0,26700000000,-0.11019502,-14.94901709,-2.263304923,2.487656975,-1.48011274,1.824703409,1.647659877,-5.287060462,-1.858060058
535,26.8,-1.74,-16.7,1.96,2.16,0.661,1.65,1,-7.38,0.801,0,1,0,0,26800000000,-0.671189714,-15.77615407,-0.464339733,2.231557117,-0.210622041,1.690627724,1.398459181,-6.257736617,-0.544568355
536,26.8,-0.704,-11.1,-1.68,1.79,-0.664,1.75,2.86,-2.27,-3.86,0,1,0,0,26800000000,-0.682483331,-13.56721305,-0.982164145,1.886431687,-0.4794351,1.736192819,1.960817567,-4.408280107,-2.182286844
537,26.9,0.163,-6.12,-0.579,1.33,-1.73,1.11,4.23,2.28,-3.61,0,1,0,0,26900000000,-0.391459763,-10.04926737,-0.810431752,1.451519223,-1.220909612,1.255622816,2.83393302,-1.306349297,-2.887532008
538,26.9,1.21,-3.53,-1.59,0.881,-2.31,0.703,5.29,4.47,-5.53,0,1,0,0,26900000000,0.159778242,-6.96966859,-1.142497803,1.005595754,-1.866643959,0.831513912,3.778956192,1.372640667,-4.192827858
539,27,1.57,-3.05,-2.06,-0.0742,-1.87,0.439,5.4,4.73,-6.65,0,1,0,0,27000000000,0.645190275,-5.118079137,-1.533318363,0.161616739,-1.868633798,0.530280162,4.402686769,2.929737004,-5.406593353
540,27,3.55,-2.61,-1.65,-1.51,-0.456,-0.153,7.18,5.26,-6.23,0,1,0,0,27000000000,1.645053956,-3.933302182,-1.583020235,-1.144935394,-1.03106676,0.005898621,5.47131611,4.010480515,-5.813330245
541,27.1,-2.05,-13.2,15.6,-1.28,-0.767,-1.09,1.27,-4.8,11.7,0,1,0,0,27100000000,0.373180542,-8.310743537,5.736284488,-1.250503201,-0.874498513,-0.835145887,3.854771777,-0.075697282,2.837701782
542,27.1,-6.23,-18.8,5.81,1.11,-0.624,0.863,-3.32,-10.4,1.68,0,1,0,0,27100000000,-1.899698288,-13.26570198,5.767684432,0.594489407,-0.725975033,0.46809164,1.094128162,-4.86396439,2.265833632
543,27.2,8.79,-0.84,-1.09,0.188,0.57,0.376,11.8,7.22,-5.78,0,1,0,0,27200000000,1.779799588,-7.395996936,2.846575075,0.27677327,0.04242366,0.397416146,5.213436546,0.740409284,-1.708554222
544,27.2,-1.87,-20.6,9.14,-0.575,1.78,-0.855,1.21,-12.2,5,0,1,0,0,27200000000,0.523503149,-13.63335927,5.527331755,-0.388981114,1.072652901,-0.56374731,3.67303054,-5.261171569,1.605259727
545,27.3,2,-5.5,-3.71,-0.916,1.24,0.507,5.35,2.89,-7.52,0,1,0,0,27300000000,1.031727694,-9.791289025,1.592584324,-0.800904283,1.171874951,0.257994888,4.31827961,-1.480772086,-2.902330419
546,27.3,1.12,-5.85,-4.65,-1.85,2.11,-0.967,4.54,2.83,-7.68,0,1,0,0,27300000000,1.06211188,-7.929486398,-1.066516113,-1.620887867,1.728100161,-0.682124187,4.403591157,0.518503715,-5.262348243
547,27.4,-4.9,-17.5,-0.553,-2.19,1.7,-0.711,-1.65,-8.39,-2.3,0,1,0,0,27400000000,-0.990104922,-12.45044561,-0.847778023,-2.065711571,1.711439277,-0.704284872,2.07434524,-3.613135942,-3.79904173
548,27.4,1.35,-7.93,0.548,-1.82,1.39,-0.858,4.37,1.38,-0.0459,0,1,0,0,27400000000,-0.18461809,-10.31505854,-0.253230374,-1.873661023,1.520854176,-0.822253123,2.957646423,-1.297389289,-1.945108228
549,27.5,-1.77,-7.62,-1.09,-1.53,1.01,-0.807,0.824,1.83,-0.715,0,1,0,0,27500000000,-0.730321922,-9.041955469,-0.609662008,-1.605052154,1.217962777,-0.81054714,2.136681295,0.153050168,-1.337473593
550,27.5,-1.39,-9.26,1.26,-0.997,0.781,-0.765,0.812,0.235,2.37,0,1,0,0,27500000000,-0.957389513,-9.144956364,0.186741965,-1.129792573,0.958882466,-0.775592098,1.626982427,0.191057354,0.493901234
551,27.6,-1.44,-9.59,-1.94,-1.04,0.161,-1.27,0.237,-0.0528,-0.374,0,1,0,0,27600000000,-1.123508746,-9.355188009,-0.719168193,-1.059609782,0.485808654,-1.155024113,1.092157591,0.077959722,0.065185424
552,27.6,-1.64,-11,0.879,-0.668,0.728,-0.858,-0.522,-1.53,3,0,1,0,0,27600000000,-1.301290043,-10.13217117,-0.038410117,-0.753523698,0.629406716,-0.927073732,0.471076661,-0.667789507,1.514891152
553,27.7,-3.86,-12.6,0.572,-0.106,0.639,-0.519,-3.17,-3.1,2.84,0,1,0,0,27700000000,-2.182022805,-11.29793465,0.221601085,-0.247412784,0.635094685,-0.613898627,-0.929903838,-1.795814692,2.169453037
554,27.7,-6.29,-14.4,1.43,0.66,0.798,0.268,-5.77,-4.87,3.7,0,1,0,0,27700000000,-3.596028409,-12.76330106,0.736332441,0.461830023,0.731683131,0.062912134,-2.792232153,-3.221578813,2.92549493
555,27.8,-5.04,-11.8,2.93,2.01,0.257,1.63,-4.2,-2.16,4.66,0,1,0,0,27800000000,-4.09305743,-12.30825297,1.670750328,1.671894948,0.450237972,1.265569546,-3.33390023,-2.729233438,3.782285589
556,27.8,4.94,-16.2,-3.51,2.93,-1.72,2.09,6.71,-6.58,-3.07,0,1,0,0,27800000000,-0.983791381,-14.14665306,-0.536049694,2.655242325,-0.836521426,1.89827644,0.530700662,-4.515165107,0.397472916
557,27.9,-0.816,-18,1.26,2.2,-0.353,1.12,1.66,-8.53,0.355,0,1,0,0,27900000000,-0.926035954,-15.96691319,0.22899827,2.299420468,-0.54983593,1.300990259,0.96522221,-6.377189286,0.376492631
558,27.9,-0.618,-12.9,-1.05,1.89,-0.815,1.59,2.48,-3.79,-3.04,0,1,0,0,27900000000,-0.82000698,-14.51815174,-0.315805693,1.979413379,-0.707054795,1.522790042,1.548064683,-5.177287042,-1.311146827
559,28,0.723,-7.36,-0.625,1.3,-1.18,1.35,4.41,1.28,-3.44,0,1,0,0,28000000000,-0.288889006,-11.13675417,-0.447510555,1.44837714,-0.987469487,1.390182802,2.649254151,-2.182487587,-2.3627331
560,28,1.58,-2.83,-1.19,1.16,-1.99,0.699,5.46,5.41,-4.85,0,1,0,0,28000000000,0.354400741,-7.212774881,-0.763782475,1.222978695,-1.581881515,0.859736399,3.730747472,1.338801956,-3.591364361
561,28.1,0.685,-2.31,-1.91,0.397,-1.87,0.282,4.35,5.65,-6.31,0,1,0,0,28100000000,0.468196215,-4.896781565,-1.252026963,0.577385607,-1.752710325,0.41635414,3.969017809,3.33827539,-4.934284492
562,28.1,2.37,-2.71,-1.87,-0.904,-0.79,-0.0879,5.76,5.25,-6.49,0,1,0,0,28100000000,1.122815495,-3.863780568,-1.515259668,-0.580479991,-1.181908169,0.029365643,4.658135788,4.224906542,-5.702758715
563,28.2,-0.639,-11.7,8.56,-1.37,-0.444,-0.915,2.5,-3.35,4.44,0,1,0,0,28200000000,0.516381504,-7.565486564,2.776412931,-1.197576625,-0.744393821,-0.695385275,3.827747864,0.711770816,-0.69255616
564,28.2,-10.1,-21.7,7.3,1.2,-0.495,0.478,-7.36,-13.2,3.24,0,1,0,0,28200000000,-3.137880168,-14.24240745,4.70328681,0.676392963,-0.596525321,0.205126123,-0.476972387,-5.740313938,1.250002409
565,28.3,3.44,-3.05,0.591,0.616,-0.0379,0.849,6.44,5.09,-3.98,0,1,0,0,28300000000,-0.873709959,-8.955291221,2.951611084,0.629189225,-0.26530986,0.6992654,2.184477564,-0.717365652,-1.333453642
566,28.3,-2.79,-21.6,9.51,-0.556,1.9,-0.947,0.3,-13.3,5.2,0,1,0,0,28300000000,-1.533315575,-14.92845178,5.745232166,-0.297166365,1.018527571,-0.564156624,1.459385375,-6.553015668,1.893866055
567,28.4,3.87,-4.96,-4.29,-0.727,0.761,0.287,7.26,3.28,-8.39,0,1,0,0,28400000000,0.326558043,-10.21951288,1.470609936,-0.633128575,0.86583646,0.089061264,3.691293373,-1.992600462,-3.186039211
568,28.4,0.685,-7.46,-2.56,-1.67,2.02,-1.11,4.09,1.11,-5.9,0,1,0,0,28400000000,0.449937244,-8.915962673,-0.246274574,-1.44355748,1.55015346,-0.831155126,3.844704153,-0.55365773,-4.526650189
569,28.5,-3.99,-15.5,-0.819,-1.91,1.58,-0.74,-0.73,-6.57,-3.04,0,1,0,0,28500000000,-1.078332246,-12.02615774,-0.490233541,-1.808133531,1.567849847,-0.761198374,2.084490954,-3.343953257,-3.792291921
570,28.5,0.453,-7.78,1.17,-1.87,1.03,-1.06,3.43,1.49,0.0156,0,1,0,0,28500000000,-0.551232823,-10.0203401,0.216961961,-1.856488977,1.248952389,-0.990512843,2.602203753,-1.102033302,-1.911313554
571,28.6,-1.4,-7.29,-0.871,-1.57,0.624,-1.07,1.04,2.21,-1.1,0,1,0,0,28600000000,-0.843386714,-8.730570615,-0.246467912,-1.632566406,0.878410843,-1.051515091,2.00111314,0.434041465,-1.510550289
572,28.6,-1.19,-9.23,0.35,-1.43,0.673,-0.914,0.772,0.359,0.94,0,1,0,0,28600000000,-0.96269439,-8.966492939,0.007604434,-1.474238463,0.756620348,-0.945979481,1.528186134,0.399238281,-0.300055829
573,28.7,-0.702,-9.83,0.857,-0.933,0.481,-1.27,0.746,-0.2,2.04,0,1,0,0,28700000000,-0.872960859,-9.374399977,0.369414215,-1.051201161,0.593201836,-1.194648152,1.227223641,0.121319941,0.85585784
574,28.7,-3.81,-9.86,1.24,-0.929,0.53,-0.629,0.22,-0.215,2.57,0,1,0,0,28700000000,-1.883918214,-9.603789583,0.74025022,-0.955687543,0.555728714,-0.760542988,0.839673259,-0.034660548,1.702589906
575,28.8,-2.77,-12.7,-0.213,-0.102,0.0953,-0.779,-2.18,-3.14,1.72,0,1,0,0,28800000000,-2.188916157,-11.06639031,0.334202355,-0.288436933,0.282735163,-0.774707761,-0.322209268,-1.474873627,1.711189957
576,28.8,-3.74,-13.3,2.15,0.446,0.547,0.0257,-3.43,-3.7,4.13,0,1,0,0,28800000000,-2.722814272,-12.12151228,1.10766223,0.285606229,0.439420858,-0.160436954,-1.517996838,-2.506856158,2.906005796
577,28.9,-5.18,-11.6,2.18,1.85,0.183,1.49,-4.63,-1.88,3.64,0,1,0,0,28900000000,-3.568601386,-11.87515831,1.564436831,1.508351858,0.287385943,1.106186505,-2.715405246,-2.216129032,3.268575807
578,28.9,4.18,-17,-4.25,2.9,-1.95,1.86,5.57,-7.31,-4.05,0,1,0,0,28900000000,-0.901457652,-14.29605245,-0.912289229,2.596077854,-1.03918628,1.684698678,0.472577938,-4.578595157,-0.346569637
579,29,2.05,-17.6,1.65,2.23,0.0324,1.26,4.16,-8.07,0.586,0,1,0,0,29000000000,0.114462698,-15.85678518,0.179147248,2.309947806,-0.403830288,1.3587648,1.891390712,-6.197859778,0.114090329
580,29,-0.888,-12.6,-0.639,1.95,-0.69,1.66,1.91,-3.46,-2.77,0,1,0,0,29000000000,-0.230594695,-14.31833157,-0.169351956,2.028609086,-0.573503643,1.589946928,1.898551012,-4.928078701,-1.310559213
581,29.1,-1.03,-7.19,-0.735,1.28,-1.1,1.39,2.38,1.5,-3.73,0,1,0,0,29100000000,-0.505757749,-10.95102054,-0.410296235,1.443488814,-0.885669482,1.436498179,2.083798633,-1.946825653,-2.505686572
582,29.1,1.63,-3.55,-1.56,1.07,-2,0.783,5.26,4.75,-5.32,0,1,0,0,29100000000,0.229390793,-7.454895501,-0.900025716,1.151566312,-1.54636903,0.934972733,3.305908689,1.159068475,-3.895868623
583,29.2,1.31,-2.11,-2.01,0.411,-1.9,0.47,4.78,5.9,-6.48,0,1,0,0,29200000000,0.601346949,-4.930051376,-1.37283199,0.572732385,-1.756040938,0.578130645,3.873096261,3.357846291,-5.172347933
584,29.2,2.31,-3.22,-2.97,-1.05,-1.01,0.324,5.58,4.74,-7.66,0,1,0,0,29200000000,1.189481891,-4.122250174,-2.053164036,-0.695611224,-1.313704568,0.383098758,4.529863178,3.998869755,-6.401169426
585,29.3,0.608,-9.84,7.58,-2.21,-0.0733,-0.61,3.76,-1.5,3.49,0,1,0,0,29300000000,0.989330175,-6.823224805,2.050192646,-1.879272466,-0.578254245,-0.379052254,4.2336422,1.448570827,-1.515244059
586,29.3,-14.7,-23.5,11.3,1.14,-0.742,0.0709,-12,-14.9,7.55,0,1,0,0,29300000000,-4.411089464,-14.70106957,5.990254266,0.480620679,-0.675341001,-0.033737593,-2.012591478,-6.133667622,2.962700346
587,29.4,2.49,-7.35,0.199,0.789,-0.869,0.809,5.42,0.956,-4.11,0,1,0,0,29400000000,-2.035667495,-11.22854056,3.523403086,0.72165298,-0.790163689,0.613019144,0.847253719,-2.845578893,-0.530990355
588,29.4,-2.26,-17.2,6.84,0.336,2.1,-0.0109,0.746,-8.96,2.5,0,1,0,0,29400000000,-2.112884917,-14.04936389,4.936145648,0.420222801,0.923447981,0.134194056,0.808294228,-5.681361952,0.96622317
589,29.5,2.18,-5.26,-5,-1.13,0.109,-0.437,5.46,2.91,-9.32,0,1,0,0,29500000000,-0.635232245,-9.897407548,0.70373044,-0.791446635,0.440552282,-0.304167308,2.598135419,-1.696808331,-4.114846116
590,29.5,-1.15,-11.5,-1.29,-1.69,1.65,-1.18,1.9,-2.89,-4.72,0,1,0,0,29500000000,-0.812420294,-10.65444687,-0.145521893,-1.493764857,1.157647912,-0.976322738,2.329513192,-2.250193997,-4.413772922
591,29.6,-4.51,-12.3,-0.491,-1.79,0.693,-0.699,-1.69,-3.26,-2.98,0,1,0,0,29600000000,-2.085163191,-11.43178022,-0.292682254,-1.725305139,0.882152762,-0.763492141,0.782921323,-2.718527901,-3.705534382
592,29.6,1.26,-6.7,0.886,-1.98,-0.613,-0.778,3.76,2.66,-0.654,0,1,0,0,29600000000,-0.93372556,-9.196562016,0.209390962,-1.924377171,-0.004340717,-0.774626157,1.928414664,-0.224041803,-2.198172748
593,29.7,2.45,-4.7,-0.692,-1.92,0.685,-0.679,4.61,4.84,-1.3,0,1,0,0,29700000000,0.230985631,-7.072457168,-0.174566845,-1.920955897,0.404377427,-0.701238132,2.960210811,2.12459007,-1.754503749
594,29.7,-0.141,-10.4,-0.297,-1.3,1.25,-0.795,1.66,-0.737,0.0332,0,1,0,0,29700000000,0.102944566,-8.644335578,-0.226718648,-1.435610603,0.905756904,-0.773195441,2.459927469,0.797424601,-0.871434548
595,29.8,-1.62,-9.71,-0.888,-1.27,0.846,-1.21,-0.358,-0.0318,0.0997,0,1,0,0,29800000000,-0.490109676,-9.147738609,-0.50839903,-1.306167706,0.870326349,-1.108419968,1.37567088,0.412841821,-0.391724748
596,29.8,-3.73,-11.9,0.702,-0.73,0.677,-0.74,-3.02,-2.29,2.27,0,1,0,0,29800000000,-1.605311373,-10.44786317,0.00718433,-0.855829356,0.755700896,-0.82567705,-0.315655505,-0.840698417,0.923083218
597,29.9,-3.64,-12.7,0.728,-0.309,0.123,-0.527,-3.29,-3.03,2.51,0,1,0,0,29900000000,-2.305670981,-11.51173689,0.314224026,-0.428422123,0.380565165,-0.59645815,-1.460096801,-1.856065875,1.706969994
598,29.9,-5.63,-14.7,0.73,0.752,0.49,0.644,-5.39,-5.1,2.57,0,1,0,0,29900000000,-3.449937329,-13.01782185,0.491328579,0.494207437,0.445450359,0.355528154,-2.972209276,-3.360557134,2.133279532
599,30,-1.36,-13.6,6.62,2.42,0.0257,1.94,-0.541,-3.91,7.79,0,1,0,0,30000000000,-2.730560624,-13.29283378,3.101906419,1.999425969,0.19657548,1.571526903,-2.036750614,-3.615381095,4.927520801
600,30,3.69,-15.8,-7.33,2.45,-1.73,1.61,5.45,-6.12,-7.53,0,1,0,0,30000000000,-0.520541329,-14.47717953,-1.341683743,2.351599116,-0.945713581,1.60105299,0.843933342,-4.77698828,-1.226101206
601,30.1,0.824,-16.4,1.71,2.33,0.629,1.34,3.22,-6.98,0.335,0,1,0,0,30100000000,-0.057737155,-15.38548932,-0.041784033,2.334716974,-0.012047546,1.400708593,1.758174741,-5.79871433,-0.454966501
602,30.1,-1.33,-11.5,-0.974,1.8,-0.34,1.61,1.73,-2.53,-3.38,0,1,0,0,30100000000,-0.495662388,-13.55004563,-0.438872107,1.916776873,-0.206494379,1.561328738,1.747333927,-4.282730301,-1.899840742
603,30.2,0.476,-6.7,-0.326,1.48,-1.25,1.31,4.13,1.82,-3.54,0,1,0,0,30200000000,-0.161206761,-10.31419236,-0.390792941,1.575387773,-0.82520102,1.368447122,2.664114622,-1.452369269,-2.710027605
604,30.2,0.955,-2.99,-2.02,1.06,-1.9,0.737,4.3,1.36,-4.41,0,1,0,0,30200000000,0.223002433,-6.854359766,-1.084772367,1.172555559,-1.462461845,0.883844699,3.293555841,-0.148031707,-3.549760213
605,30.3,1.77,-2.82,-1.57,0.0376,-1.72,0.362,5.39,4.99,-6.27,0,1,0,0,30300000000,0.755494002,-4.948592007,-1.291460665,0.285463093,-1.615159235,0.483356363,4.100206568,2.234915472,-4.893472761
606,30.3,4.03,-2.18,-0.962,-1.47,-0.375,-0.284,7.42,5.7,-5.72,0,1,0,0,30300000000,1.882610816,-3.640752975,-1.151123121,-1.086624207,-0.879854374,-0.105549244,5.377566618,3.841973152,-5.301751014
607,30.4,-3.01,-13.4,15.8,-0.992,-0.709,-1.08,0.0261,-4.99,11.8,0,1,0,0,30400000000,0.198526696,-8.250866692,6.069402285,-1.01266498,-0.77855282,-0.853388919,3.318477807,-0.254172435,3.145974058
608,30.4,-5.67,-17.2,6.39,1.1,-0.175,0.659,-3.02,-8.76,2.06,0,1,0,0,30400000000,-1.82147717,-12.47829605,6.205964502,0.638614836,-0.420699319,0.30728992,0.879615786,-4.199056469,2.609537137
609,30.5,9.04,-2.48,-1.01,-0.0999,0.766,0.041,11.8,5.61,-5.78,0,1,0,0,30500000000,1.917148664,-7.755259182,3.132241659,0.061384352,0.282908518,0.10292643,5.081462298,0.35024687,-1.534629395
610,30.5,-0.919,-23.2,7.56,-0.191,1.52,-0.611,1.88,-14.9,3.23,0,1,0,0,30500000000,0.94091876,-15.05111076,5.018296087,-0.135881748,1.016394461,-0.444974511,3.849632656,-6.72260428,0.818947082
611,30.6,4.31,-4.84,-2.64,-1.01,1.5,-0.14,7.4,3.55,-6.66,0,1,0,0,30600000000,2.100589199,-10.22754365,1.756156982,-0.819101193,1.30312982,-0.210922634,5.215710853,-1.95831403,-2.875416538
612,30.6,-0.74,-8.42,-2.93,-1.68,2.29,-0.889,2.38,0.313,-6.13,0,1,0,0,30600000000,1.122830827,-9.373688665,-0.239965364,-1.491988156,1.888256626,-0.731311304,4.124611782,-0.904910335,-4.483078054
613,30.7,-5.71,-13.6,-0.235,-2.06,1.19,-0.805,-2.75,-4.49,-2.29,0,1,0,0,30700000000,-1.229095867,-11.37013146,-0.23785031,-1.935951774,1.47425217,-0.787863503,1.479460983,-2.567624702,-3.399766728
614,30.7,1.6,-7.29,1.27,-2.07,0.938,-0.897,4.32,2.09,0.358,0,1,0,0,30700000000,-0.255293606,-9.442741889,0.404435817,-2.040725138,1.156302024,-0.871620029,2.572417901,-0.40748351,-1.543548618
615,30.8,-1.36,-8.02,-1.13,-1.57,0.468,-1.03,0.872,1.53,-1.11,0,1,0,0,30800000000,-0.635544272,-8.770661345,-0.249174718,-1.672801766,0.748199731,-0.993168295,1.918146508,0.491094246,-1.329389298
616,30.8,0.658,-9.99,0.812,-1.26,0.5,-0.912,2.41,-0.373,1.61,0,1,0,0,30800000000,-0.190293783,-9.346657527,0.202844815,-1.350151824,0.601039219,-0.930875903,2.107397469,0.090339415,0.122576205
617,30.9,-2.27,-9.49,-0.634,-1.13,0.713,-1.14,-1.1,0.154,0.684,0,1,0,0,30900000000,-0.906148839,-9.414370135,-0.153618834,-1.178078982,0.66742207,-1.091367624,0.873284139,0.119864304,0.399901839
618,30.9,-2.21,-11.1,1,-0.595,0.991,-0.52,-1.5,-1.47,2.85,0,1,0,0,30900000000,-1.354947075,-10.2106352,0.337778341,-0.722338718,0.859275193,-0.652873046,-0.039886617,-0.61749255,1.610172916
619,31,-3.53,-12.6,0.704,0.0247,0.635,-0.543,-3.18,-3.01,2.65,0,1,0,0,31000000000,-2.10362139,-11.33933351,0.493774655,-0.138445883,0.726299812,-0.568551256,-1.248111003,-1.727104058,2.123814708
620,31,-7.27,-14.1,0.96,0.813,0.632,0.227,-7.1,-4.51,2.83,0,1,0,0,31000000000,-3.881939038,-12.64342886,0.692368679,0.605213627,0.670388372,0.041992439,-3.499747764,-3.017772402,2.472647905
