,Time (s),Acceleration x (m/s^2),Acceleration y (m/s^2),Acceleration z (m/s^2),Gyroscope x (rad/s),Gyroscope y (rad/s),Gyroscope z (rad/s),Linear Acceleration x (m/s^2),Linear Acceleration y (m/s^2),Linear Acceleration z (m/s^2),Still,Walk,Run,Cycle,SPM/RPM,Timestamps,Acceleration x (m/s^2)_kalman,Acceleration y (m/s^2)_kalman,Acceleration z (m/s^2)_kalman,Gyroscope x (rad/s)_kalman,Gyroscope y (rad/s)_kalman,Gyroscope z (rad/s)_kalman,Linear Acceleration x (m/s^2)_kalman,Linear Acceleration y (m/s^2)_kalman,Linear Acceleration z (m/s^2)_kalman
0,0.0484,2.49,3.63,8.8,-0.284,0.616,-0.006640000000000001,-1.86,-1.89,1.96,,,,,135,48400000.0,1.2072720795040597,2.0648702175261957,5.9908303790758515,-0.2728404431361119,0.568231780835971,0.09616161061234145,-1.5064746271625684,-1.3746481067745027,1.161780578387157
1,0.0984,1.19,3.03,9.38,-0.029,0.64,0.0422,-2.85,-2.4,2.29,,,,,135,98400000.0,1.2039277566424598,2.535800031391344,6.672829873771357,-0.1327546812757889,0.5827536906181,0.06349599246575434,-1.8042131575270073,-1.9270460996633512,1.4289821854681222
2,0.14800000000000002,-2.86,2.37,6.98,-0.6459999999999999,0.526,0.512,-6.81,-2.98,-0.228,,,,,135,148000000.0,-0.014951806779444965,2.4380565723382026,6.766645421321451,-0.46221355629093996,0.5664891860154827,0.3656269320562038,-3.4754494271502026,-2.5902683423423047,0.8521013675743216
3,0.198,8.61,2.06,7.49,-1.14,0.6729999999999999,1.95,4.61,-2.65,-0.132,,,,,135,198000000.0,2.9901184924840654,2.208970883476583,7.021477590444069,-0.9030144617712208,0.6013207309516372,1.444199621132804,-0.40131453626998637,-2.6286128580940664,0.4660868574875587
4,0.248,1.63,0.0718,8.4,-1.71,0.9790000000000001,1.12,-2.44,-3.86,0.38799999999999996,,,,,135,248000000.0,2.489088720416259,0.9085221922371598,7.533429619767429,-1.428670781075673,0.7315652314984439,1.2232639819558988,-1.211716245404719,-3.4209942917972436,0.434218516765192
5,0.298,0.32799999999999996,1.01,9.2,-0.413,1.39,0.7040000000000001,-3.21,-2.19,0.63,,,,,135,298000000.0,1.676012248415999,0.9703098799432356,8.164776207634342,-0.76695359869381,0.9636107044521369,0.8693577181676708,-2.0184813960500883,-2.628624546013613,0.5151976039206854
6,0.348,-1.22,1.19,11.2,1.94,1.24,1.3,-4.27,-2.29,2.53,,,,,135,348000000.0,0.5776159020808849,1.1040876303289464,9.323297261118869,0.9966882155366147,1.0618883437290587,1.1628667086242626,-2.9324432364575355,-2.4106493258013133,1.3523615811289478
7,0.39799999999999996,0.563,-1.62,10.6,0.278,1.3,1.27,-2.53,-5.39,2.06,,,,,135,398000000.0,0.5720552966367346,-0.5547382368973646,9.811999413059478,0.5284451864112302,1.1468668617661926,1.2358846593032307,-2.768766544782064,-4.328489331202261,1.6468457764846935
8,0.44799999999999995,-1.77,-0.124,13.5,-1.11,3.77,-0.645,-3.73,-3.45,4.53,,,,,135,448000000.0,-0.3200304239381646,-0.29244074230197326,11.225242481376014,-0.5390424776266255,2.084442646657904,-0.04605468933468626,-3.1599699102936034,-3.762995973556956,2.847305134801726
9,0.498,-3.1,1.07,10.8,3.1,0.258,0.478,-3.85,-2.43,1.72,,,,,135,498000000.0,-1.3793954146028806,0.5372161102747908,11.06222223364292,1.8318839423415798,1.4312170733223788,0.31112102544660336,-3.4408649835394476,-2.9049315614331275,2.377844726058549
10,0.5479999999999999,2.5,-1.22,7.11,0.631,1.51,0.24600000000000002,1.96,-5.71,-1.59,,,,,135,548000000.0,0.09918429367192694,-0.5328388193955826,9.546866617072995,1.0494782368325042,1.459400966380033,0.2667370183181468,-1.242116828090738,-4.710585611307123,0.7253552266852137
11,0.598,-2.54,-6.31,3.31,-2.25,2.49,-1.33,-2.2,-10.5,-5.54,,,,,135,598000000.0,-0.9067721234024362,-4.050835071068745,7.155393106192481,-1.1002137278451494,1.8281278142024229,-0.8215381742956105,-1.6320923856584595,-8.437296612279772,-1.8840334213157375
12,0.648,-1.07,-4.87,5.73,-2.77,1.57,-2.53,0.602,-7.8,-3.48,,,,,135,648000000.0,-0.9689899645196972,-4.549664632669135,6.608825855949373,-2.1881209160714743,1.7357710403881137,-1.985960693487129,-0.7225343824246491,-8.02706175500745,-2.548724647836986
13,0.698,-5.0,-3.65,6.41,-1.8,1.46,-3.59,-2.32,-5.14,-2.9,,,,,135,698000000.0,-2.505511189323106,-4.001814848502799,6.532585328352464,-1.9352504749624728,1.6370998252373898,-3.0792127599997143,-1.3729071330356941,-6.168627623324564,-2.6950248721611585
14,0.748,-15.0,-3.62,2.89,-2.43,0.431,-2.48,-11.7,-3.72,-6.35,,,,,135,748000000.0,-7.2681186932116555,-3.7693090239721787,5.135818724388235,-2.257592113778669,1.2055525593481184,-2.6708121680118544,-5.577359721894191,-4.592418565977544,-4.217260798630107
15,0.7979999999999999,-11.6,-6.1,8.17,-3.29,0.584,-2.32,-8.12,-4.5,-0.861,,,,,135,798000000.0,-8.919333234827079,-5.188580811432844,6.299291422629638,-2.930231451322799,0.9831579216215907,-2.4317119043312,-6.612541172269535,-4.532927698082677,-2.8194339605754206
16,0.848,-18.2,-2.1,7.22,-3.42,1.68,-1.48,-14.6,1.36,-1.22,,,,,135,848000000.0,-12.45691404565344,-3.3077926808883733,6.652342025532953,-3.249327866625106,1.2324918221914318,-1.7830613153261339,-9.864464515635305,-0.7395840084948064,-2.1532962484700926
17,0.898,-6.94,-3.2,10.7,-1.77,2.45,-0.149,-2.64,1.53,3.22,,,,,135,898000000.0,-10.353990621561154,-3.2421524690211356,8.204438572377956,-2.2855090319437856,1.6681231734780353,-0.6693473347363674,-6.923178039347862,0.7213726650423393,0.08459262770558684
18,0.948,-19.7,-3.07,7.42,-0.9209999999999999,1.91,0.052,-14.8,2.21,0.8059999999999999,,,,,135,948000000.0,-13.91647958931154,-3.1373203614269385,7.90364131399118,-1.3964975327909368,1.754668081128063,-0.17770445258070017,-10.130058106913692,1.6796188081341188,0.3850468471297677
19,0.998,-2.23,-5.28,11.5,0.341,2.06,1.72,3.66,-0.087,5.62,,,,,135,998000000.0,-9.461856152574953,-4.442103026346027,9.282684880114648,-0.26447477127616414,1.8639175869332698,1.1156986755610931,-4.515730120414732,0.54242646074467,2.5653180887010083
20,1.05,-6.68,-4.46,-0.867,0.6659999999999999,-0.36200000000000004,1.78,-0.0967,-0.0679,-6.66,,,,,135,1050000000.0,-8.40147501294941,-4.453001393066266,5.390732221863464,0.3417526423311841,1.067471376966164,1.5684611486276319,-2.716616280347636,0.14955246855493787,-1.2768740510464314
21,1.1,-11.4,-3.23,3.05,-0.354,-0.486,2.24,-4.54,0.507,-2.89,,,,,135,1100000000.0,-9.544445239354843,-3.708255978503543,4.4931655155972,-0.11154747423462413,0.5116303054302934,2.0261564705164954,-3.45896804733387,0.37964547398122084,-1.9487143377635514
22,1.15,-6.46,-3.48,-1.81,-0.49700000000000005,-0.0538,2.13,0.693,-0.49700000000000005,-7.83,,,,,135,1150000000.0,-8.368724009833885,-3.569259749433768,2.0761819326358157,-0.36267936750994983,0.3093160599631902,2.096932344853474,-1.768582824308155,-0.18466105962937718,-4.398172385671063
23,1.2,-10.8,-1.79,3.77,-0.652,-1.19,1.94,-3.59,0.649,-2.36,,,,,135,1200000000.0,-9.295471880561811,-2.4857813525203527,2.7256858119958793,-0.551178947084505,-0.22714794965452922,1.9899732720669627,-2.5101339357560555,0.35197591142152196,-3.549307297016238
24,1.25,-4.82,-4.25,0.57,-1.3,-0.745,1.3,2.36,-2.13,-5.76,,,,,135,1250000000.0,-7.589522589257731,-3.5601004628145603,1.8990761865286423,-1.0390544178470686,-0.41243842108054496,1.519713724837639,-0.5273628420824372,-1.2456999052395323,-4.47002429241604
25,1.3,5.72,-6.07,3.62,-1.04,-0.009770000000000001,-2.0,12.7,-3.64,-2.86,,,,,135,1300000000.0,-2.516231604565399,-5.088501279792723,2.558973877457805,-1.0396704632355003,-0.2683613226105942,-0.8791891533447853,4.857875679459038,-2.786937808817472,-3.79947579413195
26,1.35,-7.43,-13.2,-0.235,0.6890000000000001,-0.546,-6.79,-1.06,-9.3,-6.6,,,,,135,1350000000.0,-4.389249682956396,-10.027989871971947,1.4876091731706902,0.08660125626752002,-0.36770205448594717,-4.9077727738994055,2.4485388670698254,-6.979469143353008,-4.965847707398574
27,1.4,-13.4,-12.1,0.807,-0.557,2.39,-6.61,-8.39,-6.3,-5.33,,,,,135,1400000000.0,-7.823945167325318,-11.289738516486024,1.2266258219948378,-0.33272092435808165,0.6190197871548054,-6.067946137853786,-1.9641411517586094,-6.542087354625693,-5.117511074859888
28,1.45,-10.0,-9.8,4.18,-0.401,-0.54,-3.29,-6.56,-2.49,-1.36,,,,,135,1450000000.0,-8.653408393028677,-10.382563912601993,2.359113385750896,-0.3772064323313577,0.20431577127942935,-4.17460378162239,-3.8352470141667783,-3.93371326447011,-3.552569945308134
29,1.5,4.26,-7.76,2.04,-2.39,-0.848,-3.93,6.2,0.26899999999999996,-3.25,,,,,135,1500000000.0,-3.7311070752755287,-8.785556485314473,2.236747582023945,-1.6885914678652112,-0.17220891702064012,-4.007891201714693,0.2503896461077475,-1.2283795839130884,-3.4265545738699323
30,1.55,1.64,-5.59,1.57,-2.25,-3.73,-4.95,1.13,3.2,-2.74,,,,,135,1550000000.0,-1.6837617044204203,-6.839625780424649,1.9810795617241093,-2.0543630607982934,-1.4452072270837437,-4.649996562234446,0.6085042348537202,1.6222180732250928,-3.1406159676777854
31,1.6,1.37,-6.77,-2.33,-0.451,-3.45,-3.99,-1.99,1.91,-5.43,,,,,135,1600000000.0,-0.5197363316186772,-6.7972272222429755,0.3279723382100006,-1.0097322342291875,-2.162533736552873,-4.200168038202984,-0.44942133385002103,1.807466507038003,-4.094106431748853
32,1.65,7.49,-17.3,3.79,3.22,0.19899999999999998,-1.46,2.67,-9.36,0.555,,,,,135,1650000000.0,2.533395163539681,-13.192879315990545,1.6555059390151199,1.7460433176246937,-1.317563256055191,-2.3325738484678604,0.820584546062376,-5.381156766206024,-2.157830592596068
33,1.7,-1.37,-19.1,3.84,-1.05,-0.506,0.21,-6.67,-11.8,0.096,,,,,135,1700000000.0,1.045508599794004,-16.790014544399913,2.4931622110127503,-0.07564827097159887,-1.0271812054242668,-0.599652314449113,-2.22904718482162,-9.513038300694276,-1.219147475537953
34,1.75,2.68,-10.5,1.5,1.56,1.57,0.139,-2.22,-2.88,-2.35,,,,,135,1750000000.0,1.6685400345809875,-12.959716730276341,2.1123286794818825,0.9900171373308628,-0.0978946741525929,-0.09621501863376469,-2.225363828174907,-5.2432771947287655,-1.690128784501178
35,1.8,4.69,-13.7,5.72,2.69,1.52,0.135,0.0501,-6.59,0.754,,,,,135,1800000000.0,2.8202527300006324,-13.410511341205808,3.4957100792760576,2.0975982034799623,0.48099742566600023,0.06137233929087585,-1.298957273973029,-6.110177873499874,-0.6721896189651662
36,1.85,7.93,-11.7,-1.95,2.93,0.494,0.753,3.79,-5.38,-8.22,,,,,135,1850000000.0,4.767973553524426,-12.368897123054493,1.4075224737199585,2.639928677749067,0.48564981789479983,0.5327594366359065,0.7729031008724403,-5.6401542570925045,-3.8157277565431116
37,1.9,7.28,-3.29,-2.61,1.68,0.402,0.74,3.58,2.39,-9.7,,,,,135,1900000000.0,5.7255016921053885,-6.840312140343563,-0.13301865315215755,2.0145112844423188,0.45571943102952206,0.6740067214078874,1.9157526879430062,-0.47105379257075874,-6.266429618593822
38,1.95,-0.20600000000000002,-4.08,1.04,0.20199999999999999,0.282,0.973,-3.69,1.19,-6.45,,,,,135,1950000000.0,3.464546474830076,-5.159422887218009,0.31678180919964705,0.8336152003979749,0.3935616120047424,0.8777891504982811,-0.36650995362940164,0.5981852082616599,-6.342883562949961
39,2.0,-1.52,-8.49,-0.0023899999999999998,-2.03,-0.17300000000000001,2.0,-4.5,-2.64,-7.29,,,,,135,2000000000.0,1.564549324118516,-7.187574216300561,0.19439361729183735,-1.0321011593966218,0.19084258073230134,1.642645342580039,-2.0493722454567105,-1.4862710116223896,-6.737341858143295
40,2.05,2.37,-6.87,2.29,-3.32,-0.0538,1.49,0.0518,0.139,-4.16,,,,,135,2050000000.0,1.8715689868620973,-6.994187657927047,0.9979654367269722,-2.5227239965615595,0.10330804452000439,1.5386080948360996,-1.1939247898628023,-0.4400658261385544,-5.663921593368392
41,2.1,8.41,-6.07,5.69,-1.35,-0.47,-0.5329999999999999,6.26,1.83,0.303,,,,,135,2100000000.0,4.363871970782006,-6.4314046494783,2.797152009447573,-1.7586652211428926,-0.10182490156094473,0.1266788894018156,1.8407817654772032,1.021201044863884,-3.1787975650852762
42,2.15,5.59,0.10300000000000001,-0.809,-0.662,-1.47,-0.831,2.83,8.03,-5.88,,,,,135,2150000000.0,4.831244493541395,-2.452285735002075,1.4143531115659325,-1.0441606104772565,-0.5913659045741723,-0.5260385623124157,2.2435208354154255,5.532843402063426,-4.303803692974911
43,2.2,-1.09,-4.67,-10.7,-4.06,1.41,0.21100000000000002,-4.12,3.63,-14.9,,,,,135,2200000000.0,2.574199077338778,-3.802760576330308,-3.2309623806001175,-3.009054789074465,0.12473442250495681,-0.023701140629823425,-0.3472508718958527,4.307961827119966,-8.716943815107776
44,2.25,-2.87,-22.8,-15.9,-4.24,3.71,0.654,-5.24,-13.7,-18.5,,,,,135,2250000000.0,0.4989927151898903,-15.371109298411184,-8.088974635715118,-3.8110459971222417,1.4075632730304681,0.4381941457918443,-2.339229208243969,-7.283965135113753,-12.79142470145144
45,2.3,-12.3,-44.9,5.73,-1.06,1.92,3.63,-13.7,-35.3,4.21,,,,,135,2300000000.0,-4.379695901534685,-33.35269750523952,-2.790012531073403,-2.018671211326131,1.590916093391763,2.6136075809129933,-6.964524596906112,-25.31820063820583,-5.710612853607882
46,2.35,-0.752,-7.94,8.38,0.17600000000000002,-2.72,-1.05,-0.9309999999999999,1.85,7.77,,,,,135,2350000000.0,-2.9968996959687537,-17.877661827811295,1.4931904702750778,-0.5887884456869772,0.048445279131208,0.11663216101575813,-4.508103769307746,-7.829725033424079,-0.09616085696787824
47,2.4,-2.33,-7.22,5.53,1.77,1.7,0.243,-3.07,2.5,4.47,,,,,135,2400000000.0,-2.7426924820614684,-11.387689615790462,3.0411274459046655,0.9480207597480965,0.639381162954909,0.20275966968943693,-3.922610471804612,-1.1803651255557988,1.8055694335682257
48,2.45,0.414,-6.27,5.23,2.99,-1.16,1.8,0.32799999999999996,3.29,3.08,,,,,135,2450000000.0,-1.5394322088485235,-8.271277835910809,3.8804627154785147,2.278420923228638,-0.004447851007372439,1.2913778388614772,-2.1920650936262644,1.697259040583028,2.3363486271968044
49,2.5,-3.26,-6.19,2.53,2.67,-2.99,0.976,-3.1,2.98,-0.9570000000000001,,,,,135,2500000000.0,-2.1952740014149645,-7.003885897461458,3.362620322434037,2.5335444605062953,-1.072695745110571,1.0764283179071072,-2.5617113827763878,2.5229738013298464,0.9647234571150018
50,2.55,-0.28,-12.2,0.608,3.59,-1.11,0.6920000000000001,-0.13,-3.68,-4.32,,,,,135,2550000000.0,-1.465214571624169,-10.168054059208927,2.306345948286296,3.221851409956767,-1.086043429187797,0.8144165925603238,-1.571691967512689,-1.4699500775297403,-1.2362764153287753
51,2.6,-8.24,-37.5,0.251,4.14,0.975,1.11,-7.82,-30.2,-6.25,,,,,135,2600000000.0,-4.047610520779312,-26.811814109964647,1.518212195081535,3.8200479179730906,-0.3485901168870552,1.0158749998628374,-4.115557356449514,-19.963806066962842,-3.3244092573644153
52,2.65,0.728,-8.28,-2.16,1.68,-0.82,0.943,1.52,-2.25,-9.85,,,,,135,2650000000.0,-2.2272550611919835,-15.526885021344587,0.10778139422413258,2.4257535489169175,-0.5172633071428201,0.9662061870064698,-1.8211604109849624,-8.561230345315263,-6.0422098919269445
53,2.7,4.0,1.19,-3.95,-1.14,-1.42,-0.643,4.46,7.05,-11.8,,,,,135,2700000000.0,0.1464346973525581,-5.347155241166249,-1.4481972964334364,0.10257661855884814,-0.8402677210751368,-0.13056749159469616,0.7360800686534175,1.4878939153032942,-8.440234198104053
54,2.75,-4.37,10.3,3.81,-3.17,1.37,-1.52,-4.62,17.0,-3.33,,,,,135,2750000000.0,-1.5751287217217962,4.181163783377507,0.5680874573464734,-2.02958832400137,-0.04942109768215075,-1.0775517801683416,-1.4445336224018392,11.47321065436768,-6.311906252085789
55,2.8,-7.28,-9.88,2.41,-0.741,2.66,0.8490000000000001,-7.03,-2.42,-3.96,,,,,135,2800000000.0,-3.7496975954900345,-4.381367346188503,1.2743790210998462,-1.1900410457767405,0.9200255305596025,0.23551255313051733,-3.7185371876120787,2.5299950193814595,-5.332376263290966
56,2.85,0.855,-12.3,5.78,0.0467,2.31,0.618,2.42,-4.8,-0.327,,,,,135,2850000000.0,-1.9944902912316904,-9.203410580145238,3.002084334501215,-0.384273557850608,1.4173664443564946,0.4962014156683724,-1.2193626952300933,-2.18840514299516,-3.2477199390955582
57,2.9,9.03,-6.46,40.9,0.7979999999999999,-2.18,-0.46299999999999997,11.3,1.04,35.1,,,,,135,2900000000.0,2.207797684205402,-7.532813584210624,17.53424985753236,0.3860069950121584,0.1302078231828787,-0.1575537518107023,3.8776288257708504,-0.11024455294322477,12.723469713359819
58,2.95,-1.86,-21.0,8.51,-1.86,4.99,-0.233,-0.8029999999999999,-13.5,2.33,,,,,135,2950000000.0,0.6572445686024517,-15.733642743933009,14.07385152845114,-1.077322317802074,1.869069594306238,-0.20897503914418616,1.9720106630009457,-8.729380372893278,8.394761669534851
59,3.0,-3.43,-15.9,-3.83,-1.86,-0.7490000000000001,-2.33,-1.74,-7.99,-9.33,,,,,135,3000000000.0,-0.9007212825284734,-15.834945589679469,7.208520869548733,-1.5872562632562188,0.9323090903918969,-1.6545848523419118,0.46074470672769996,-8.253432783369757,1.012692001143801
60,3.05,-11.1,-22.5,-2.89,-3.35,0.866,-0.767,-10.5,-13.8,-7.35,,,,,135,3050000000.0,-4.7884573883722155,-19.893623540049926,3.3361872635230205,-2.7357274971848273,0.9085833117166396,-1.0496408209596362,-4.001688672903585,-11.823820458306459,-2.470230685233684
61,3.1,-2.89,-15.9,18.4,-2.05,3.82,-1.45,-2.1,-6.61,15.4,,,,,135,3100000000.0,-4.06480811328699,-17.461710407091076,9.112489255144133,-2.288958981838432,1.9503050803071287,-1.3225104280864453,-3.227456660000877,-8.467625813984045,4.9724242920205155
62,3.15,-3.69,-6.73,7.48,-0.45299999999999996,0.509,-0.887,-3.47,2.81,5.22,,,,,135,3150000000.0,-3.9219397009026067,-10.92664652911834,8.486502247115556,-1.0927861422853693,1.434597756677223,-1.0256831169036191,-3.3262030183050033,-1.208091574657904,5.075535386974981
63,3.2,-5.78,1.58,1.73,1.21,0.37,0.7390000000000001,-5.61,11.1,-0.79,,,,,135,3200000000.0,-4.630190632879271,-3.3107371081255925,5.895684175536285,0.40753620977820737,1.0536785008221115,0.17705772878204673,-4.256002293071494,6.714765319462408,2.6326370269780726
64,3.25,-1.33,4.06,5.49,2.23,1.66,2.05,-0.39399999999999996,13.3,2.28,,,,,135,3250000000.0,-3.3722321057809803,1.1776655521984614,5.740122251503749,1.5949166153698737,1.2706238411134363,1.4535838448123866,-2.6836704457747746,10.953754895201442,2.4857695332566436
65,3.3,1.54,-1.61,1.47,1.29,-3.74,1.16,3.2,7.1,-2.72,,,,,135,3300000000.0,-1.499799575563563,-0.5198804948758822,4.1027203163710055,1.3962558475247844,-0.5222064604134018,1.2534882502728601,-0.2882595218577868,8.473049567022747,0.31765272214278806
66,3.35,-13.6,-30.7,1.98,1.33,-0.0953,3.28,-12.0,-22.4,-3.03,,,,,135,3350000000.0,-6.11212433937596,-18.89803333963674,3.288751502104777,1.3530885463423372,-0.3694568493170334,2.6346814894139285,-5.056444808680656,-11.400278602295801,-1.0765891851028424
67,3.4,-10.1,-24.4,3.19,3.61,1.36,2.8,-6.41,-17.2,-2.35,,,,,135,3400000000.0,-7.632213114678379,-22.24844998218491,3.250884715509341,2.823522306946668,0.24935285636123627,2.7473562599995534,-5.607515867045505,-15.133624832420557,-1.6069436611613033
68,3.45,-4.27,-9.14,-2.94,-0.5479999999999999,-0.109,1.19,-0.154,-2.94,-9.31,,,,,135,3450000000.0,-6.350612986980526,-14.266073209624874,0.8769557790718725,0.6268918565526542,0.12113212497708581,1.6859215612516159,-3.3872332223599617,-7.284451747033141,-4.815139232726721
69,3.5,2.71,-4.21,-3.54,-1.42,-1.04,-0.779,6.79,2.21,-9.73,,,,,135,3500000000.0,-2.896910812821681,-8.142437911885953,-0.8167502789915762,-0.7067089642058919,-0.2943276763157203,0.0059248762073107475,0.756210155684176,-1.1727666011761473,-6.862097157906685
70,3.55,6.0,0.517,-1.16,-1.74,1.71,-3.33,9.43,7.74,-6.84,,,,,135,3550000000.0,0.49439175493224674,-2.86928219083134,-0.9483712662657844,-1.3799237266837332,0.4228324154785311,-2.2677144676519543,4.28755877538613,4.5644811176516225,-6.852894121134199
71,3.6,-7.25,6.22,13.7,1.33,-3.59,-2.75,-5.09,14.1,8.34,,,,,135,3600000000.0,-2.457596434759913,2.6656266171079217,4.6686274737290505,0.38565886994039045,-1.0129822874362864,-2.596421925730477,0.4696857111622066,10.702601860302249,-0.5253052617227025
72,3.65,-3.35,-7.65,-1.12,0.0846,5.33,2.25,-1.53,-0.285,-7.33,,,,,135,3650000000.0,-2.7977605931428626,-3.616063539441413,2.448946317007601,0.18951154487136684,1.2565735701054996,0.7067147539600134,-0.3444436548026345,3.6297592596202852,-3.3593478976499105
73,3.7,8.69,-1.6,11.5,-1.26,1.84,0.455,12.6,5.7,6.19,,,,,135,3700000000.0,1.5811155576752438,-2.388383758667237,5.919622808670089,-0.7548811975013654,1.4653269455824722,0.5351555694622327,4.925610588206561,4.962396330395112,0.6177973812712216
74,3.75,0.919,-22.0,-9.47,-1.45,-3.11,-0.072,4.11,-14.6,-15.1,,,,,135,3750000000.0,1.3287319901792367,-14.33085706939847,0.01838689790087411,-1.207768381353368,-0.17175155878235104,0.12134145004279984,4.5935521911561725,-7.630137931339297,-5.928405088525668
75,3.8,1.3,-19.9,-3.59,-0.369,0.531,-2.42,4.88,-12.1,-8.39,,,,,135,3800000000.0,1.3177799826980545,-17.722180631833446,-1.3652689415302417,-0.6612899546175781,0.07969703505940767,-1.610740184594959,4.710173352271924,-10.507438544222218,-6.953618746306116
76,3.85,-10.5,-20.6,-9.2,-2.79,0.8690000000000001,-2.41,-8.42,-12.2,-13.7,,,,,135,3850000000.0,-3.1868923067799306,-19.474625974950712,-4.369539736238418,-2.0481973592456293,0.36211422430375845,-2.155485305188151,-0.6354966506080819,-11.596959221778588,-9.763374733956127
77,3.9,-11.9,-15.8,16.8,-1.69,4.56,-0.515,-10.1,-6.67,13.8,,,,,135,3900000000.0,-6.508133108347883,-17.2369664258905,3.7480368274739435,-1.8148229264633666,1.8641421040164927,-1.0373929652408322,-4.488767436517197,-8.425420337279263,0.050380695218148475
78,3.95,-4.29,-8.44,8.24,-1.42,-1.22,-1.93,-2.78,1.01,6.1,,,,,135,3950000000.0,-5.662630574537232,-11.880062615665945,5.47050481141929,-1.5575859623455002,0.7606181448449609,-1.6457599025379723,-3.793079216561469,-2.3517344029325944,2.569946909759732
79,4.0,-4.93,-0.764,2.74,0.266,0.0819,-0.267,-3.99,8.8,0.799,,,,,135,4000000000.0,-5.383368189753268,-5.110947847587553,4.423477674228323,-0.36947444448090927,0.5177688527173218,-0.7060496358267265,-3.873251316471519,4.826762282156846,1.832376860365604
80,4.05,-4.86,2.91,3.45,1.34,0.7490000000000001,1.09,-3.84,8.71,0.473,,,,,135,4050000000.0,-5.183872042119039,-0.22659994668744332,4.050192305260017,0.7442906072675373,0.6005047041689102,0.5180694424980314,-3.859713717382851,7.326445997246212,1.2662189061415403
81,4.1,2.1,1.87,2.13,1.73,0.361,1.92,4.13,11.0,-0.737,,,,,135,4100000000.0,-2.407423659539909,1.0501224129297622,3.3138840112685037,1.3865047545203448,0.5148085311520789,1.4735719092813935,-0.6068721768853322,9.691153927637572,0.4319114112902108
82,4.15,-4.69,-6.85,2.64,1.67,-1.71,1.91,-1.96,1.8,-1.08,,,,,135,4150000000.0,-3.2774905132384804,-3.7606488548741552,3.055479507898559,1.571208915386106,-0.281240890442068,1.7710246582036935,-1.1577693190564078,4.611529571661492,-0.1977746710117333
83,4.2,-18.8,-73.2,3.34,1.01,1.61,6.92,-0.423,0.759,-1.84,,,,,135,4200000000.0,-9.194322186679198,-46.04566764755617,3.1645804280817753,1.2055673715058843,0.39545608434238066,5.280370279974974,-0.858623668983552,2.1316130615318105,-0.8817343379679256
84,4.25,-5.89,-13.3,-7.15,1.17,-0.7979999999999999,1.55,-0.0816,-7.25,-12.2,,,,,135,4250000000.0,-7.934788736820417,-26.105227510808273,-0.7906024045383746,1.1823943182216845,-0.031569423059875035,2.737891881076341,-0.5422750597537453,-3.9074365318148994,-5.595604467895223
85,4.3,1.86,-6.34,-2.86,-0.706,-1.19,-0.0409,7.73,-0.55,-8.17,,,,,135,4300000000.0,-4.20123526627996,-14.069212870230103,-1.5841242942470823,-0.04794143107942528,-0.4460626289050017,0.8439731248435682,2.8256052645268266,-1.7462169721113256,-6.667797604893263
86,4.35,9.24,-3.44,-4.95,-1.58,0.688,-2.37,14.6,2.89,-10.2,,,,,135,4350000000.0,0.9222616255198854,-7.596564783943482,-2.8747878382924146,-1.0461156426240557,-0.04028842844176711,-1.3465485220301996,7.619299050913718,1.2381679806662955,-8.138901327126737
87,4.4,0.0144,2.53,5.91,0.41600000000000004,-0.521,-4.43,4.4,10.1,1.44,,,,,135,4400000000.0,0.5762051653165655,-1.4300037095391218,0.49378748706580167,-0.09351100592426886,-0.21228982927648857,-3.4481115443978334,6.3086301590979925,6.942628930544834,-4.149447534255211
88,4.45,-15.8,-6.57,4.53,0.544,-1.71,1.48,-13.3,1.31,-0.7390000000000001,,,,,135,4450000000.0,-5.666036489394282,-4.559999208674814,2.0414955333117764,0.32184325681953757,-0.748179236544741,-0.08929831757474105,-1.6746053730859103,3.3168424506574548,-2.729052625111671
89,4.5,1.08,-3.56,-1.42,-0.40399999999999997,4.43,3.09,5.68,3.77,-6.04,,,,,135,4500000000.0,-3.094598886444133,-3.9510506958778113,0.7141659819370783,-0.15106164970595548,1.1046032933292909,2.077590320245631,1.319665237441324,3.6085450375094568,-4.1080073591216895
90,4.55,1.29,-1.64,-13.7,1.55,-2.92,-0.293,6.9,5.18,-18.0,,,,,135,4550000000.0,-1.4232882882337896,-2.543738769799125,-4.813025449095468,0.9572222046256197,-0.33542315602217654,0.4618861985122802,3.591579528469807,4.620108118748931,-9.893792232349329
91,4.6,-1.51,-37.4,-6.22,-2.04,1.35,-1.43,3.19,-30.2,-11.0,,,,,135,4600000000.0,-1.4563408414864667,-23.76942371865111,-5.352537525925887,-0.9955424283565316,0.2676310419823027,-0.8275513739103477,3.4280850137241226,-17.793986664639444,-10.354509447955017
92,4.65,0.23,-18.0,-3.94,-0.29,-0.878,-3.4,4.59,-10.0,-7.76,,,,,135,4650000000.0,-0.8135455881329908,-20.256139146363953,-4.8108922371082485,-0.5358640191724684,-0.14228240298407546,-2.5808344884809116,3.90113397514935,-12.776909996807301,-9.27393932520737
93,4.7,-10.5,-22.1,-4.55,-2.4,0.644,-2.29,-7.45,-13.4,-8.02,,,,,135,4700000000.0,-4.505804441852755,-21.378956527551203,-4.71085174194344,-1.7503949409614383,0.13905400312645755,-2.3826127472980723,-0.720237989215478,-13.177999777637622,-8.751694553074433
94,4.75,-10.1,-11.9,8.15,-2.15,0.7509999999999999,-2.46,-7.85,-2.68,5.84,,,,,135,4750000000.0,-6.638186282435097,-15.606755577536035,0.22071269717106023,-2.010747617319157,0.35801182868117243,-2.4353569785808964,-3.622968452470625,-6.420319571778141,-2.6744953574492305
95,4.8,-5.56,-4.9,3.74,-0.526,0.354,-1.29,-4.26,4.69,2.15,,,,,135,4800000000.0,-6.227205866972054,-9.086887963522676,1.5702028416594553,-1.0433977078806744,0.3565763738572765,-1.6547252401000447,-3.882322350312835,0.7315178358606582,-0.6651728985728513
96,4.85,-6.79,-1.84,1.63,0.687,-0.0379,0.67,-5.77,7.79,0.0778,,,,,135,4850000000.0,-6.441730334985831,-4.673903096461843,1.5931323902446382,0.08399933232149981,0.21543043697971695,-0.07028100813268856,-4.6508500274207005,5.275141979495854,-0.35573699123909264
97,4.9,-2.47,3.66,3.33,1.18,1.01,2.34,-0.721,13.1,1.32,,,,,135,4900000000.0,-4.927795951488753,0.40101857771338967,2.2591438325194315,0.798070936047598,0.4997320358656706,1.5724747083155792,-3.050895431422871,10.312091131044026,0.3421797360103861
98,4.95,2.45,0.172,1.3,1.88,-0.00855,2.05,5.37,9.17,-1.27,,,,,135,4950000000.0,-2.1155458297610545,0.26155795659025877,1.8913548177002826,1.5029745717538698,0.3178657726099733,1.8979377350823081,0.3774924522777563,9.576914304360104,-0.3292664172023898
99,5.0,-17.9,-21.9,4.47,2.06,-1.24,3.31,-14.2,-13.6,0.973,,,,,135,5000000000.0,-8.132225078394448,-13.233699476976808,2.8801504651271115,1.8658904264336202,-0.2395476479927372,2.8603455781729497,-5.557422537512801,-5.34232573362528,0.21310597489449712
100,5.05,-8.03,-31.2,4.02,2.12,1.77,3.5,-2.24,-24.4,0.017,,,,,135,5050000000.0,-8.09325907280925,-24.174259957043795,3.3172320533129778,2.031449046090239,0.47948015949681244,3.2963096802346334,-4.206804726471677,-17.609964248443543,0.13143108439606105
101,5.1,-4.09,-9.29,-3.08,-0.171,-1.06,1.69,2.43,-3.48,-7.54,,,,,135,5100000000.0,-6.567306689880421,-15.11050531514333,0.8641781424658843,0.5964988249484853,-0.07135475811540082,2.2015101939273825,-1.5047712391646528,-8.514347729865015,-3.063592901780672
102,5.15,2.85,-6.78,-3.63,-1.29,-1.27,-0.605,9.33,-1.1,-8.31,,,,,135,5150000000.0,-2.977640938789339,-10.037652896396818,-0.8591393155773299,-0.6326019578466142,-0.5002369772341442,0.28869967751905756,2.9063746995035324,-3.741648919402735,-5.248634748560999
103,5.2,8.31,-2.37,-4.85,-1.48,1.02,-3.41,14.1,4.19,-9.25,,,,,135,5200000000.0,1.3249544145867254,-5.368443571115083,-2.389456835841667,-1.1847028272878748,0.04371263170282491,-2.232193270455469,7.463620600107728,1.3640425232823032,-6.915137110210017
104,5.25,-3.28,5.68,9.07,0.934,-2.03,-3.4,1.34,13.4,5.16,,,,,135,5250000000.0,-0.4303507651668854,1.3594945447152824,2.0047350208418173,0.19568466116604522,-0.6982737760376161,-3.028125943522968,4.970519122760495,9.111723153986947,-1.8860425405813785
105,5.3,-9.54,-9.17,2.11,-0.191,2.41,3.17,-5.79,-1.42,-2.59,,,,,135,5300000000.0,-3.902744426519239,-5.0524302522766265,2.0450994178796664,-0.05624999292418781,0.4138846559465048,1.1962807868744156,0.5896033337205981,2.332334817033688,-2.179229128624706
106,5.35,3.2,-2.54,3.67,0.529,2.46,2.24,8.9,4.47,-0.133,,,,,135,5350000000.0,-1.1953377681596877,-3.5224884402795187,2.6681765439210667,0.3250548932098097,1.1459966178438568,1.9076400743046675,3.973003893769771,3.708373745754254,-1.3270085841701724
107,5.4,4.09,-8.66,-10.4,-0.222,0.214,-0.0751,10.1,-2.08,-14.5,,,,,135,5400000000.0,0.8193143329097352,-6.6509706677641365,-2.3428877348324835,-0.031364949568121026,0.8125228180902011,0.5562799251228268,6.467479805321094,-0.017667333260946272,-6.813341354358499
108,5.45,-2.41,-34.9,2.27,-0.963,2.33,-3.43,3.29,-27.7,-1.15,,,,,135,5450000000.0,-0.4116277896724576,-23.85318862499927,-0.5740504795804124,-0.6383483079409733,1.3554849357650933,-2.16061675834342,5.173836672852709,-17.837095969352237,-4.454653459470287
109,5.5,-3.66,-19.0,-6.7,-1.31,-1.7,-2.45,0.836,-10.9,-9.96,,,,,135,5500000000.0,-1.6498343470660917,-20.897844459950512,-2.923079561973736,-1.075946018536559,0.2622146709304194,-2.3578493914401233,3.407779021708908,-13.371609211193608,-6.747539136867914
110,5.55,-10.5,-21.4,2.3,-2.03,1.64,-2.93,-7.18,-12.6,-0.33,,,,,135,5550000000.0,-5.023318709816884,-21.203631321440582,-0.9202608936463745,-1.6975358485882328,0.7551942548973742,-2.747805509770591,-0.902809265928691,-12.874915949725212,-4.074740371030095
111,5.6,-11.9,-11.2,8.84,-1.61,-0.0476,-2.49,-9.93,-1.76,7.26,,,,,135,5600000000.0,-7.644555014640293,-15.111930317585614,2.8223650758921193,-1.6405040798997312,0.4679498097069505,-2.5720950955519557,-4.578037518724215,-5.720119832723134,0.6459913771248882
112,5.65,-5.92,-2.66,1.99,-0.467,0.0904,-1.06,-4.75,7.01,0.858,,,,,135,5650000000.0,-6.987193407483548,-7.529340355091285,2.503190096993354,-0.8759370502616333,0.3328602970713064,-1.541508605385411,-4.648048374466368,2.4744012882255317,0.7342894493900003
113,5.7,-6.66,-0.0455,2.11,0.595,-0.43,1.13,-5.62,9.64,1.02,,,,,135,5700000000.0,-6.862474571500195,-2.9720635547672236,2.3524191438785764,0.08241496551094007,0.059904451649572144,0.27928995157817926,-5.043757697375876,7.086977801022453,0.8532831541967194
114,5.75,-1.0,3.23,4.26,0.922,0.21100000000000002,2.54,0.924,12.7,2.79,,,,,135,5750000000.0,-4.627830942267806,0.8046766073183438,3.0838916397385256,0.629425448209221,0.11396731437112187,1.820103828602885,-2.614112452137738,10.700143048192583,1.6598936311192825
115,5.8,1.24,-1.38,-0.431,2.0,-0.392,1.87,4.24,7.7,-2.58,,,,,135,5800000000.0,-2.3911455811734053,-0.525679937367898,1.7360870423748986,1.5223887865749037,-0.06707072429324551,1.854111162713333,0.17639311944283564,8.768917182427831,-0.10595181868458647
116,5.85,-22.3,-28.2,1.6,2.87,-0.129,3.14,5.02,7.1,-3.56,,,,,135,5850000000.0,-9.979953420737894,-17.37792881808237,1.6839037239916947,2.4003908654806088,-0.08922937622280848,2.730524111492813,2.1483643234823804,7.694616404758244,-1.5445056607722394
117,5.9,-6.5,-30.5,-0.0479,1.87,0.622,3.23,-0.563,-23.6,-3.68,,,,,135,5900000000.0,-8.653473340213226,-25.368600415117307,1.0198340278966673,2.0548280553427576,0.16525261592428658,3.0709478748866177,1.0444901717299466,-12.4500795592803,-2.4339037154942775
118,5.95,-2.51,-9.65,-3.36,-0.457,-1.92,2.37,4.2,-3.78,-7.45,,,,,135,5950000000.0,-6.311719288243898,-15.796774810063432,-0.6596374641882503,0.41830974155591716,-0.5808628600442654,2.5932084106830127,2.3291886035474656,-6.86905204662089,-4.5230246682794055
119,6.0,3.38,-6.52,-2.63,-0.909,-1.35,-0.585,10.0,-0.885,-7.16,,,,,135,6000000000.0,-2.6174535382816884,-10.147692427289758,-1.4151838977633557,-0.4464654857435565,-0.8560646022600185,0.42706256803272913,5.45219582069168,-3.0170505944949415,-5.621281160124058
120,6.05,9.31,-1.13,-3.99,-1.18,1.23,-3.01,15.4,5.21,-8.41,,,,,135,6050000000.0,1.929024007148358,-4.656378000727298,-2.4025113474146353,-0.9243813940487636,-0.10965857068682039,-1.9155084217284934,9.502231918535504,2.278794208699992,-6.782736310130409
121,6.1,-2.71,6.97,8.28,0.838,-2.04,-2.92,2.31,14.4,4.27,,,,,135,6100000000.0,0.16073223850324592,2.4234926616354135,1.6937564880404583,0.22385382644421614,-0.800345926498847,-2.6001316921504207,6.574068102899413,10.081350136023161,-2.1794546864130933
122,6.15,-10.0,-4.5,2.16,-0.366,0.7340000000000001,2.06,-5.94,3.09,-2.51,,,,,135,6150000000.0,-3.7123106699450727,-1.7925609930533488,1.8725401690255101,-0.1604505795733977,-0.2513480370597747,0.5760366174634917,1.4792322165728713,5.580939552330089,-2.317121331474673
123,6.2,0.6679999999999999,-4.66,-1.59,-0.0486,2.9,2.02,6.3,2.37,-5.47,,,,,135,6200000000.0,-2.042634635548838,-3.5386849007892716,0.5448100170652224,-0.08757715044028885,0.876222618985856,1.5601870738365324,3.4419050548658463,3.5140216607379853,-3.6302429955253555
124,6.25,-3.08,-10.8,-7.08,-0.0382,-1.62,0.685,3.16,-4.2,-10.8,,,,,135,6250000000.0,-2.4380549830650127,-7.960455293594321,-2.3789654395488204,-0.0554067103624226,-0.0169403269101307,0.9636928845962047,3.327133460657082,-1.451580514063688,-6.616328130835036
125,6.3,8.68,-24.6,-2.53,-0.19,2.54,-3.11,14.8,-17.9,-6.17,,,,,135,6300000000.0,1.7998979694478372,-18.093088966888992,-2.436880464412128,-0.14309757763437428,0.8979477520053385,-1.8127810272089269,7.998066396895956,-12.039612449779263,-6.430439887642179
126,6.35,-4.61,-22.7,-6.31,-0.799,-1.6,-3.77,0.0447,-14.8,-9.82,,,,,135,6350000000.0,-0.6434112142622603,-20.89846311311931,-3.922049505915994,-0.5704343015608349,0.004167536675603434,-3.146746954089215,4.760022939299498,-13.816505011342157,-7.842135413709945
127,6.4,-8.15,-21.3,-0.527,-1.71,0.6509999999999999,-2.96,-4.73,-12.6,-3.45,,,,,135,6400000000.0,-3.504754107997775,-21.14297811812722,-2.6201990378759645,-1.3128896631458962,0.23560795524611272,-3.019467365699906,0.8963625443158172,-13.033427331400413,-6.012883770778176
128,6.45,-14.0,-12.6,6.83,-2.1,0.772,-2.77,-12.0,-3.25,4.82,,,,,135,6450000000.0,-7.505306107626929,-15.940740711544667,1.0035319139276844,-1.8257115216733342,0.4275321480209216,-2.8494398935443006,-4.354116344975153,-6.73572538401442,-1.5011670093420948
129,6.5,-4.09,-3.61,3.83,-0.7390000000000001,-0.244,-1.48,-3.14,6.07,2.52,,,,,135,6500000000.0,-6.203468188975725,-8.431948917443298,2.08735667285129,-1.117692007555365,0.18725404608742746,-1.9160818101344474,-3.8598148188097228,1.5074638417930322,0.17358244859797778
130,6.55,-7.31,-0.285,3.25,0.32,-0.0886,0.12,-6.79,9.45,2.14,,,,,135,6550000000.0,-6.62525323964389,-3.4708728462058884,2.533178673808554,-0.18099998555341013,0.08855186620682265,-0.5283659644835745,-5.052777189586429,6.620163362644124,0.9925628371151447
131,6.6,-4.92,3.56,3.6,0.9990000000000001,0.462,2.25,-3.94,13.2,2.12,,,,,135,6600000000.0,-5.975249035577347,0.8105698253390052,2.9422571630439887,0.5877993012063139,0.22217378086187498,1.3652625035962225,-4.599733719236067,10.855677911862431,1.4621216965985981
132,6.65,1.86,-0.263,0.19399999999999998,1.32,-0.0501,2.32,4.08,9.08,-1.78,,,,,135,6650000000.0,-2.9886280858017895,0.1568205899258137,1.8884227871763881,1.0648462639797005,0.12475264192147965,2.01597518847326,-1.0659653329694443,9.712654067033387,0.11183171382009505
133,6.7,-12.7,-14.3,2.57,1.8,-0.9990000000000001,2.79,-9.46,-5.41,-0.114,,,,,135,6700000000.0,-6.690384859032718,-8.646645386896296,2.1497773057726164,1.5438171385601087,-0.27733258159379554,2.543521006629501,-4.48341749159659,-0.021967940223381888,0.017776544929822072
134,6.75,-5.2,-47.2,0.44299999999999995,1.8,1.11,4.41,0.0524,-39.6,-2.97,,,,,135,6750000000.0,-6.122283553697067,-32.1236710410676,1.4953041230899922,1.7107266002196226,0.2190630749871127,3.8156419270394517,-2.636756163215521,-25.498790277018095,-1.226582918154302
135,6.8,-4.68,-15.4,-2.59,0.306,-0.507,2.38,1.61,-8.98,-6.54,,,,,135,6800000000.0,-5.572517392819196,-21.9398087237863,-0.0712282586649271,0.7955123509153283,-0.04072651860529264,2.8371631229314493,-0.9077799824190274,-14.865459333269389,-3.439533122729011
136,6.85,1.75,-9.35,-2.31,-0.493,-1.27,0.39799999999999996,8.34,-3.52,-6.64,,,,,135,6850000000.0,-2.7813382342169843,-14.273258029282225,-0.9296976177470339,-0.043985427249389475,-0.4805676996243626,1.1747223993890665,2.8572564148447404,-7.562259847347428,-4.772474519401406
137,6.9,9.31,-3.54,-6.82,-1.01,0.293,-2.38,15.5,2.65,-11.2,,,,,135,6900000000.0,1.8276084762787592,-7.737251693541639,-3.1883666433285045,-0.673367891815244,-0.20378068144826417,-1.2480411365743518,8.004479755416401,-0.988513536376324,-7.449432358045241
138,6.95,0.33299999999999996,4.44,6.29,-0.0761,0.642,-3.63,5.68,11.8,2.69,,,,,135,6950000000.0,1.2578972972555418,-0.32192690633538756,0.4461653468835287,-0.2842330355261416,0.09884456331045338,-2.87149369392123,7.058117341692093,7.2435962422601445,-3.226526673605629
139,7.0,-15.5,3.96,-4.05,0.21899999999999997,-3.57,1.37,-11.4,11.8,-8.34,,,,,135,7000000000.0,-5.129836752234742,2.285548052572252,-1.2779141449172589,0.04363577534448332,-1.213889295998729,0.01934693603610027,-0.4567112080393052,10.176604588659242,-5.356203694689608
140,7.05,-5.41,-6.5,3.42,0.0938,4.26,2.74,-0.156,0.78,-0.521,,,,,135,7050000000.0,-5.236628631354812,-3.0644022955720622,0.5235269931507653,0.07631901334286834,0.7447001531260122,1.8736404947707999,-0.33428305612758624,4.127904762672648,-3.3424214419280687
141,7.1,3.07,-4.13,-7.72,0.105,-0.66,0.23199999999999998,9.26,2.52,-11.4,,,,,135,7100000000.0,-2.0703283982558456,-3.713296978968636,-2.637498851729381,0.0950053858806838,0.24209027436295893,0.7547608267823025,3.571824706640158,3.092878413295715,-6.698269313014092
142,7.15,4.32,-37.3,0.804,-1.44,0.83,-0.21,10.6,-30.7,-2.73,,,,,135,7150000000.0,0.36552131901004836,-24.16588438313052,-1.3178371141426641,-0.9050887593740511,0.4524477811685363,0.09721658048026915,6.433196499199257,-18.65997708274371,-5.045550869569561
143,7.2,-0.883,-13.7,-3.34,-0.321,-1.62,-4.16,4.85,-6.4,-6.4,,,,,135,7200000000.0,-0.11038697085767996,-17.792694858181548,-2.093246601057401,-0.5245404418365748,-0.2890860676510602,-2.8043400631321673,5.788631780364365,-10.768092333878798,-5.609656541430955
144,7.25,-3.28,-23.2,-5.83,-1.85,1.1,-2.41,1.13,-14.9,-8.74,,,,,135,7250000000.0,-1.318572253776302,-21.085468164362773,-3.526125287483513,-1.3881102576264253,0.2079369998328084,-2.5355729472569846,3.891969232551585,-13.427847414744024,-6.91339265579084
145,7.3,-12.3,-19.2,0.10099999999999999,-1.77,0.304,-3.41,-8.99,-10.2,-1.97,,,,,135,7300000000.0,-5.5044459287762075,-19.937314751473966,-2.135284074880423,-1.6369208909188857,0.24230889546168596,-3.131549195178126,-1.3526496337255591,-11.350045693291484,-4.854551492817238
146,7.35,-9.23,-7.21,6.38,-0.9420000000000001,0.11599999999999999,-2.08,-7.22,2.32,5.24,,,,,135,7350000000.0,-6.924543286324649,-12.187029695373191,1.1299486472761826,-1.1841626641108067,0.19711483822050455,-2.4148532445717037,-3.7414160806010366,-2.5504839398382284,-0.6503380646415531
147,7.4,-6.39,-0.6679999999999999,1.76,-0.43200000000000005,-0.519,-0.8340000000000001,-5.22,9.03,0.951,,,,,135,7400000000.0,-6.720787341096599,-5.172528533679423,1.371545312363777,-0.6941100269488367,-0.0591152058796067,-1.3374038508281918,-4.343389895045077,4.9040033382396295,0.016592709609082656
148,7.45,-6.28,1.41,1.06,0.698,-0.18600000000000003,1.48,-5.09,11.1,0.17,,,,,135,7450000000.0,-6.552769187198006,-1.1641046503744343,1.2520815208348304,0.21288421700563664,-0.1045153233879749,0.5828313673985996,-4.647356333820826,8.892436156655892,0.08048430626315936
149,7.5,1.08,2.55,2.5,1.09,-0.308,2.31,3.26,12.0,1.21,,,,,135,7500000000.0,-3.6433289968060034,1.0975954841313404,1.730602749505505,0.7843469415238907,-0.17732332135552967,1.7600037144987049,-1.4280448955692568,10.892809870787946,0.5509089029747823
150,7.55,-0.326,-2.22,-0.642,1.42,-0.27399999999999997,1.78,2.74,6.89,-2.58,,,,,135,7550000000.0,-2.3788376958748625,-0.9226508524870325,0.820815122227513,1.198490658168647,-0.2119147942795772,1.7736324019315344,0.2688856698266038,8.316156157809157,-0.7530627731662433
151,7.6,-29.8,-52.0,-4.67,1.96,0.8140000000000001,5.97,-25.8,-43.4,-7.44,,,,,135,7600000000.0,-12.831168566878066,-32.02614948670367,-1.284668271974506,1.6946329200060244,0.15516347852630702,4.633716656673707,-10.344504687386596,-24.974114820190056,-3.5380614113354545
152,7.65,-4.47,-21.5,-6.83,1.54,-1.17,2.62,1.66,-14.6,-10.1,,,,,135,7650000000.0,-9.644078829962107,-25.61626170576762,-3.4110563010612585,1.5938857097552246,-0.3189876915980398,3.2612439683462133,-5.45712671195546,-18.29618095406481,-6.2710003218217665
153,7.7,-1.48,-11.0,-1.54,0.195,-1.33,2.12,5.26,-4.93,-5.33,,,,,135,7700000000.0,-6.532115361157698,-16.715704343447417,-2.6935894205732476,0.6824769446282836,-0.6807337800465592,2.4834154490586116,-1.093877108560954,-9.692220189269042,-5.879089239670858
154,7.75,1.93,-6.68,-2.43,-0.624,-0.596,-0.45299999999999996,8.74,-0.982,-6.6,,,,,135,7750000000.0,-3.3065470736026565,-10.604472517817584,-2.5925146279818727,-0.1687252201465571,-0.6504155472781262,0.48206646311379187,2.90977607497949,-4.0853537168106415,-6.179336592812288
155,7.8,10.3,-1.35,-5.69,-1.07,1.19,-2.95,16.7,4.91,-9.74,,,,,135,7800000000.0,1.879963126017782,-4.968971118842083,-3.7802625122670133,-0.7559281431754187,0.008095840025421963,-1.8570994107373382,8.52417186711905,1.7050563041244438,-7.662293839354444
156,7.85,-1.4,6.34,9.55,0.568,-0.92,-3.43,3.98,13.8,6.19,,,,,135,7850000000.0,0.6297148629333564,1.9176151736347746,1.3313002970365355,0.10664391432240328,-0.3239822453059594,-2.9291286170317026,6.6741092408950635,9.49070739428567,-1.8930428356885338
157,7.9,-15.0,-8.82,-1.39,-0.6779999999999999,0.374,3.77,-10.7,-1.08,-5.61,,,,,135,7900000000.0,-5.327981382772506,-4.621044231561089,0.28780268351803273,-0.4045710534452992,-0.07424014138972462,1.6367423972927568,-0.3993886136075133,2.6862244091823966,-3.441093994664265
158,7.95,-0.182,-5.68,7.44,1.07,2.29,2.85,6.07,1.14,4.18,,,,,135,7950000000.0,-3.36644886247426,-5.265894140724197,3.0303522427238727,0.55614862113152,0.7716986924799409,2.4636525251805486,2.2344850175770783,1.6909023984960636,-0.26703462834783576
159,8.0,1.25,-11.3,-7.27,-0.617,-0.245,-0.0311,8.04,-5.09,-10.7,,,,,135,8000000000.0,-1.6067622464578875,-8.940356743377954,-0.9193746698059027,-0.20818681270446393,0.40791799644682863,0.7633241805332385,4.598076576952028,-2.6740406582111764,-4.612191848561104
160,8.05,8.45,-23.6,-2.78,-0.336,1.19,-4.35,14.8,-16.9,-5.92,,,,,135,8050000000.0,2.2266495635956627,-17.867331488262334,-1.632841711343168,-0.2914602736193582,0.6877514979485582,-2.7217228499747903,8.751572136669761,-11.831450062202798,-5.156872317137923
161,8.1,-4.59,-23.3,-7.71,-1.23,-1.33,-2.51,-0.0229,-15.2,-10.8,,,,,135,8100000000.0,-0.3717041989999008,-21.175548862991256,-3.963161614381866,-0.9029422124854837,-0.0342117168602859,-2.577420609291094,5.179232993669406,-13.999823330929726,-7.507141622109435
162,8.15,-6.77,-21.1,-1.03,-1.69,1.25,-2.57,-3.14,-12.3,-3.38,,,,,135,8150000000.0,-2.8105908385317058,-21.129543693752037,-2.8384245929113314,-1.4157299332286954,0.42528669056141033,-2.5723629590041694,1.792234713413738,-12.90562810285676,-5.788255532688882
163,8.2,-14.4,-13.2,6.14,-2.0,0.682,-2.74,-12.0,-3.8,4.66,,,,,135,8200000000.0,-7.228213155001116,-16.30085619337285,0.6044018220894554,-1.7963963834043208,0.5171401963012958,-2.686617990649152,-3.822979417709059,-7.0442330933817825,-1.4367301977326417
164,8.25,-5.04,-3.45,3.2,-0.5760000000000001,0.0977,-1.28,-3.58,6.21,2.33,,,,,135,8250000000.0,-6.394115435372231,-8.475340710539328,1.5996982879913726,-1.0012778330330567,0.36706205905463224,-1.7279206991356935,-3.7240555002548557,1.487665491445588,0.1320505180029694
165,8.3,-7.76,1.28,2.59,0.23199999999999998,0.179,0.0819,-6.68,11.0,1.89,,,,,135,8300000000.0,-6.914760039430712,-2.5348361494980285,1.9794349124784545,-0.19776671901338572,0.29977236441773053,-0.4944158106880745,-4.927505173695049,7.610861946990283,0.8642073583500578
166,8.35,-3.63,3.92,3.08,0.789,0.16899999999999998,2.13,-2.03,13.5,2.1,,,,,135,8350000000.0,-5.66268333523139,1.395829656066558,2.401452640557054,0.44513627366202047,0.2529812531816638,1.2942861714966116,-3.7478477436222555,11.401766190314941,1.3788944882358942
167,8.4,1.04,-0.33299999999999996,-0.21100000000000002,1.11,-0.321,1.65,3.67,9.01,-1.61,,,,,135,8400000000.0,-3.1077710117892487,0.3430606326694341,1.399693257947438,0.8783115027126633,0.047607425209302445,1.5367271586115876,-0.7278292501433019,9.862159604321858,0.13406942623660445
168,8.45,-11.1,-10.4,-0.132,1.63,-1.1,2.04,-7.76,-1.4,-2.15,,,,,135,8450000000.0,-6.154229333526615,-6.198914732682258,0.8123570243437351,1.36805521261431,-0.3630131821727225,1.879738741538696,-3.5908276454563355,2.6125811162064556,-0.817207703626704
169,8.5,-2.84,-52.9,1.68,1.79,1.32,6.11,2.36,-45.1,-1.15,,,,,135,8500000000.0,-4.890919519990632,-34.6374929582978,1.1450594921658552,1.6429626894777738,0.23917872343490443,4.762923858857472,-1.1680751624895942,-28.10054172126894,-0.9558101738492701
170,8.55,-7.86,-19.2,-3.25,0.7140000000000001,0.395,2.69,-1.41,-12.6,-6.67,,,,,135,8550000000.0,-6.0226663611527,-25.236848143561208,-0.540250328455492,1.0377204315854702,0.2949324846052285,3.350097912557174,-1.266569685462644,-18.122669338256365,-3.335675636995978
171,8.6,-1.04,-11.4,-2.01,-0.179,-2.16,1.62,6.11,-5.92,-5.84,,,,,135,8600000000.0,-4.123385845734446,-16.810913626927864,-1.1038339485752622,0.2449968678770731,-0.5834566405157025,2.1709290440085254,1.7366433505256094,-10.267674215257102,-4.378685324269231
172,8.65,3.98,-4.78,-2.63,-0.517,-0.8420000000000001,-1.28,5.9,-5.91,-6.18,,,,,135,8650000000.0,-1.0345571647477767,-9.484701415776417,-1.6890507884879167,-0.2514630171633849,-0.6759649581696124,-0.18109279487670626,3.431665231483351,-7.462590329738717,-5.1289029841103835
173,8.7,5.11,1.45,-2.8,-1.13,2.02,-3.91,11.4,7.89,-6.76,,,,,135,8700000000.0,1.307610064047768,-2.8260263335583087,-2.115050377196184,-0.8238516637995681,0.2886669477034074,-2.7225740436557024,6.675802587131859,2.420044242080726,-5.808227974377964
174,8.75,-5.36,8.75,9.48,0.805,-1.75,-2.18,-0.20199999999999999,16.3,5.97,,,,,135,8750000000.0,-1.2339331816356682,4.223182861218751,2.331135512812003,0.23738562817808395,-0.44077992109110953,-2.352776276972636,3.875651986426883,11.354727011273647,-0.9027911666193207
175,8.8,-11.7,-10.2,3.95,-0.8540000000000001,1.54,3.47,-6.97,-2.66,-0.225,,,,,135,8800000000.0,-5.2233627010832855,-4.559799223400576,2.9518980539648703,-0.4736791789223981,0.2679546198855052,1.6158063778907223,-0.5399237620104662,2.3332899277435875,-0.6205023679641979
176,8.85,-0.5670000000000001,-4.98,16.3,1.89,1.51,2.0,5.8,1.61,12.8,,,,,135,8850000000.0,-3.448461815572666,-4.815680060845044,8.070301126919146,1.0663164637110256,0.7123656638224747,1.8776581243420027,2.0412410245107786,1.8677000948466431,4.968914694261126
177,8.9,0.62,-17.5,-7.18,-0.556,-0.0593,0.745,7.33,-11.4,-10.9,,,,,135,8900000000.0,-1.897655551644805,-12.539783493935662,2.2224890522158027,0.009337025183867143,0.43625920900724297,1.1056814707102602,4.194446384189021,-6.672867079817092,-1.6402253160296647
178,8.95,8.04,-15.7,-1.2,-0.125,0.529,-4.77,14.5,-9.1,-4.56,,,,,135,8950000000.0,1.8903555197723108,-14.464193931991169,0.9101167165713162,-0.07818688098932484,0.46944239677467026,-2.8989593175870154,8.39013268847339,-8.235240019545897,-2.856263094438339
179,9.0,-5.36,-28.1,-6.82,-1.69,-1.04,-1.32,-0.667,-20.1,-10.2,,,,,135,9000000000.0,-0.8733172045496544,-22.767704085834964,-2.0540392702841777,-1.1283231707581567,-0.07064484178440122,-1.8228007939730784,4.70271433369365,-15.872719392110543,-5.914807818438781
180,9.05,-6.51,-16.5,-1.33,-0.813,0.122,-3.1,-2.47,-8.03,-4.02,,,,,135,9050000000.0,-3.021894167520255,-18.950992202247832,-1.7764024322448213,-0.9228823138618647,-0.0017153985581041947,-2.693291084405553,1.7824966980015056,-10.824272748914145,-5.125651733537593
181,9.1,-13.1,-13.2,4.96,-1.81,1.58,-2.96,-10.6,-3.91,2.99,,,,,135,9100000000.0,-6.863441891277198,-15.448931366554731,0.8067082763236653,-1.5008614674995449,0.5642315686041847,-2.875069753577526,-3.2587728296705665,-6.373477854644156,-1.7456171837572456
182,9.15,-4.66,-4.0,1.69,-0.289,0.275,-1.26,-3.11,5.57,0.221,,,,,135,9150000000.0,-6.023539275811201,-8.47711651973404,1.1454113850012462,-0.7113036457844667,0.4607428364379629,-1.7742996892794847,-3.198203103160603,1.314672961728248,-0.9265536950134987
183,9.2,-8.57,2.09,2.76,0.0968,0.109,-0.0506,-7.45,11.7,1.43,,,,,135,9200000000.0,-6.9941927913255055,-2.042281958913361,1.7645342974211466,-0.18480406363918733,0.3348872066782007,-0.5994916026976183,-4.929231427639447,7.99982438121665,0.05491187083777094
184,9.25,-4.53,6.37,2.37,0.45899999999999996,-0.665,2.47,-2.86,15.9,0.841,,,,,135,9250000000.0,-6.054897927641363,3.080368320069141,1.9967034190350836,0.2346502575468623,-0.0228782481122361,1.4925570366390735,-4.086787952485743,13.085255824759544,0.3823045669711607
185,9.3,1.62,-0.395,1.22,1.01,-0.624,1.38,4.21,8.87,-0.691,,,,,135,9300000000.0,-3.1293992221895075,0.9640463900059792,1.6988722169942112,0.7398098528431087,-0.23796310518715227,1.4158424422995939,-0.7089277191023151,10.371848279754227,-0.06470900409787744
186,9.35,-14.2,-14.9,0.8640000000000001,1.25,-0.715,2.0,-11.0,-6.0,-1.59,,,,,135,9350000000.0,-7.349263508501332,-8.696347925576525,1.3787358659386242,1.072211396714793,-0.40864966607056835,1.8139819945565496,-4.898718256809888,-0.16689415693719134,-0.699967457842946
187,9.4,-2.98,-45.7,2.72,2.04,2.43,5.64,2.4,-38.1,-0.325,,,,,135,9400000000.0,-5.683798404643476,-31.229683830773666,1.8930510121675077,1.702749667565377,0.6070356873159792,4.421650118296178,-1.9272007847085595,-24.584859031270227,-0.5437997164256063
188,9.45,-9.88,-14.0,-2.33,0.284,-0.479,2.46,-3.31,-7.59,-5.79,,,,,135,9450000000.0,-7.283296245258136,-20.73768578383612,0.2736988218506018,0.7783990516167508,0.21844581295253895,3.084664104334549,-2.4901779623919738,-13.645077681608209,-2.7287552376803332
189,9.5,-0.728,-9.62,-2.26,-0.622,-1.31,0.782,6.31,-3.96,-6.09,,,,,135,9500000000.0,-4.784564549867447,-13.967582520371304,-0.697861972377676,-0.13399567496475195,-0.32844095140934515,1.5152559175799378,1.0926267357803172,-7.410684531873468,-4.1286580800313875
190,9.55,3.54,-4.42,-3.39,-0.486,-1.13,-1.52,10.3,1.48,-7.42,,,,,135,9550000000.0,-1.6114275365857225,-8.153592122165794,-1.7301771984408112,-0.36333523045943983,-0.6152434305140169,-0.5534589496450055,4.841212415264378,-1.6876511292143013,-5.49944751441096
191,9.6,7.0,1.44,-4.04,-1.38,1.74,-3.06,13.0,8.15,-7.93,,,,,135,9600000000.0,1.6710552185255345,-2.311584143501909,-2.6158914860430977,-1.0257175584864378,0.2274763450379621,-2.26182186571996,8.162888727376483,4.644955039681934,-6.51173230141341
192,9.65,-6.39,9.26,13.7,1.04,-4.94,-1.76,-1.41,16.9,10.1,,,,,135,9650000000.0,-1.4016379199969977,4.7349201236382985,3.6405270860347114,0.3201486774455369,-1.6214767100175744,-1.9197991800699394,4.265491315924088,12.533664741833714,0.4067792583976262
193,9.7,-10.5,-7.16,1.9,0.303,5.73,3.27,-5.85,0.255,-2.57,,,,,135,9700000000.0,-4.869729185990402,-2.508479019985762,2.973112358984646,0.3089758904762857,1.0089243405768795,1.6173703506927992,0.1471848612292268,4.629750472670644,-0.8329999772501011
194,9.75,4.24,-8.1,-5.53,1.1,0.505,0.794,10.7,-1.68,-9.15,,,,,135,9750000000.0,-1.3973051217565247,-5.913430136924802,-0.28745308809960646,0.8243477467062335,0.8286172844216246,1.0561924857920941,4.443538342054561,0.5680933291262464,-4.296892592162698
195,9.8,5.95,-38.1,-5.77,-0.297,0.253,-0.304,12.4,-31.8,-9.56,,,,,135,9800000000.0,1.4033224896539553,-25.513407446335567,-2.389765954846476,0.09376186360403183,0.6226580753153174,0.12913707711688582,7.682841814025393,-20.26761103932089,-6.488889841329401
196,9.85,-1.02,-12.8,-4.89,-0.42,-0.996,-4.17,4.71,-5.68,-8.36,,,,,135,9850000000.0,0.4796063942726524,-17.771591322151085,-3.3484944482028802,-0.2409667336400642,0.043492822204818316,-2.8009911370730265,6.47251270519217,-10.877402023687246,-7.268176092455925
197,9.9,-2.15,-23.3,-5.42,-1.54,1.42,-2.36,2.2,-15.2,-8.8,,,,,135,9900000000.0,-0.5227405358153773,-21.13810957144734,-4.142824714884631,-1.0873191240279985,0.5360150659889402,-2.500428295223964,4.733050323036666,-13.659906719626314,-7.906155461246284
198,9.95,-13.3,-17.5,-0.42100000000000004,-1.83,-0.0293,-3.7,-10.1,-8.57,-2.95,,,,,135,9950000000.0,-5.393144925408713,-18.92268653216942,-2.7156704869662374,-1.5711941761392638,0.33374205341530766,-3.3180107336067266,-1.3059098349281797,-10.383476456866704,-5.841998809105802
199,10.0,-9.32,-6.75,5.79,-0.805,0.26899999999999996,-1.96,-7.38,2.72,4.13,,,,,135,10000000000.0,-6.889973762168962,-11.51014173007657,0.5458757933322014,-1.071999657985733,0.31057696864357476,-2.3924423434981827,-3.7788461124745756,-1.9486216166557764,-1.6888264011443805
200,10.1,-4.7,-0.479,1.89,-0.716,-0.12,-1.19,-3.6,9.18,0.6,,,,,135,10100000000.0,-6.05520488046973,-4.792739449123385,1.0612876337319455,-0.8400570581998948,0.15651403062940752,-1.5729034585472634,-3.7060326943128716,5.21499718223901,-0.7355680998002317
201,10.1,-7.07,0.943,0.539,0.282,-0.732,0.8029999999999999,-6.24,10.7,-0.584,,,,,135,10100000000.0,-6.442022052088802,-1.2999668664033361,0.8610135481414588,-0.10900903173421361,-0.161401445158904,0.046421869167536434,-4.7376833320183565,8.74575491728882,-0.6724424927388402
202,10.2,0.716,3.96,3.19,0.779,-0.26,1.94,2.22,13.6,1.84,,,,,135,10200000000.0,-3.7135448148167827,1.9030845088591821,1.7540762797931806,0.4695508827110464,-0.19668057705485997,1.33701267299581,-1.905010981359847,11.870487189254886,0.3739482114780226
203,10.2,-0.5770000000000001,-3.23,0.802,1.2,-0.293,1.53,1.69,6.13,-1.05,,,,,135,10200000000.0,-2.517964389907103,-1.2227019751413533,1.3889973700580343,0.9454566435528614,-0.23114423026118752,1.468545468490784,-0.4413789300762505,8.17527124852124,-0.21910261710494516
204,10.3,-25.9,-48.1,-3.11,2.5,0.522,5.95,-22.6,-39.3,-5.82,,,,,135,10300000000.0,-11.430671033640868,-29.768582917805325,-0.3361679632958321,1.9582802242865673,0.03833515278184102,4.522934136711983,-9.462788939801111,-22.385093055521487,-2.55178369356148
205,10.3,-6.13,-22.9,-7.03,1.81,-0.45299999999999996,3.03,-0.395,-15.7,-10.5,,,,,135,10300000000.0,-9.410174337956878,-25.585966262210796,-2.902954884553208,1.8616719405450421,-0.13746742043290427,3.5054070461263596,-5.7710321222459955,-18.081823523352416,-5.862084156837984
206,10.4,-3.22,-13.9,-1.09,0.187,-1.32,2.79,3.41,-7.76,-4.91,,,,,135,10400000000.0,-7.050618929142594,-18.4698090299415,-2.2077673403404665,0.7705816098554339,-0.5605844610291917,3.0178128132702318,-2.0331707194852786,-11.437550053509332,-5.465556809184182
207,10.4,1.85,-7.74,-2.95,-0.544,-1.43,-0.0042,8.59,-2.14,-7.34,,,,,135,10400000000.0,-3.6579029016473954,-11.935902842614105,-2.4923805686941782,-0.08590095634744288,-0.8716663692520973,0.9581239288757244,2.2918266748951233,-5.452612829176941,-6.246231419540277
208,10.5,13.1,-1.41,-7.88,-0.99,1.01,-3.11,19.3,4.68,-12.4,,,,,135,10500000000.0,2.7298334295188744,-5.52616523501398,-4.558293020255564,-0.6749439293796832,-0.19839522226235884,-1.8145543947223164,9.216341294905373,1.0698636306353864,-8.809173963455601
209,10.5,0.0023899999999999998,5.65,7.87,0.179,-0.615,-3.7,5.23,13.1,4.15,,,,,135,10500000000.0,1.690193255485361,1.2795490178022053,0.2074044919312925,-0.11857826102768265,-0.3474588336307797,-3.0996023722405113,7.593387485849368,8.813797640334268,-3.411892581486639
210,10.6,-17.7,-1.13,-2.42,-0.43799999999999994,-2.7,2.23,-13.9,6.62,-7.05,,,,,135,10600000000.0,-5.700913179926414,-0.18774334734249387,-0.8000882916062746,-0.3266894478714313,-1.189211737033726,0.5328517179513974,-1.1571865510633863,7.401625410253311,-4.927104150979086
211,10.6,-2.43,-6.4,4.65,0.25,3.45,2.45,3.03,0.677,0.616,,,,,135,10600000000.0,-4.454114569378954,-3.9706906322449065,1.2897781819177954,0.049038040938783944,0.47072517117433565,1.8395070330252492,0.5475371154834985,3.072908571650495,-2.6184930714010655
212,10.7,-2.84,-8.27,-7.08,-0.0687,-0.251,0.504,3.28,-1.69,-11.0,,,,,135,10700000000.0,-3.8388503175475224,-6.588750878478501,-1.9196594293301545,-0.02767121542876648,0.21248771976274877,0.9292762880350828,1.6600010751006267,0.006970845411097493,-6.109251903193421
213,10.7,12.7,-24.2,-3.98,-0.0174,1.93,-1.39,18.9,-17.6,-7.82,,,,,135,10700000000.0,2.465387870602708,-17.313103176915096,-2.7097084004324965,-0.02097926380297634,0.8270235653973295,-0.6514541245235911,8.678898697793556,-11.326834090943912,-6.821750225750586
214,10.8,-2.52,-20.7,-3.27,-0.9670000000000001,-1.42,-3.7,2.74,-13.2,-6.79,,,,,135,10800000000.0,0.565069998721266,-19.37555093897304,-2.924555299479293,-0.6373352587881943,0.023025504591680956,-2.729226966596839,6.261002792558324,-12.532611881533345,-6.808526766645164
215,10.8,-4.54,-23.3,-2.74,-1.8,1.98,-2.37,-0.29600000000000004,-14.9,-5.66,,,,,135,10800000000.0,-1.3808680049405049,-21.765339647997344,-2.8537865549054797,-1.3948401641406487,0.7232423465371178,-2.484391464055422,3.5914589858395387,-14.056525930922943,-6.33018432524194
216,10.9,-13.6,-18.0,1.92,-1.88,0.20199999999999999,-3.66,-10.5,-8.93,-0.21899999999999997,,,,,135,10900000000.0,-6.038526812144651,-19.472439985945293,-1.0232517681642819,-1.7109338358390458,0.5367388115372121,-3.2856415448479592,-2.1455779243914326,-10.756523863858913,-3.7849772581816445
217,10.9,-8.67,-5.38,4.01,-0.746,-0.0941,-1.91,-6.88,4.17,2.68,,,,,135,10900000000.0,-7.0415853147458485,-10.890863384735574,0.9067764909307203,-1.0822554867002983,0.3110210231582874,-2.348056616259105,-4.073096918714519,-1.148152921714999,-1.0924212671624924
218,11.0,-7.02,0.524,2.35,-0.433,-0.669,-0.5579999999999999,-5.96,10.2,1.32,,,,,135,11000000000.0,-7.033357470323508,-3.939794206685642,1.4601884747270488,-0.659249421405333,-0.039636198741653306,-1.1280221938396315,-4.841309270117748,6.156780322256606,-0.08768773902873228
219,11.0,-4.61,2.87,1.6,0.642,-0.15,1.78,-3.35,12.5,0.474,,,,,135,11000000000.0,-6.109628084718982,0.20702282243857972,1.5137999849192252,0.18854688659121166,-0.07912500965051374,0.8539750046140286,-4.234154476355143,10.239982002408869,0.14624590519094435
220,11.1,3.81,1.68,2.4,1.24,-0.545,1.79,6.05,11.1,0.867,,,,,135,11100000000.0,-2.328488686048265,1.1039907106262787,1.853618308615701,0.8735946934206142,-0.24581779167500872,1.4919339806880827,-0.047180297534556104,10.79358548277775,0.4464280427044893
221,11.1,-1.13,-3.5,-0.8240000000000001,1.6,0.687,1.32,1.77,5.61,-3.02,,,,,135,11100000000.0,-1.871651716441569,-1.699604643673411,0.8268707888070415,1.3468657956835717,0.08794982103688526,1.374750360784005,0.6926458865781914,7.45685343145229,-0.9972818225196125
222,11.2,-26.5,-64.6,0.113,2.0,1.56,7.88,-22.5,-56.2,-2.84,,,,,135,11200000000.0,-11.259424903197889,-40.00273403957862,0.553133093904244,1.772398940688472,0.6146579001683989,5.808480935864494,-8.749745112886393,-33.519777870116634,-1.7647433909138541
223,11.2,-7.69,-19.4,-7.67,0.932,-1.37,2.18,-1.51,-12.7,-11.4,,,,,135,11200000000.0,-9.898840324995426,-27.45672034424166,-2.6000727074540384,1.2248581598810633,-0.09546421958994344,3.3354465129490705,-5.802237333192023,-20.117853125692697,-5.777668042729024
224,11.3,-2.27,-13.4,-1.99,-0.23399999999999999,-1.38,2.02,4.48,-7.54,-5.98,,,,,135,11300000000.0,-6.9908977377165975,-18.896894879708576,-2.366136964166453,0.27437586134033964,-0.5550785771248563,2.438888236207525,-1.616043748199778,-12.021347915334099,-5.861935960108948
225,11.3,1.04,-6.79,-2.56,-0.643,-0.415,-0.332,7.84,-1.15,-6.82,,,,,135,11300000000.0,-3.9296999171573668,-11.52441381271765,-2.4404747933343893,-0.3233172860841478,-0.5049576460571289,0.5503563116534345,2.2337827983699303,-5.023339265796859,-6.260953837966847
226,11.4,11.3,-1.28,-5.65,-1.05,0.555,-2.53,17.6,4.86,-9.84,,,,,135,11400000000.0,1.8755196886843062,-5.286088659980028,-3.67118498524204,-0.7967690795114197,-0.12569864445336354,-1.5490972606851874,8.489810476800667,1.3386772007587124,-7.751567356345903
227,11.4,-0.268,5.83,13.0,-0.0602,-0.256,-3.5,5.26,13.2,9.71,,,,,135,11400000000.0,1.0584581265486632,1.483041920426106,2.7214729132698157,-0.31687604135526004,-0.17232123024642115,-2.878758296288918,7.174862136534918,8.973943652875537,-0.4791137130423335
228,11.5,-16.6,-3.17,-4.16,-0.87,-1.63,2.46,-12.3,4.54,-8.4,,,,,135,11500000000.0,-5.672549628920363,-1.3504231635186756,0.08273420118006936,-0.6772500321418828,-0.6938871545012595,0.7599361361650865,-0.753912598961846,6.1197643482539466,-3.778031516934624
229,11.5,-3.31,-5.53,2.67,0.7829999999999999,3.45,2.93,2.7,1.44,-0.7120000000000001,,,,,135,11500000000.0,-4.771998753945981,-3.895572258383243,1.0748355813002168,0.2741391024612032,0.7888197426094605,2.238969096204309,0.6522742521251412,3.107347565194916,-2.5010801710500083
230,11.6,1.47,-10.8,-6.93,-0.392,-1.7,0.331,8.35,-4.63,-10.1,,,,,135,11600000000.0,-2.3926890199770825,-8.100016466005211,-1.9946627388860596,-0.15986704978918503,-0.10169442649909932,0.9385699974091857,3.7862392285890873,-1.873269952477203,-5.665904594937013
231,11.6,9.85,-27.0,-3.01,-0.562,2.17,-3.7,16.3,-20.3,-6.27,,,,,135,11600000000.0,2.273949196009776,-19.609141779822473,-2.3839994121155934,-0.4218666326311399,0.7111310542822673,-2.222902753428651,8.880949657545838,-13.734762348605019,-5.917500318934149
232,11.7,-6.46,-22.4,-6.75,-0.902,-1.43,-3.06,-1.54,-14.5,-9.76,,,,,135,11700000000.0,-1.0552360782477206,-21.30863175773507,-4.058166435500791,-0.734685444981059,-0.05497804790498917,-2.7934363291230495,4.6382823321662014,-14.227354411095805,-7.517837896779878
233,11.7,-7.4,-21.8,-0.833,-1.56,1.76,-2.56,-2.5,-13.8,-9.07,,,,,135,11700000000.0,-3.4737176114155934,-21.607849473164272,-2.8214585662799507,-1.2723983247312372,0.5944316305665047,-2.634334975191835,1.732082962999372,-13.952261704355632,-8.16428758071514
234,11.8,-15.9,-13.5,5.35,-1.61,0.8059999999999999,-2.73,-13.1,-4.18,3.88,,,,,135,11800000000.0,-8.210337204997561,-16.67058297002825,0.3119322864208609,-1.4923542048151714,0.670132019302953,-2.6995366271016725,-4.30648335496317,-7.661747085881035,-3.14804121801696
235,11.8,-6.7,-2.22,2.88,-0.597,0.0171,-1.65,-4.87,7.36,1.92,,,,,135,11800000000.0,-7.6346305135310555,-7.870915518924541,1.296672069420051,-0.9090087194112032,0.4364733720728518,-1.9842124020263738,-4.535907088786814,2.007920149556514,-1.0372859991066323
236,11.9,-7.83,1.35,3.26,-0.34700000000000003,-0.853,-0.12300000000000001,-6.58,11.1,2.6,,,,,135,11900000000.0,-7.7091009444847085,-2.2558485904830032,2.0495209972518893,-0.5428460914348225,-0.02490768083988837,-0.7156808880931878,-5.36811587949151,7.8605942117977845,0.4775833436493586
237,11.9,-4.52,5.8,5.16,0.35700000000000004,-0.513,2.17,-2.85,15.4,4.41,,,,,135,11900000000.0,-6.493487287780943,2.649752145381851,3.2422512805060837,0.043425967105804486,-0.199549950212498,1.2510893984032954,-4.342918679788821,12.713794067406585,2.1153696937336006
238,12.0,1.69,-1.32,1.34,1.14,-1.03,1.73,4.36,8.04,0.18100000000000002,,,,,135,12000000000.0,-3.374125721709091,0.23237567373074786,2.5128225403974227,0.7578711573546417,-0.49668978873320924,1.5774966451661974,-0.7997109460234544,9.705220359728974,1.309736748506761
239,12.0,-14.7,-19.0,3.11,2.11,-0.5710000000000001,1.77,-11.4,-9.98,1.15,,,,,135,12000000000.0,-7.691294532689317,-11.479159487834163,2.7418134931524065,1.6388165900390335,-0.5232784065456151,1.708699590154697,-5.11539234100086,-2.966376567600882,1.2432090281829462
240,12.1,-4.72,-40.9,-0.0575,2.78,0.162,5.29,0.645,-33.3,-2.98,,,,,135,12100000000.0,-6.558703715294096,-29.394950644204012,1.6684012831072907,2.382325887338426,-0.2780818143223787,4.149577582213331,-2.7701714947053957,-22.492469835918076,-0.5156876005262898
241,12.1,-11.4,-18.0,-2.83,0.723,-0.18899999999999997,2.53,-4.97,-11.8,-6.68,,,,,135,12100000000.0,-8.404096972944872,-22.456007302109626,-0.0565354883859861,1.3012338804862027,-0.2462078224402822,3.0457351405318915,-3.6657846558448792,-15.60960715131355,-3.083021557829182
242,12.2,-1.25,-11.1,-3.26,-0.478,-1.66,1.08,5.66,-5.73,-7.7,,,,,135,12200000000.0,-5.6771158954967245,-15.540778699971487,-1.2849216330982598,0.1420188561180289,-0.7520708590000121,1.70596493418249,0.13100955586944396,-9.249993186949315,-5.005916538969212
243,12.2,6.68,-4.51,-5.04,-0.331,-0.45799999999999996,-0.917,13.4,0.8809999999999999,-9.68,,,,,135,12200000000.0,-0.9668609355524405,-8.823597623893871,-2.72482714425988,-0.1661646691999351,-0.6468506000398743,-0.08174810488781947,5.5331957899187785,-2.7285592098686022,-6.952595021301539
244,12.3,5.38,3.51,-1.93,-1.55,3.11,-3.85,11.7,9.79,-6.07,,,,,135,12300000000.0,1.4524199394452744,-1.31306618567781,-2.4200462686646094,-1.067767703157645,0.6973723164561229,-2.650045073000125,8.043878488758068,5.32977779246012,-6.58500888285151
245,12.3,-9.26,8.93,9.53,0.20800000000000002,-2.86,-1.39,-3.92,16.3,5.9,,,,,135,12300000000.0,-2.6309140163533487,4.92443849938997,2.162264828450724,-0.2365733770011672,-0.5754761121586681,-1.7912463118265585,3.1730405587610493,12.391432426841348,-1.3852094044288537
246,12.4,-12.1,-9.2,3.2,-0.111,3.77,2.88,-6.97,-1.96,-0.9129999999999999,,,,,135,12400000000.0,-6.240317052969639,-3.6766235168388484,2.5601901260025346,-0.15475920606613175,0.9793604603836213,1.3924974164192179,-0.9564819358493102,3.1532543200287275,-1.1885420024586228
247,12.4,6.56,-1.6,13.0,1.28,0.384,1.38,13.2,4.83,9.66,,,,,135,12400000000.0,-1.36112372294446,-2.4120658008212175,6.563392844288671,0.7800220089927916,0.7663370326553546,1.3839796499187196,4.807027603677185,4.232594278905704,3.329696018115988
248,12.5,1.43,-25.8,-4.66,-0.748,-1.13,0.513,8.02,-19.5,-8.34,,,,,135,12500000000.0,-0.2972100713634651,-16.65412353937635,2.2597209696010196,-0.21552227238667676,0.08781663542737916,0.7903530868176385,6.1151209582395145,-11.044342948101033,-1.5305391781612405
249,12.5,3.3,-13.2,-4.34,-0.35200000000000004,1.1,-4.01,9.63,-6.5,-7.69,,,,,135,12500000000.0,1.0739655924944354,-14.550738486803382,-0.27097852159198377,-0.3044408980825424,0.4499817277473932,-2.4813849821229588,7.5461290230816775,-8.119098402971966,-4.095852629050393
250,12.6,-5.38,-24.6,-8.65,-1.78,-0.337,-2.16,-0.384,-16.7,-11.7,,,,,135,12600000000.0,-1.3861411720448868,-20.670226064612798,-3.4839604088757667,-1.2658042579483784,0.1683950925228233,-2.262341272039562,4.317546164970171,-13.642721533411365,-7.26285399929453
251,12.6,-12.3,-17.5,0.441,-0.935,0.998,-2.58,-8.11,-8.85,-1.73,,,,,135,12600000000.0,-5.546259093070686,-18.73972020014306,-1.9789126708577878,-1.0502770748351253,0.4652325536687865,-2.4788453156453953,-0.7420639970452969,-10.557593151562338,-4.958511944696642
252,12.7,-11.3,-9.2,5.65,-1.32,0.299,-2.7,-8.5,0.0935,4.34,,,,,135,12700000000.0,-7.739455964346428,-12.930517391055469,0.9464360368219458,-1.226008289318919,0.40575357915840893,-2.6295759615688397,-3.90054213908058,-3.7013649780913234,-1.0858356464322307
253,12.7,-5.57,-1.8,1.29,-0.42200000000000004,0.00611,-1.11,-3.68,7.79,0.42100000000000004,,,,,135,12700000000.0,-6.912508144462858,-6.15260037437322,1.0781775201620871,-0.7021769273138377,0.2627587865025207,-1.593890846673341,-3.810753139201327,3.695755571691678,-0.45826355241997774
254,12.8,-8.03,1.71,2.55,0.506,-0.348,0.823,-6.34,11.3,1.76,,,,,135,12800000000.0,-7.3384708379508234,-1.3646780316155267,1.6425559554350766,0.0849803164759314,0.04422575068688189,0.053369952009250765,-4.840482103779913,8.590693155788067,0.4656064771019156
255,12.8,1.09,5.7,4.28,0.981,-0.088,2.27,3.58,15.1,3.15,,,,,135,12800000000.0,-4.125727054233684,2.937350191117946,2.653898512039743,0.6687593836787851,-0.0030853903375887767,1.564140591880112,-1.4122624820807914,12.780807254120234,1.5836119635608745
256,12.9,1.53,-3.06,-0.213,1.75,0.192,1.42,4.84,6.0,-1.96,,,,,135,12900000000.0,-1.9698909457194045,-0.7147299346511158,1.5545704540523633,1.3732144817726737,0.06671729543558982,1.4658998226852218,1.1332128688816088,8.415925541137813,0.1077562496916713
257,12.9,-32.8,-37.9,3.0,2.24,-1.45,3.78,-28.8,-29.4,0.37799999999999995,,,,,135,12900000000.0,-13.721635749306708,-23.358662391099756,2.108828391434996,1.9379467668628594,-0.4759729748074506,3.0431023854833636,-11.053455868978078,-15.92660979470293,0.22030829258421283
258,13.0,-8.91,-21.4,-7.42,2.21,-0.271,3.04,-2.61,-14.7,-10.7,,,,,135,13000000000.0,-11.887548217972117,-22.16593673308717,-1.5450534784930192,2.115196225509054,-0.4026324537407562,3.0409878916472213,-7.615882895111405,-15.137027183997429,-4.327819183437148
259,13.0,-6.7,-17.2,-1.35,0.36700000000000005,-0.325,3.15,0.45399999999999996,-11.6,-5.08,,,,,135,13000000000.0,-9.910171282435966,-19.14193518948675,-1.4702591547175,0.9762030029412485,-0.37485510685361145,3.1152864595722263,-4.330402232311721,-12.860203344284125,-4.641090005088394
260,13.1,-0.278,-9.28,-1.53,-0.8640000000000001,-1.6,0.621,7.15,-4.45,-5.74,,,,,135,13100000000.0,-6.2386039373078495,-13.136519851337788,-1.493167100607466,-0.22273494220186651,-0.8132190703854372,1.4152757615142924,0.34359866173217224,-7.446460962776583,-5.098767723879295
261,13.1,6.27,-3.07,-3.88,-0.813,-0.41200000000000003,-2.12,13.3,2.14,-8.24,,,,,135,13100000000.0,-1.4706050802448694,-7.006523018112788,-2.4084113937886893,-0.6073072930509734,-0.6696605580079387,-0.9942335304164769,5.618521142814987,-1.2755484093911331,-6.407038850422555
262,13.2,2.78,2.75,0.474,-1.16,1.75,-4.12,9.06,9.23,-3.35,,,,,135,13200000000.0,0.14963009232112223,-1.0652984746822636,-1.303134832837852,-0.9674002878004051,0.1961080363045371,-3.1246368791215695,7.019646012613564,5.4869906837316496,-5.133832756332571
263,13.2,-13.5,5.67,0.7090000000000001,1.12,-2.93,-0.6579999999999999,-8.36,13.1,-3.16,,,,,135,13200000000.0,-5.053302313640458,3.036154572074574,-0.5315706285818368,0.3925928124087523,-0.9224315907102543,-1.4434710827951147,0.7581513753541476,10.387570447331806,-4.311764137201034
264,13.3,-8.12,-7.46,4.01,0.267,3.86,3.28,-2.56,-0.467,-0.048,,,,,135,13300000000.0,-6.222258546761777,-3.3554678600274777,1.2099197837264217,0.3107659712118398,0.7887501579689213,1.7758669636302902,-0.592763147052233,3.4003616526340235,-2.535976985326
265,13.3,4.4,-5.8,1.88,0.377,-0.6759999999999999,0.684,11.3,0.226,-1.61,,,,,135,13300000000.0,-2.173292139625877,-4.844063280080865,1.4668657393082987,0.35391908754694934,0.2646540485947618,1.0316920193565255,4.249121735278942,1.3569894366302773,-2.1503229117609957
266,13.4,2.25,-24.0,-4.8,-0.764,-0.715,-0.248,9.23,-18.1,-8.37,,,,,135,13400000000.0,-0.48723252785356563,-16.50905102023175,-0.9361985912758557,-0.37443294398386384,-0.08587184771401496,0.15950266002446056,6.27697987634015,-11.167693224878093,-4.740715368885711
267,13.4,-2.21,-17.2,-1.68,-0.273,-0.261,-4.1,4.21,-10.4,-4.77,,,,,135,13400000000.0,-1.1439128075840679,-16.929804147347937,-1.221413326719412,-0.3083468646395827,-0.14853371990359165,-2.743612127372778,5.435453130505392,-10.673520236627319,-4.752911924825817
268,13.5,-4.61,-22.6,-5.56,-1.6,0.695,-1.84,0.626,-14.9,-8.69,,,,,135,13500000000.0,-2.465107444215353,-20.382664246144486,-2.885068311298298,-1.1498909568925906,0.1532875394158945,-2.1277445249179587,3.4773868841838067,-13.394152437631972,-6.392643732274829
269,13.5,-13.6,-17.6,1.31,-1.89,0.6679999999999999,-4.35,-9.49,-9.04,-1.03,,,,,135,13500000000.0,-6.709478530340648,-18.688163980196176,-1.2764462347652252,-1.6320903587787323,0.3374546396888294,-3.642349189733324,-1.80200795672391,-10.59133563355361,-4.159191415222947
270,13.6,-10.4,-5.82,5.55,-0.976,1.01,-2.0,-7.71,3.52,4.14,,,,,135,13600000000.0,-8.11622227612381,-10.852109014075708,1.3411923253834488,-1.204631212914865,0.5780952704683541,-2.5229865067885386,-4.207320896323475,-1.5077105634006163,-0.7027156871522959
271,13.6,-5.76,0.0215,2.24,-0.716,-0.152,-0.93,-3.85,9.59,1.28,,,,,135,13600000000.0,-7.218083354972159,-4.230636114919042,1.6858450928041258,-0.8862758631568324,0.3168629460813126,-1.4372675541601458,-4.0618452773552,5.636010345456287,0.12305254938910959
272,13.7,-7.07,1.53,0.419,0.312,-0.621,0.8859999999999999,-5.32,11.1,-0.41100000000000003,,,,,135,13700000000.0,-7.161637371600122,-0.7227027622060902,1.200066349577504,-0.10556939272240995,-0.018709857625061832,0.14618314791564924,-4.574076202107258,9.153242039901134,-0.09937149868592393
273,13.7,1.3,4.91,3.17,0.885,-0.436,1.92,3.75,14.3,2.03,,,,,135,13700000000.0,-3.936251281110678,2.707325632948766,1.9554483100552176,0.5398111465095307,-0.1680186892735644,1.3551491552519939,-1.185106155566729,12.466268010380817,0.7874764546302624
274,13.8,0.158,-3.95,0.828,1.42,-0.299,1.81,3.41,5.15,-0.8690000000000001,,,,,135,13800000000.0,-2.375614651224355,-1.3466459155173527,1.5231220361339752,1.1132760030226874,-0.21488456083509852,1.665158135710684,0.685693322317078,7.7567042618879745,0.09758143640701367
275,13.8,-27.7,-48.9,-3.01,2.97,0.742,6.44,-23.4,-40.5,-5.73,,,,,135,13800000000.0,-12.028701824322969,-30.30421235084042,-0.21512862534557153,2.322977789872671,0.12749428415434574,4.919508609598806,-9.12028273374553,-23.30667773197821,-2.3295097307309245
276,13.9,-9.79,-21.2,-7.47,1.63,-0.226,2.82,-3.19,-14.8,-10.9,,,,,135,13900000000.0,-11.175358957977886,-24.760212174322156,-2.9970490164692176,1.871485556847163,0.0010119785800835057,3.488563424785024,-6.705894653879811,-17.83083395018518,-5.898976835332329
277,13.9,-5.59,-14.0,-2.25,-0.0541,-2.39,3.03,1.83,-8.76,-6.0,,,,,135,13900000000.0,-9.04634563447142,-18.207792163225974,-2.710588947797733,0.616918773639237,-0.854506025237177,3.176024032613324,-3.230687225992525,-11.991836505218254,-5.941051310397905
278,14.0,1.98,-8.13,-2.25,-0.88,-1.61,-0.000535,9.34,-3.46,-6.74,,,,,135,14000000000.0,-4.84335033480856,-12.0709311777422,-2.5339735735629128,-0.35836095803728185,-1.124826160333055,1.0110023286387717,1.8871999672613535,-6.49979764057607,-6.273800113109012
279,14.0,10.5,-2.17,-4.94,-0.525,-0.17300000000000001,-2.96,17.3,3.08,-9.73,,,,,135,14000000000.0,1.0051901848284626,-6.0417694821735966,-3.4565777086857534,-0.46693041434942406,-0.7842572320908736,-1.695481707187457,8.162192385695509,-0.33317445909562693,-7.713249938115437
280,14.1,3.33,5.4,8.41,-0.408,1.55,-4.4,9.24,12.0,4.28,,,,,135,14100000000.0,1.891355439585517,0.9256842006766819,1.0937269522874007,-0.4285357817679655,0.05095353936203373,-3.5387784786604017,8.60099866959436,7.605828323621403,-2.7182598686198745
281,14.1,-19.1,0.69,-4.14,0.172,-2.4,0.899,-14.5,8.04,-8.72,,,,,135,14100000000.0,-6.110077911189359,0.782164550374566,-0.9131744837113178,-0.0372718107487115,-0.8260118994645393,-0.5141576227764024,-0.8040801206032828,7.885309478739226,-5.217885351286283
282,14.2,-5.32,-6.63,1.43,0.551,3.62,3.4,0.546,0.0106,-2.77,,,,,135,14200000000.0,-5.8089180228689,-3.731465412348406,-0.014671314989933015,0.3460018743307612,0.7647969272849411,2.1535832646300954,-0.2544237994701368,2.816270629526704,-4.198381633328126
283,14.2,2.21,-7.74,-5.18,-0.231,-1.4,0.0563,9.31,-2.13,-8.96,,,,,135,14200000000.0,-2.752286571450917,-6.17245824056131,-1.9953450432520636,-0.029929172110907065,-0.009779971885132133,0.7241548352877925,3.6395274815965264,-0.36769934760035916,-6.1815168430039495
284,14.3,4.15,-26.6,-5.93,-1.0,1.14,-1.87,10.8,-20.6,-9.92,,,,,135,14300000000.0,-0.12128992677049988,-18.61178877913693,-3.5041101377589845,-0.6619543937897925,0.4016179716604037,-1.043922343360782,6.554761189355904,-13.391458538016927,-7.7385331976150376
285,14.3,-8.88,-21.9,-4.71,-0.856,-2.27,-2.82,-3.06,-14.9,-8.38,,,,,135,14300000000.0,-3.4599135203500166,-20.614141349484978,-3.966515275922535,-0.7883799265166586,-0.5543024411000547,-2.2544292127624432,2.640316307988722,-14.362523358007856,-8.005693545305267
286,14.4,-9.46,-21.0,-1.37,-1.87,0.807,-2.8,-4.58,-13.1,-4.67,,,,,135,14400000000.0,-5.747011732599835,-20.849109573357243,-2.9708671638390776,-1.4930822534765709,-0.06722053167089148,-2.6262694587836437,-0.29928141332592606,-13.549823151972225,-6.616432457019107
287,14.4,-12.7,-14.6,5.98,-1.98,0.613,-3.41,-9.13,-5.75,3.57,,,,,135,14400000000.0,-8.397334615906239,-17.043721031097544,0.461392261392525,-1.8103212631377934,0.1761663146881167,-3.160430417294438,-3.8945201450338245,-8.528989471756134,-2.3739520613480094
288,14.5,-7.18,-3.96,3.02,-0.5539999999999999,0.615,-1.45,-4.64,5.37,1.36,,,,,135,14500000000.0,-7.933313937521477,-9.076402741743356,1.442504513578052,-0.9917967911621546,0.3331835582302577,-1.9946661940182784,-4.1980263101580535,0.4179459300456223,-0.8188228588533479
289,14.5,-6.6,2.46,3.62,-0.015,-0.289,-0.322,-4.51,11.9,2.2,,,,,135,14500000000.0,-7.425084575837628,-2.0513222687571524,2.277477132560448,-0.355389437252972,0.11056266756338246,-0.8546405930187981,-4.32503983576575,7.809072722787863,0.4384668877737383
290,14.6,-4.49,4.34,1.36,0.535,-0.6729999999999999,1.39,-2.25,13.7,-0.29,,,,,135,14600000000.0,-6.306296173409686,1.840666871654673,1.9256654675881695,0.22472139780886446,-0.16980059579467088,0.6752209712223982,-3.4802316338648263,11.601128587029294,0.13507249644315916
291,14.6,0.812,-0.0383,1.77,1.11,-0.128,1.68,3.82,9.08,-0.245,,,,,135,14600000000.0,-3.5929615655264797,0.6964719495269711,1.8659746775384976,0.8015023892094106,-0.15484410213310545,1.3600400692175496,-0.5080980885863347,9.978249778325686,-0.02322140602902334
292,14.7,-6.7,-10.6,2.22,1.65,-0.42,2.15,-2.87,-1.91,-0.39299999999999996,,,,,135,14700000000.0,-4.777294756651136,-6.182503126174074,2.0017276524353376,1.3543196269488624,-0.2497184169857791,1.8984467490015513,-1.469696018310303,2.325650026348227,-0.17722806939057817
293,14.7,-6.51,-46.8,3.54,2.63,1.97,5.56,-0.97,-39.5,0.12,,,,,135,14700000000.0,-5.437763164254924,-30.916485133769534,2.5915866599123816,2.185457127138461,0.5445097287981406,4.394022009338172,-1.2662554562163049,-24.59799019697155,-0.05343750192370314
294,14.8,-10.4,-20.2,-3.88,0.248,-0.833,2.79,-3.71,-14.3,-8.04,,,,,135,14800000000.0,-7.329256243508233,-24.390693123125473,0.11002099162921297,0.9231557181791845,0.05162874955423763,3.30078164742275,-2.2611739298677342,-17.969058482184128,-3.3797085030883935
295,14.8,-3.59,-11.6,-2.07,-0.363,-1.79,2.0,3.66,-6.68,-6.5,,,,,135,14800000000.0,-5.903935718444386,-16.60181408259787,-0.7259200645489151,0.08519334162734382,-0.6073166944435864,2.4142183977274203,0.1495057530592594,-10.70216475872445,-4.679258237211387
296,14.9,1.7,-6.1,-1.83,-0.7609999999999999,-0.556,-0.7140000000000001,8.88,-1.36,-6.53,,,,,135,14900000000.0,-3.0054861968932465,-10.206745262605175,-1.1492856261776154,-0.4661226084919473,-0.5889552812196872,0.2821438392464244,3.703940282950194,-4.688508489729726,-5.450061619138746
297,14.9,9.41,-1.41,-5.43,-1.25,0.6679999999999999,-2.76,16.1,4.06,-10.1,,,,,135,14900000000.0,1.7270182181546319,-4.849976364732457,-2.7907491142224723,-0.9768381850184743,-0.139209390841894,-1.7912655796608186,8.75073170448524,0.943004550215341,-7.386684107216056
298,15.0,1.55,4.24,11.5,-0.523,0.76,-3.97,7.5,11.1,7.87,,,,,135,15000000000.0,1.6595428312358613,0.6853551480670497,2.689117510828911,-0.6811513443871369,0.18253294589565316,-3.2762080349228686,8.241522973108415,7.481176732552798,-1.0325278862240097
299,15.0,-15.2,-3.2,-2.56,-0.907,-1.59,1.74,-10.5,4.31,-6.79,,,,,135,15000000000.0,-4.7669361400369095,-1.6806278569527935,0.6763144509545604,-0.8282973525351335,-0.45168964402918566,0.14264839947964258,0.6113117111864241,5.439854651040326,-3.4304196577171173
300,15.1,-4.84,-5.74,7.12,1.04,4.2,3.17,1.35,1.04,3.65,,,,,135,15100000000.0,-4.794786500525795,-4.15257816164412,3.1471811965107612,0.3889447192192853,1.2127118464312714,2.205976050115554,0.9120528991016779,2.607618819392978,-0.4815420875582026
301,15.1,-0.615,-12.2,-6.08,-0.753,-2.04,0.727,6.5,-6.22,-9.25,,,,,135,15100000000.0,-3.201545772617595,-9.053047203270829,-0.39103233308358476,-0.355060622267526,0.04887267872572876,1.1979622781647452,3.1870663524628284,-3.074818329184912,-4.133459595925917
302,15.2,7.43,-21.1,-4.96,-0.529,1.76,-3.18,14.2,-14.9,-8.3,,,,,135,15200000000.0,0.850960614628173,-16.389026810247476,-2.143028217819729,-0.4683864338105469,0.6611239643326352,-1.7858901856580036,7.670747268334165,-10.686820208636982,-5.868754752662364
303,15.2,-8.73,-23.6,-7.26,-1.17,-1.24,-2.72,-3.2,-16.1,-10.3,,,,,135,15200000000.0,-2.801086198597973,-20.780141665799928,-4.105159378378341,-0.9255050583806285,-0.019109229957106733,-2.4225438927432283,3.244954406398427,-14.171345024044411,-7.714295092909614
304,15.3,-9.55,-20.0,-1.6,-1.61,1.53,-2.63,-4.81,-11.8,-3.84,,,,,135,15300000000.0,-5.373620624603461,-20.305075209891555,-3.1445421967571625,-1.3714705114369212,0.5351710352015601,-2.563938155525323,-0.03444841895112383,-12.644883747358097,-6.1007153121649855
305,15.3,-18.0,-11.1,5.15,-1.63,1.25,-3.14,-14.5,-2.01,3.77,,,,,135,15300000000.0,-10.18651284057444,-14.699654467973097,0.03604582654351551,-1.5399088868712547,0.7909409885444774,-2.9565600493527966,-5.9237891487309975,-5.799089745182648,-1.989725858956148
306,15.4,-6.02,-2.62,4.23,-0.669,0.34600000000000003,-1.36,-3.58,6.85,3.47,,,,,135,15400000000.0,-8.598331722793578,-7.343761374914697,1.6442407100270413,-0.9724901502419392,0.6317385148306436,-1.868405511033465,-4.969565366276534,2.343271190501701,0.2841595561065047
307,15.4,-6.94,2.36,4.18,0.10400000000000001,-0.605,0.19399999999999998,-4.87,11.9,3.62,,,,,135,15400000000.0,-7.966212939772741,-1.4346660431098224,2.61659153996192,-0.27113009730798676,0.18922628786284024,-0.46274842727381094,-4.929029404852318,8.495044510130334,1.6734818093343304
308,15.5,-2.61,4.62,4.08,0.903,-0.318,1.79,-0.127,14.1,3.21,,,,,135,15500000000.0,-5.924544833392233,2.252316476267084,3.1777435619310763,0.4938448013161518,0.007737781515750525,1.0726391118779646,-2.9739855769503483,12.103017494470373,2.3134162057536947
309,15.5,0.536,-1.66,0.532,1.46,0.40299999999999997,1.81,3.91,7.44,-0.865,,,,,135,15500000000.0,-3.461930248532467,-0.1300845521529732,2.163218592046987,1.1233189182349927,0.14916489684910414,1.5751961826495005,-0.17131767176305068,9.101380849098561,0.9896584890143494
310,15.6,-27.7,-28.1,5.55,2.25,-1.4,3.43,4.79,6.9,-1.65,,,,,135,15600000000.0,-12.700938315742668,-17.162335702928825,3.461898689265783,1.8573796074049467,-0.4051352879528287,2.8393598970593015,1.8485769620032513,7.68432735750523,-0.10971554702866837
311,15.6,-8.62,-24.1,-4.62,2.45,-1.71,2.98,-2.32,-17.3,-7.67,,,,,135,15600000000.0,-11.145376248380774,-21.387019392570867,0.3628500730419497,2.243486533178257,-0.872023470596742,2.935214850008158,0.15142980817091933,-8.398364006054186,-3.2584488495503736
312,15.7,-8.41,-18.9,-2.5,0.8959999999999999,0.0629,3.29,-1.36,-13.3,-6.39,,,,,135,15700000000.0,-10.102712203799163,-19.872551288093916,-0.7349255888493791,1.3655656300057848,-0.5375024256257129,3.1770228754549406,-0.4639166004218631,-11.553602216549741,-4.562687987297204
313,15.7,-1.36,-10.9,-2.04,-0.688,-1.36,0.778,6.16,-6.31,-6.33,,,,,135,15700000000.0,-6.770186687792399,-14.408725281898375,-1.235363560482027,0.027616637015124068,-0.8317968376330811,1.5419402131900934,2.2328696720072205,-8.17823659750412,-5.298744140815472
314,15.8,6.13,-3.66,-5.06,-0.945,-0.428,-1.65,13.4,1.21,-9.54,,,,,135,15800000000.0,-1.8529252307177,-7.863300254261836,-2.7019414911974327,-0.6060672378366813,-0.6873159861082576,-0.6335647016497781,6.779328399164452,-2.134923335177544,-7.065156951936592
315,15.8,4.18,4.13,1.34,-1.22,2.31,-4.75,10.7,10.3,-2.49,,,,,135,15800000000.0,0.44669029587157283,-0.5599924698197842,-1.1520367042685211,-1.0060596889332012,0.3851410533204389,-3.4391702869504956,8.375546123336102,5.869576463516709,-5.159679853418214
316,15.9,-15.5,9.68,2.05,1.59,-3.77,-1.47,-10.4,17.0,-1.94,,,,,135,15900000000.0,-5.631829865264478,5.675640479173438,0.0758019252087323,0.6853376547598622,-1.1015925302330059,-2.097058805829514,0.7314832169286971,13.034354981977689,-3.8187365385864656
317,15.9,-6.96,-10.3,3.93,-0.168,2.84,3.29,-1.56,-3.37,-0.444,,,,,135,15900000000.0,-6.138098503050458,-4.052709289374082,1.5537154756738332,0.1293669941859098,0.30873212817789253,1.5745553631119216,-0.20144526688760267,2.474687689993079,-2.413214660787575
318,16.0,4.72,-7.97,-0.136,0.551,0.145,0.5329999999999999,11.2,-1.86,-4.21,,,,,135,16000000000.0,-1.999235318120097,-6.438139265196186,0.9057847473774245,0.4040713618493662,0.25014782072224856,0.8646708747724721,4.440409866607818,-0.31559942228021276,-3.161546014359711
319,16.0,2.87,-22.1,-4.75,-0.8059999999999999,-0.0189,-0.561,9.57,-16.0,-8.55,,,,,135,16000000000.0,-0.14319222668689657,-15.975413300942112,-1.2629571308760639,-0.3843201608272412,0.15388094874437191,-0.1070121105603219,6.528812934621967,-10.411824059720129,-5.405747942023599
320,16.1,-1.58,-18.7,-2.17,0.0559,-0.731,-4.5,4.53,-11.8,-5.56,,,,,135,16100000000.0,-0.6908710939991647,-17.634548001889378,-1.6107677546828332,-0.09750579969198969,-0.16273459386124906,-3.1011054134989013,5.715038974777321,-11.305408611173515,-5.469991345810948
321,16.1,-3.29,-21.8,-6.98,-2.03,1.39,-1.61,1.52,-14.0,-10.5,,,,,135,16100000000.0,-1.6816006392221365,-20.171095198766587,-3.669629501720384,-1.35657371735963,0.392842852666801,-2.084824740284681,4.007118342019193,-13.039947322608192,-7.564906649607938
322,16.2,-10.9,-17.5,-0.22,-1.67,0.705,-3.88,-6.97,-8.89,-2.75,,,,,135,16200000000.0,-5.195447275074039,-18.544534555872602,-2.346850028740239,-1.5607786918286042,0.5045344861514086,-3.308347932388681,-0.4619811285000619,-10.368579887894134,-5.559577768470302
323,16.2,-10.5,-7.12,6.66,-1.0,0.955,-2.1,-8.11,2.25,5.13,,,,,135,16200000000.0,-7.217423627911293,-11.587576051851268,1.1068762692083345,-1.1954174554877355,0.6657136560854544,-2.484783918879625,-3.575708715570689,-2.2458584282907275,-1.107545607573173
324,16.3,-6.43,-0.642,2.69,-0.672,-0.0819,-0.9570000000000001,-4.78,8.96,1.58,,,,,135,16300000000.0,-6.91727536189148,-4.922278912248957,1.7139338237083084,-0.8543979860318982,0.39821314967302246,-1.443504574710712,-4.06601030606331,4.967478400993502,0.01177264810667511
325,16.3,-6.4,1.09,0.57,0.435,-0.945,1.15,-4.86,10.7,-0.447,,,,,135,16300000000.0,-6.720101648845992,-1.2611079021053802,1.2752860823689143,-0.014323193519784172,-0.0823963103660294,0.3241293915845167,-4.389266325969574,8.657566752795725,-0.17929856092368512
326,16.4,0.129,5.2,2.26,0.764,-0.0226,2.31,2.46,14.6,0.9129999999999999,,,,,135,16400000000.0,-4.1093779410145554,2.6733769180788443,1.6528800655156608,0.49277368422931245,-0.06100084364556331,1.6776231565296233,-1.600733642559927,12.482777956174225,0.2756256952635254
327,16.4,-1.12,-3.17,1.01,1.21,-0.629,2.17,2.19,5.88,-0.799,,,,,135,16400000000.0,-2.969894216330194,-0.884941424535,1.406364152386647,0.9600644554765577,-0.26423424204861323,2.01320852008862,-0.05741728515857103,8.232495773510045,-0.1719381205423801
328,16.5,-29.2,-62.0,-1.08,2.71,1.9,6.17,-24.7,-53.7,-3.91,,,,,135,16500000000.0,-12.968221675764735,-38.10089277397191,0.45295407831304413,2.100190921260236,0.5101413250773914,4.846319394367278,-10.090119443078805,-31.634147155624333,-1.728779024007276
329,16.5,-7.52,-19.7,-7.65,1.26,-1.14,2.59,-1.11,-13.1,-11.2,,,,,135,16500000000.0,-10.891481938555025,-26.89568872392219,-2.6541684235074863,1.5527856761761514,-0.0802888153471123,3.308497935494041,-6.434055392299643,-19.703508916190152,-5.673385630628653
330,16.6,-4.88,-14.1,-1.48,0.0327,-1.62,2.82,2.27,-8.61,-5.34,,,,,135,16600000000.0,-8.600040091487827,-19.103767617485705,-2.203927068052987,0.5624121283859573,-0.6312064172812841,2.975556294440285,-2.89038493240811,-12.562492532008699,-5.534536100135377
331,16.6,1.59,-6.78,-3.08,-0.648,-0.9740000000000001,-0.28800000000000003,8.8,-1.84,-7.53,,,,,135,16600000000.0,-4.71582567504421,-11.599222273402198,-2.5398620400013,-0.22620141711785768,-0.7538599429800221,0.7512405772683515,1.8691059772047884,-5.6603037997713885,-6.365613855449002
332,16.7,11.0,-0.591,-5.61,-0.961,0.593,-2.55,17.8,4.92,-10.0,,,,,135,16700000000.0,1.2746940780977463,-4.89577678292995,-3.717123437460008,-0.7049409481465005,-0.271945638442835,-1.4987592883765073,8.355029311089941,1.1503565207049204,-7.879275496525269
333,16.7,1.94,5.89,11.5,-0.701,0.0452,-3.85,7.97,12.8,8.01,,,,,135,16700000000.0,1.5282937738583604,1.6722106886829327,2.117966534921837,-0.7023733064592036,-0.1584690873901488,-3.1012753799078627,8.198272755566359,8.649362864997844,-1.2616552950801267
334,16.8,-21.2,-2.26,-3.45,-0.397,-3.5,1.76,-16.7,5.22,-7.93,,,,,135,16800000000.0,-7.13522160186387,-0.7223049142128533,-0.017100983341123754,-0.5034150275187799,-1.3540882462376451,0.2119848421741346,-1.9385281477493272,6.441843374851118,-4.038910360452659
335,16.8,-2.32,-6.31,3.21,1.05,2.48,2.68,3.77,0.369,-0.59,,,,,135,16800000000.0,-5.299767256793288,-4.124925989701958,1.2203487152000292,0.508673387845676,0.01777079280922189,1.8940900610931737,0.38557729869276525,2.532685946779178,-2.6024963009141344
336,16.9,0.19399999999999998,-10.8,-7.41,-0.38,-0.365,0.21600000000000003,6.89,-4.68,-11.2,,,,,135,16900000000.0,-3.205666572187028,-8.189705481204424,-2.0890060759880145,-0.0703193782410626,-0.11918682233814928,0.7503677647150018,3.033714187049437,-2.1102008160277648,-6.183214131109716
337,16.9,10.3,-25.3,-4.73,-0.0321,1.93,-3.62,16.8,-19.0,-8.41,,,,,135,16900000000.0,1.942390246177291,-18.60900106620699,-3.101709780321735,-0.04541850437211399,0.6140240999031834,-2.228308444368303,8.638363466307105,-12.982354061390994,-7.110633504727179
338,17.0,-9.46,-22.5,-6.47,-1.1,-1.28,-2.4,-4.22,-14.9,-9.85,,,,,135,17000000000.0,-2.403944820375697,-20.978420819637208,-4.393299175744719,-0.7325045391843302,-0.06366870802823099,-2.3453269373313073,3.403355176404604,-14.21676402331008,-8.251534442943901
339,17.0,-10.0,-20.2,-2.66,-1.72,1.13,-2.56,-5.51,-11.9,-5.35,,,,,135,17000000000.0,-5.299390439357955,-20.504402735800834,-3.7286560728440485,-1.37588236033726,0.3634328835052925,-2.491639885172426,-0.22552732650170926,-12.725436780883692,-7.043093359300492
340,17.1,-14.7,-12.0,5.34,-1.75,1.94,-3.12,-11.2,-2.97,3.41,,,,,135,17100000000.0,-8.882691583466752,-15.325655535865359,-0.2512297891266093,-1.6196292882356607,0.927537770576851,-2.919906139562701,-4.6935496772886065,-6.44575268334777,-2.6895530503811225
341,17.1,-6.55,-3.0,4.09,-0.865,0.349,-1.86,-4.31,6.47,2.9,,,,,135,17100000000.0,-7.993522019290781,-7.819960418085742,1.4134387932641732,-1.1279695831470038,0.7205336002004431,-2.1975144755642626,-4.537395585224824,1.8682621040367255,-0.36159673232124767
342,17.2,-7.42,1.35,4.43,-0.513,-0.645,-0.413,-5.75,11.0,3.59,,,,,135,17200000000.0,-7.774908336534133,-2.2359225452979894,2.5701557719482055,-0.727301643541939,0.23193775765297464,-0.9812573376267679,-5.031081603973133,7.746464249602668,1.2841778295717425
343,17.2,-4.21,5.77,4.14,0.5760000000000001,-0.503,2.03,-2.26,15.3,3.17,,,,,135,17200000000.0,-6.41604536482661,2.6392756495204823,3.17212115468857,0.12183170922065212,-0.031027246016287646,1.0711010046360985,-3.902894841059215,12.60876008875509,2.069591564716915
344,17.3,0.721,-2.21,0.615,1.6,-0.0409,1.79,3.63,7.04,-0.8740000000000001,,,,,135,17300000000.0,-3.6955639713977946,-0.3136857364101875,2.1915789376549695,1.0848950545643206,-0.03455977450467717,1.5610751651538226,-0.8360373606503324,9.024086711240816,0.8436344207090616
345,17.3,-21.4,-21.0,3.33,1.96,-0.905,2.27,-17.7,-12.2,1.06,,,,,135,17300000000.0,-10.444097179601592,-12.910595289925473,2.6281127482241327,1.655047671610503,-0.346008330045338,2.0442513305820214,-7.701840297659189,-4.638095925173417,0.9337470774779493
346,17.4,-6.52,-31.0,-2.56,3.08,0.373,4.17,-0.563,-23.9,-5.69,,,,,135,17400000000.0,-8.948319466869616,-23.92611947205682,0.6387023012838655,2.583439431387742,-0.0887429770051823,3.4930807477006667,-4.795413774257646,-17.03719945923637,-1.824933909960293
347,17.4,-10.3,-19.2,-4.18,0.662,-0.27699999999999997,2.9,-3.6,-13.3,-8.29,,,,,135,17400000000.0,-9.463549798618203,-21.048154400109947,-1.2090556269483652,1.3315739517231406,-0.15610243628872011,3.0888595538471417,-4.308726519237934,-14.63152235715659,-4.517526854286356
348,17.5,-2.5,-11.4,-2.55,-0.433,-1.65,1.51,4.76,-6.61,-7.08,,,,,135,17500000000.0,-6.8092010241308785,-15.172920581594799,-1.7232481297978213,0.1819102262623593,-0.6906276484550177,2.0127689831510374,-0.6165878886643084,-9.46797849694985,-5.584754451245717
349,17.5,4.35,-4.29,-3.43,-0.8370000000000001,-0.439,-0.897,11.5,0.47,-8.18,,,,,135,17500000000.0,-2.555564277625707,-8.54577739029807,-2.377711580372111,-0.4819350837356411,-0.6005938188379687,0.029581210029111515,4.316422384663556,-3.0707902309380612,-6.665631370212035
350,17.6,8.93,1.89,-2.68,-1.78,2.28,-4.25,15.6,7.68,-6.98,,,,,135,17600000000.0,1.822474963323459,-2.19092161217689,-2.493625768945359,-1.3276565762151318,0.4300993617806883,-2.8872184176530613,8.910290451284503,3.8496139585979723,-6.79656070628492
351,17.6,-9.34,9.72,9.53,1.27,-3.71,-3.13,-3.98,17.0,5.67,,,,,135,17600000000.0,-2.432409829780762,5.062221876773619,2.116899793671657,0.36478114500326364,-1.0512522376933464,-3.052689179404081,3.6622836773687197,12.314665006302802,-1.6044445958305573
352,17.7,-10.7,-10.6,3.22,0.015,4.13,3.63,-5.63,-3.48,-1.19,,,,,135,17700000000.0,-5.583829431082767,-4.475272075999169,2.539889667275292,0.13689004719266154,0.8026299322001604,1.5019774310865603,-0.12087143435705094,2.1474619066929836,-1.4318353090082954
353,17.7,6.34,-13.1,1.7,2.25,1.01,1.17,13.0,-6.97,-1.98,,,,,135,17700000000.0,-1.0387334157010262,-9.727291406425895,2.2178293569066434,1.513633629165016,0.8768281428751092,1.2757142232992178,5.2210114600220985,-3.7215504893410882,-1.6601368327364188
354,17.8,2.1,-24.5,-4.84,-0.42100000000000004,0.423,0.0801,8.91,-18.5,-8.48,,,,,135,17800000000.0,0.15768122671643914,-18.72311693834439,-0.4885343239091289,0.2531717993704343,0.714445801598201,0.4608290860628308,6.722904384036384,-13.234604259762463,-4.50049670926016
355,17.8,1.08,-15.7,-2.17,-0.0809,-0.0562,-3.89,7.55,-9.13,-5.41,,,,,135,17800000000.0,0.5092484431884113,-16.882192907149403,-1.1333016474422446,0.03551573131401556,0.43870425952250225,-2.504530452992385,7.059638797136883,-10.592424516036603,-4.879289704254139
356,17.9,-4.54,-23.1,-8.29,-2.06,-0.155,-1.28,0.7140000000000001,-15.5,-11.6,,,,,135,17900000000.0,-1.4154116373158327,-20.668520301055686,-3.8775771172054605,-1.3297647413835703,0.2262734284561076,-1.6699370950129295,4.476147328201757,-13.751485920121878,-7.67835440136263
357,17.9,-12.2,-15.7,-2.07,-1.02,0.638,-3.6,-7.73,-7.33,-4.51,,,,,135,17900000000.0,-5.526254415125003,-17.642944915689206,-3.1844516691669527,-1.127945311536164,0.37359159001181474,-2.9853944279194535,-0.49332516811008364,-9.617903332459207,-6.358787358818612
358,18.0,-10.5,-7.4,5.61,-1.54,0.41700000000000004,-2.5,-7.48,1.82,4.11,,,,,135,18000000000.0,-7.422134516455564,-11.405514321765219,0.18782941518672658,-1.3964091434782433,0.3891233695653383,-2.654568064976143,-3.337800785577274,-2.255196585512085,-1.9987107391447347
359,18.0,-6.1,-1.43,1.33,-0.857,-0.489,-1.13,-4.04,8.11,0.39299999999999996,,,,,135,18000000000.0,-6.9181664989803355,-5.330935219823236,0.6258010465531327,-1.0449706939337582,0.07492573288172694,-1.615480509449494,-3.6236862000454315,4.416996537440248,-1.00260282201377
360,18.1,-7.98,1.59,2.49,0.39,-0.664,1.27,-6.05,11.2,1.71,,,,,135,18100000000.0,-7.322913586927936,-1.1164388963399592,1.3406384282788066,-0.11005167995977716,-0.18946617492578383,0.35115314159311817,-4.611508180323208,8.783291851659396,0.12715134652858961
361,18.1,3.47,1.9,4.18,1.37,-0.00672,2.05,6.25,11.2,2.99,,,,,135,18100000000.0,-3.208897337021024,0.7204184174564634,2.429407228870371,0.8542387277541045,-0.12407853263685084,1.509022452121442,-0.18947683538526494,10.338953880448475,1.319480403775003
362,18.2,-0.10800000000000001,-5.02,-1.7,1.89,0.5329999999999999,1.63,3.5,3.9,-3.6,,,,,135,18200000000.0,-2.026904922673661,-2.7752033952238975,0.8459632165818494,1.529062895058377,0.11102797809495485,1.5914761398502222,1.3126149498101314,6.194127081226077,-0.7294016744353564
363,18.2,-31.1,-48.0,-2.96,2.72,-0.332,6.16,-26.5,-39.7,-5.74,,,,,135,18200000000.0,-13.108915898874542,-30.314796246194526,-0.6134544003017808,2.3049879968126805,-0.047489999820151146,4.705207973714183,-10.010697895044741,-23.348437963452515,-2.81623280248422
364,18.3,-10.1,-19.9,-6.44,1.13,-1.18,2.44,-3.58,-13.5,-10.1,,,,,135,18300000000.0,-11.961984887087395,-23.97271667294455,-2.8476754918266893,1.5394541503972947,-0.4527086335843762,3.1613284950474703,-7.3925764033531225,-17.008887942767988,-5.849801374540117
365,18.3,-4.63,-15.3,-2.29,0.141,-1.45,2.75,2.5,-9.92,-6.39,,,,,135,18300000000.0,-9.16719697594246,-18.691474992208427,-2.633831731791106,0.6283265632721761,-0.8095452910432748,2.880982652235115,-3.365024960997239,-12.44569128281956,-6.074785100347859
366,18.4,1.19,-7.46,-1.94,-0.711,-0.7979999999999999,-0.0537,8.38,-2.6,-6.51,,,,,135,18400000000.0,-5.219266100578434,-11.852080001583731,-2.3677781466015615,-0.24427795145926756,-0.805414311036764,0.8808146807794293,1.4167114395478428,-6.1079092698882915,-6.2560449938970475
367,18.4,8.73,-1.65,-4.38,-0.943,0.12,-2.16,15.6,3.72,-8.92,,,,,135,18400000000.0,0.09788064709769095,-5.639533982005414,-3.139375766546067,-0.6995127205898795,-0.47429569927562354,-1.1916888993170236,7.1911349573713075,0.21842621882510738,-7.365538168644035
368,18.5,2.63,3.92,6.39,-1.11,1.69,-4.39,8.72,10.7,2.7,,,,,135,18500000000.0,1.0630677139485212,0.18173433924886506,0.5147159169373334,-0.9669553808039629,0.30010188660754566,-3.3715358937816156,7.813579852615362,6.965532746649139,-3.1734081943193564
369,18.5,-23.6,2.6,-7.06,0.449,-3.81,0.27399999999999997,-18.9,10.2,-11.2,,,,,135,18500000000.0,-8.337939885244802,1.6543346398803151,-2.389850687804176,-0.04442530535559919,-1.1705164079846324,-0.8868774228134724,-3.062284143040312,9.047595486933925,-6.516350675635914
370,18.6,-4.2,-8.36,6.9,0.722,3.39,3.34,1.75,-1.52,3.16,,,,,135,18600000000.0,-6.760650070823125,-4.443883813391419,1.1723938699528156,0.4549198057431335,0.46126287511992836,1.9940012514542205,-1.1030653156012986,2.245115711412784,-2.486310831028093
371,18.6,0.534,-10.6,-4.16,-0.18899999999999997,-0.314,0.24100000000000002,7.36,-4.68,-7.92,,,,,135,18600000000.0,-3.980093317251743,-8.1926445941107,-0.872341932898872,0.035390072985252485,0.18386931407842105,0.7992223335261412,2.342491237773899,-2.2126588642299945,-4.749352415758678
372,18.7,11.5,-22.6,-5.77,-0.457,1.23,-2.68,18.2,-16.4,-9.42,,,,,135,18700000000.0,1.9205705558995794,-16.9659889147138,-2.7503759438375077,-0.2854142725302059,0.5581809533425452,-1.5720831993582078,8.798537949589516,-11.345209295694811,-6.694599816983365
373,18.7,-10.6,-23.5,-5.27,-0.14800000000000002,-2.13,-3.88,-5.24,-16.1,-8.62,,,,,135,18700000000.0,-2.851989860065644,-20.94486816861203,-3.716539687820672,-0.19588546457580042,-0.4036658381877333,-3.145071505517456,3.08304680347727,-14.405921668361046,-7.496497059492452
374,18.8,-7.59,-21.5,-1.86,-1.97,1.56,-1.72,-3.05,-13.3,-4.79,,,,,135,18800000000.0,-4.658012962817105,-21.282915119903876,-3.0046393029166567,-1.35176513684422,0.2989451777504656,-2.173797039800469,0.5861076543431922,-13.694027604309623,-6.369285839924267
375,18.8,-15.4,-14.4,3.6,-1.99,1.05,-3.78,-11.8,-5.53,1.49,,,,,135,18800000000.0,-8.752616999512494,-17.09157088474937,-0.47205394474707063,-1.767590997492413,0.567676936126877,-3.2685238092943045,-4.456631919516528,-8.438751566653021,-3.0960234392245924
376,18.9,-7.81,-3.01,5.39,-0.858,0.519,-1.74,-5.53,6.44,4.12,,,,,135,18900000000.0,-8.393312549669046,-8.516612935911123,1.7757829445353361,-1.1749698736982603,0.5502600435824541,-2.2267401787867143,-4.893630920532945,1.1388677994764045,-0.09066922714868042
377,18.9,-7.81,1.81,3.32,-0.307,-0.263,-0.384,-6.1,11.4,2.38,,,,,135,18900000000.0,-8.170966885745253,-2.2282327648724616,2.367921472097456,-0.6094659651370729,0.25927087474197524,-0.9707986289294008,-5.3847783167033665,7.744073485609907,0.9383236375072437
378,19.0,-4.09,3.31,2.18,0.5529999999999999,-0.8640000000000001,1.97,-2.07,12.9,1.13,,,,,135,19000000000.0,-6.61539402992547,1.144268281744901,2.2958619719952575,0.1479094463385746,-0.14264197309201176,1.033537778870996,-4.0352370126936705,11.063000989027369,1.01815366619685
379,19.0,0.6579999999999999,-0.44799999999999995,0.0287,1.32,0.129,2.0,3.7,8.75,-1.48,,,,,135,19000000000.0,-3.8429395968034448,0.1746581593864217,1.4265062002017264,0.9115555676930515,-0.04544690061005985,1.6922416352557632,-0.8860002608877555,9.57409629954793,-0.022285972440992285
380,19.1,-7.5,-10.1,3.29,1.51,-1.23,2.27,-3.56,-1.38,1.16,,,,,135,19100000000.0,-5.236928881029876,-6.0820844716692894,2.1410731685841964,1.3014569626116856,-0.4692868829854619,2.0860197282134267,-1.9746621864112237,2.5228216050373486,0.47011654164675165
381,19.1,-5.79,-48.7,1.44,2.5,1.88,6.24,0.0182,-41.4,-1.64,,,,,135,19100000000.0,-5.447747154474064,-32.03422026733096,1.872242814487528,2.082337499495163,0.37130160016328956,4.917214382061646,-1.1633108610285634,-25.750792476855885,-0.4087120468968277
382,19.2,-12.2,-18.2,-3.69,0.387,0.35600000000000004,2.93,-5.13,-12.4,-7.28,,,,,135,19200000000.0,-8.021554203693409,-23.609886690081368,-0.2606299152399738,0.9777830364603757,0.3658266010137349,3.562804758657103,-2.7782637683968985,-17.15673731244869,-3.2704897731228684
383,19.2,-3.75,-12.1,-2.45,-0.5479999999999999,-2.1,1.7,3.91,-7.37,-6.35,,,,,135,19200000000.0,-6.393333684902885,-16.600953394698664,-1.1001559766640494,-0.01630246767545218,-0.516460437367142,2.293187985249779,-0.055279822190474004,-10.85690461945564,-4.553054743925617
384,19.3,4.33,-5.3,-2.78,-0.769,-0.7759999999999999,-1.47,11.8,-0.5720000000000001,-7.07,,,,,135,19300000000.0,-2.3058397707963225,-9.719249696065173,-1.7443014282715603,-0.506703588016235,-0.6093252077504667,-0.2716576991834927,4.771344524062345,-4.236396132151657,-5.601320832095119
385,19.3,9.35,0.5770000000000001,-4.34,-1.15,1.34,-3.93,16.1,6.33,-8.52,,,,,135,19300000000.0,2.137104692662069,-3.4493591401464156,-2.7396364309631536,-0.925827151607304,0.08815467978366065,-2.7650445826164924,9.383565079972248,2.5653115684054235,-6.816902560687452
386,19.4,-4.31,7.15,11.3,0.6729999999999999,-2.09,-3.62,1.23,14.4,7.7,,,,,135,19400000000.0,-0.32038678553081246,3.005109641176957,2.6439397228246393,0.11584840651307005,-0.6912016785951575,-3.3477495686706957,6.064015007027198,10.1834330564411,-0.7708531342688207
387,19.4,-13.6,-13.0,2.09,-0.498,2.63,4.19,-8.74,-5.65,-2.32,,,,,135,19400000000.0,-5.382277214036138,-6.741185226771852,2.4315284457477317,-0.28408906350261226,0.4971436032538691,1.7896936117126474,0.036876207051143695,-0.008725521147812998,-1.4160471210218957
388,19.5,2.75,-7.72,5.04,2.64,1.14,2.72,9.61,-1.67,1.48,,,,,135,19500000000.0,-2.2824357996541553,-7.337233337032121,3.4317612459497036,1.6210276060633118,0.7271613488127633,2.423755048396716,3.9343691942494807,-1.0781065157572396,-0.2098914478600471
389,19.5,3.86,-16.5,-7.88,-0.925,-0.0776,-1.05,10.9,-10.8,-11.6,,,,,135,19500000000.0,0.05892272153601352,-12.916890565605112,-0.9057960824943039,-0.037772579855718025,0.4392130655734664,0.05617588691380071,6.770277022337721,-7.336198558070415,-4.953683190059484
390,19.6,-0.168,-21.7,-1.49,0.275,-0.42,-4.1,6.24,-15.1,-4.85,,,,,135,19600000000.0,-0.02757512212411667,-18.265356384338084,-1.1298123028083078,0.16600652286785292,0.13178164748396676,-2.7765153056156766,6.554385952012105,-12.333844904909688,-4.910500818751255
391,19.6,-3.2,-19.9,-7.49,-1.62,0.121,-1.22,2.08,-12.4,-11.0,,,,,135,19600000000.0,-1.2368322477043938,-19.26077068149144,-3.5686612923252232,-0.9976210588475265,0.1279239111897927,-1.7156537498607343,4.732735133540505,-12.376429436350929,-7.446676381119933
392,19.7,-12.5,-17.6,-1.79,-1.02,0.8109999999999999,-3.33,-7.86,-9.34,-4.43,,,,,135,19700000000.0,-5.530098812134424,-18.2494463347778,-2.8866237879075007,-1.0122014820303207,0.37233249741821806,-2.8159306432603435,-0.3941283871538417,-10.421845836380843,-6.1902805552869085
393,19.7,-13.1,-7.71,6.35,-1.35,0.496,-2.44,-9.86,1.4,4.67,,,,,135,19700000000.0,-8.415575262312462,-11.83146147526756,0.6552105481620867,-1.2322856162329936,0.41658144485834564,-2.5597106676174426,-4.2479559372551225,-2.8119910407744877,-1.6671535265329611
394,19.8,-7.21,-1.28,2.1,-0.7120000000000001,-0.203,-0.985,-4.87,8.16,0.905,,,,,135,19800000000.0,-7.956037065364271,-5.406159967802148,1.2092230013562046,-0.893306631764565,0.19489160917265466,-1.4864478360757312,-4.5012078606217365,4.250802604297057,-0.59589419141716
395,19.8,-6.7,1.23,1.47,0.305,-1.0,0.805,-4.53,10.7,0.384,,,,,135,19800000000.0,-7.477263875273962,-1.3650772465333274,1.3092193918048516,-0.11258011435251636,-0.23264754519570255,0.07531577769056175,-4.512930051360243,8.402223207836213,-0.18778448707608958
396,19.9,1.53,5.37,4.33,1.07,0.20199999999999999,1.78,4.31,14.7,2.88,,,,,135,19900000000.0,-4.043897209666131,2.736240967424533,2.4675543598364422,0.6579002161447375,-0.07712812778431666,1.2371636262242536,-0.9208623255392898,12.456172669874448,1.0898969946681722
397,19.9,0.33799999999999997,-2.8,-0.639,1.39,-0.42,1.77,3.89,6.12,-2.65,,,,,135,19900000000.0,-2.3736164156020143,-0.6350471820161134,1.2763289446065014,1.1348813868370424,-0.19980966941716685,1.600324600332864,1.0377776819455902,8.377507154090912,-0.467708207862946
398,20.0,-32.3,-40.7,-3.14,2.68,0.695,6.31,-27.9,-32.5,-6.05,,,,,135,20000000000.0,-13.780881368706755,-25.03255899072906,-0.4171368051751654,2.141564556891481,0.12035842230634605,4.81026001484482,-10.743621010674104,-17.9358028637956,-2.7926403718349424
399,20.0,-8.93,-20.4,-5.8,1.43,-2.21,2.61,-2.17,-14.2,-9.34,,,,,135,20000000000.0,-11.931834463244511,-22.21156677968108,-2.4812254808614,1.6779625527596393,-0.7134573630829346,3.310646481855188,-7.253054149975297,-15.53102452031509,-5.519507291386118
400,20.1,-5.44,-13.9,-2.6,-0.0137,-1.67,2.44,1.61,-8.63,-6.94,,,,,135,20100000000.0,-9.457293001183896,-17.150246602346826,-2.526770189227008,0.57580241230172,-1.0557138561551178,2.7172470246218206,-3.644650724258365,-11.088757677861727,-6.111119003942712
401,20.1,1.43,-8.9,-2.68,-0.589,-0.9,0.3,8.54,-4.17,-7.51,,,,,135,20100000000.0,-5.307301469323922,-12.126267283216814,-2.5855270315119765,-0.18309526119147268,-0.9999985259391674,1.0697434861590365,1.3160698650530955,-6.635075778366485,-6.69372986761959
402,20.2,12.6,-3.38,-6.84,-1.19,1.09,-2.45,19.4,1.73,-11.7,,,,,135,20200000000.0,1.5185597791244891,-6.800236988401468,-4.216928232178185,-0.8391187273383287,-0.2521849085178318,-1.3291797087064343,8.678556076167137,-1.2503826278907244,-8.77875839077289
403,20.2,1.07,4.66,9.31,0.0706,0.292,-4.62,7.2,11.3,5.52,,,,,135,20200000000.0,1.347578886446229,0.1784623121647808,0.9700472206796693,-0.2464143951595793,-0.05747239067361404,-3.572077458635449,8.076593434428325,6.828439613024759,-2.823562327000359
404,20.3,-21.7,0.0934,-1.06,-0.688,-0.9690000000000001,2.09,-17.1,7.42,-5.64,,,,,135,20300000000.0,-7.437640802710771,0.12666370658054366,0.19161443108929588,-0.534118392159541,-0.3836222544237853,0.286978921507933,-2.1735196405092143,7.209233720787979,-3.996561919902094
405,20.3,-2.21,-6.93,12.9,1.41,3.28,2.34,4.09,-0.38299999999999995,9.25,,,,,135,20300000000.0,-5.444981561639018,-4.170484212873921,5.064714874623614,0.7325229719069125,0.9272430460983134,1.686239870916966,0.37653882235615344,2.322027695413733,1.520411746850237
406,20.4,-0.302,-11.0,-7.35,0.0205,0.36200000000000004,0.5770000000000001,6.59,-5.07,-11.0,,,,,135,20400000000.0,-3.484592501915288,-8.329310747582214,0.3042239700095122,0.268622333557344,0.7249957987504198,0.9302242189788525,2.9062170499728763,-2.436303584279722,-3.6941323984112557
407,20.4,8.96,-23.9,-4.45,-0.254,1.97,-3.02,15.8,-17.8,-7.84,,,,,135,20400000000.0,1.2590066555522235,-17.811065539371885,-1.518809378896233,-0.0718790936044505,1.170465539715333,-1.7620982093334032,8.155645790133825,-12.32608686309248,-5.420817659381913
408,20.5,-12.4,-21.6,-5.86,-1.15,-2.52,-1.3,-6.73,-14.3,-9.12,,,,,135,20500000000.0,-3.947499740297763,-20.118333470328405,-3.1834629347786363,-0.7743016077165192,-0.15000444752750886,-1.447149629584184,2.095272657311667,-13.59671702023243,-6.961465795384326
409,20.5,-8.49,-16.8,-0.256,-1.59,0.816,-2.92,-3.45,-8.81,-3.03,,,,,135,20500000000.0,-5.678998722657212,-18.097637290613946,-2.0609111190889076,-1.3057493777974236,0.19563754620464124,-2.450988422157378,-0.1623668261388449,-10.515453835445477,-5.324075387679575
410,20.6,-14.3,-11.0,3.55,-1.87,0.33399999999999996,-2.74,-10.6,-2.14,1.69,,,,,135,20600000000.0,-8.965130845412492,-13.775538445248845,0.09062370043461643,-1.6733726660575006,0.24514443232576805,-2.647967717348328,-4.41182666011153,-5.124080292987622,-2.4028291231685768
411,20.6,-8.38,-4.19,1.65,-0.909,-0.317,-1.44,-5.58,5.14,0.483,,,,,135,20600000000.0,-8.742092153425617,-7.938434814455015,0.6885751402741084,-1.1753648889134705,0.044005890471429415,-1.8246629479339616,-4.887423483515085,1.4830232729554327,-1.2009290805690183
412,20.7,-8.81,2.52,4.36,0.0553,-1.32,0.495,-6.47,12.0,3.51,,,,,135,20700000000.0,-8.767977259205663,-1.569781824364747,2.096403318211555,-0.37355616780463263,-0.4440433542585752,-0.24366898970872009,-5.531735665368236,8.252919197049867,0.7610948610376487
413,20.7,0.467,3.94,4.18,1.37,-0.22399999999999998,2.02,3.38,13.2,2.91,,,,,135,20700000000.0,-5.247811352514496,1.7853941213129558,2.8953699003451376,0.7624139539626298,-0.365310567179116,1.2991616020490238,-1.9035125584232127,11.437410495455003,1.6560782997001482
414,20.8,0.6729999999999999,-4.05,0.484,2.01,0.319,1.66,4.46,4.78,-1.49,,,,,135,20800000000.0,-2.9909310610266395,-1.7680631752024492,1.970716801595019,1.5752472220226603,-0.12046027162296549,1.545095294105539,0.687255841210165,7.151960795644837,0.3457887852924042
415,20.8,-27.4,-36.3,4.3,2.78,-1.09,4.73,-22.9,-28.2,1.26,,,,,135,20800000000.0,-12.295119741467092,-22.79624972096326,2.8638933735446885,2.360173540386342,-0.46736722676889275,3.7158051042662645,-8.915792027684141,-15.604493523471842,0.7265426122306762
416,20.9,-6.99,-19.1,-7.22,2.55,0.716,2.53,-0.0664,-13.2,-10.9,,,,,135,20900000000.0,-10.27292716741554,-20.545422530408892,-1.002831117724155,2.483850159279829,-0.04395155598970529,2.9076054696916844,-5.312950849003104,-14.056693940207662,-4.115719682721564
417,20.9,-9.7,-14.1,-0.9,0.267,-0.152,3.6,-1.79,-9.67,-4.6,,,,,135,20900000000.0,-10.054540127047343,-16.620489417151575,-0.963399948918405,1.0395172512631219,-0.08261191475256535,3.3795151568619954,-3.878656551101006,-11.232929879458906,-4.317414375107959
418,21.0,-2.55,-7.86,-2.94,-1.0,-1.78,0.0856,5.49,-4.24,-7.24,,,,,135,21000000000.0,-7.193977972405898,-11.285798580284883,-1.721338170209941,-0.28927885907085327,-0.6899472151252041,1.1345079888392284,-0.06440799288913857,-6.731502305107232,-5.534622792365138
419,21.0,6.89,-2.07,-3.92,-0.94,-0.966,-2.56,14.4,2.18,-8.55,,,,,135,21000000000.0,-1.8254819613647406,-5.673847580172221,-2.564427213521938,-0.713239831832974,-0.7887205114364751,-1.3835279662118865,5.824466994060627,-0.9950682375387903,-6.790477541900698
420,21.1,4.65,3.33,0.682,-1.37,1.87,-3.99,11.4,9.04,-3.55,,,,,135,21100000000.0,0.6428263524369942,-0.19096400822379422,-1.3195667871062733,-1.141135385390239,0.16258512371404743,-3.1600000816883953,8.094426158184298,5.464617760089494,-5.440872290550285
421,21.1,-14.3,4.26,-1.17,-0.466,-3.85,-0.37799999999999995,-8.6,11.2,-5.13,,,,,135,21100000000.0,-5.053043494019109,2.5194460341991483,-1.262214560606509,-0.7012679187849185,-1.2731410933595528,-1.263894731661448,1.2976465380342352,9.156547538539218,-5.311399177474462
422,21.2,-8.63,-7.26,8.48,1.68,5.29,3.27,-2.49,-0.7509999999999999,4.45,,,,,135,21200000000.0,-6.416499015468093,-3.435737595410673,2.4734912088791785,0.8501871995705028,1.0751888766606683,1.826235297565589,-0.24441295120388307,2.77894802942465,-1.245938155502107
423,21.2,0.175,-12.3,-1.9,0.0339,-0.8059999999999999,0.000687,7.34,-6.72,-5.67,,,,,135,21200000000.0,-3.9039676439966957,-8.83362108248722,0.7964518746716533,0.3183558287757703,0.4020885779271709,0.5820110771678919,2.8434190442351968,-3.3356312642463113,-3.088486679766334
424,21.3,10.8,-26.1,-3.88,-0.13699999999999998,2.33,-2.92,17.9,-20.4,-7.6,,,,,135,21300000000.0,1.7008546278229852,-19.347964796620985,-0.9967594520382417,0.021680207898434223,1.0919064493926698,-1.8048264023075398,8.973384620078026,-14.320156643278606,-4.967457223919112
425,21.3,-14.2,-20.5,-3.26,-0.59,-2.37,-2.53,-8.19,-13.5,-6.64,,,,,135,21300000000.0,-4.360193933467025,-20.049495435405387,-1.8646115283605083,-0.3768446124585725,-0.14678373437433745,-2.2990770993961025,1.9856788926958675,-13.792212609498177,-5.664043536001806
426,21.4,-9.25,-22.6,-1.71,-1.22,0.797,-2.47,-3.72,-15.2,-4.91,,,,,135,21400000000.0,-6.224078175776601,-21.602622769350784,-1.8053248990663582,-0.9261812933302184,0.19090756141351833,-2.4155716608559423,-0.3372665597483322,-14.698421025951799,-5.349996827226756
427,21.4,-13.6,-12.1,6.54,-2.02,0.426,-3.7,-9.41,-3.58,4.14,,,,,135,21400000000.0,-9.03561404951737,-15.816010750599878,1.394735980530985,-1.6388313170495112,0.2750250003614078,-3.2909891507037816,-4.031036367425008,-7.54136860908188,-1.3975703656770486
428,21.5,-6.47,-4.3,3.93,-0.645,0.23,-1.57,-3.45,4.87,2.24,,,,,135,21500000000.0,-8.05765952029152,-8.803348098786701,2.3668969876804216,-0.9913255345167193,0.2589147953450318,-2.118028499960231,-3.7944798252039145,0.4479685516856007,0.11741745473705101
429,21.5,-7.74,1.45,4.33,-0.24,-0.23199999999999998,-0.26,-5.21,10.8,2.91,,,,,135,21500000000.0,-7.936574758882968,-2.5595824102257323,3.119659643765476,-0.5018182972671585,0.08326263409174187,-0.8516670036476583,-4.370778682333825,7.111687471884295,1.2804818733486545
430,21.6,-4.67,4.95,3.12,0.43,-0.982,1.56,-1.93,14.2,1.56,,,,,135,21600000000.0,-6.691429860626904,2.0133698710859305,3.119790111359185,0.10528445593783331,-0.29789451807958256,0.7920333740779475,-3.3770676900763847,11.674513657297751,1.3968965202401438
431,21.6,0.462,-0.9940000000000001,2.02,1.34,0.0562,1.97,4.04,7.91,0.0141,,,,,135,21600000000.0,-3.964703066684562,0.1820351055224685,2.6980695155983234,0.9097323004735657,-0.17119744341789064,1.5948906002265786,-0.35736682534977593,9.251253878448379,0.8209846698049834
432,21.7,-11.5,-13.5,1.12,1.55,-1.14,2.32,-6.99,-5.18,-1.55,,,,,135,21700000000.0,-6.836989006868812,-8.149625940333573,2.092950051580729,1.3268825671920061,-0.5178406171546402,2.089097516458036,-3.0577018339620996,-0.03830605733790904,-0.16649116004524522
433,21.7,-6.51,-35.0,0.402,2.58,1.36,4.14,-0.321,-28.2,-3.12,,,,,135,21700000000.0,-6.712348229216434,-24.5001332949954,1.4445459250125032,2.1433196275290056,0.15406166205605798,3.486914479705285,-1.9435120688402385,-18.166304925375698,-1.3965786319274216
434,21.8,-9.84,-18.7,-3.85,0.0944,-0.873,2.73,-2.92,-13.1,-8.03,,,,,135,21800000000.0,-7.904538892011912,-20.968148622727774,-0.5856768963931449,0.8083976380038638,-0.21342697215775197,2.971030399322788,-2.34106832946516,-14.905067844398673,-4.159288666140451
435,21.8,-4.3,-12.0,-1.88,-0.46799999999999997,-1.68,1.79,3.14,-7.49,-6.38,,,,,135,21800000000.0,-6.530569700863826,-15.507003847323016,-1.0819922326059441,-0.02320710012658167,-0.7381752965283138,2.1660850153632025,-0.1095682451177673,-10.131905325450013,-5.084178207729493
436,21.9,2.53,-4.52,-3.29,-1.14,-0.5920000000000001,-0.99,9.85,-0.0417,-8.03,,,,,135,21900000000.0,-3.0768840518467617,-8.816479271240233,-1.928664983393711,-0.7508253840478123,-0.6858729295808496,0.015017615593302835,3.9452576517697757,-3.636726942278913,-6.31106408800406
437,21.9,10.2,-0.45,-3.2,-1.64,1.89,-4.03,17.0,5.1,-7.61,,,,,135,21900000000.0,1.9839658630552583,-3.721720414325752,-2.4161654308773834,-1.330144706473078,0.2357893530088454,-2.741912539032512,9.260217499477129,1.9872021588225204,-6.852049439615125
438,22.0,-2.82,4.82,11.8,0.706,-1.98,-4.39,2.78,12.0,8.15,,,,,135,22000000000.0,0.15280200369532815,1.4797514516637342,3.0351017422720843,-0.0035459120385208376,-0.5570329474627522,-3.8651861181942824,6.621935176665689,8.432552476985464,-0.6039444519530504
439,22.0,-10.6,-9.26,2.81,-0.836,2.12,3.57,-5.95,-1.81,-1.6,,,,,135,22000000000.0,-3.945924746134315,-5.060209163029601,2.9487852148165317,-0.5459104284512082,0.40082494095188126,1.2023536344704029,1.5035400466945434,1.8393065586428659,-1.0187851022259553
440,22.1,0.0718,-7.1,15.2,1.6,2.69,2.57,6.58,-0.616,11.8,,,,,135,22100000000.0,-2.4144583149172623,-6.30233761339819,7.646581071133613,0.8522034930496072,1.2199050867135672,2.134489284966234,3.5703123885072734,0.2587981794222922,4.320026683703446
441,22.1,-0.754,-17.8,-5.09,-0.618,-0.381,-0.0885,6.16,-11.8,-8.52,,,,,135,22100000000.0,-1.7815289040231608,-13.303826699596785,2.7626687018606635,-0.10567055440110629,0.6470919487336031,0.6193844179057593,4.624648391090766,-7.503585636230092,-1.027631980348068
442,22.2,6.26,-16.0,-5.54,-0.098,2.08,-3.5,12.9,-9.47,-8.69,,,,,135,22200000000.0,1.2837213801301963,-14.945658626396886,-0.42103542347902767,-0.10067299615457186,1.1597947405220395,-2.1882311750100545,7.9937811036547455,-8.769388798073248,-4.21888119127412
443,22.2,-9.69,-24.5,-7.19,-1.69,-2.34,-1.5,-4.38,-16.8,-10.3,,,,,135,22200000000.0,-2.8992145685557507,-20.763764867706666,-3.016632273309456,-1.1361590237843622,-0.0924521039977555,-1.719159007311913,2.956060053004559,-13.93878284447123,-6.751566546710119
444,22.3,-11.4,-17.0,3.21,-1.41,1.09,-2.59,-6.71,-8.67,0.86,,,,,135,22300000000.0,-6.139522892918922,-18.471824166474583,-0.6289957458401898,-1.3145731948175732,0.3306361351480396,-2.312691016224249,-0.9792701051552868,-10.547208258640046,-3.5814751272330256
445,22.3,-11.4,-9.92,5.55,-1.47,0.17300000000000001,-2.68,-8.07,-0.8079999999999999,4.05,,,,,135,22300000000.0,-8.14469846481134,-13.264199782115828,1.740374350753798,-1.415837634751728,0.27423300836335535,-2.563034881490337,-3.866109389666319,-4.277970642656249,-0.4030920401889273
446,22.4,-6.14,-2.97,0.7090000000000001,-0.386,0.491,-0.845,-3.64,6.46,-0.318,,,,,135,22400000000.0,-7.380552386795456,-6.995557549943431,1.3448881600376614,-0.7448728597957787,0.35179349515630154,-1.3920877319229603,-3.774053818009055,2.6341815691176063,-0.3676526099705377
447,22.4,-8.88,2.83,3.17,0.382,-0.102,0.9940000000000001,-6.49,12.3,2.23,,,,,135,22400000000.0,-7.952108181380757,-1.0122945466214501,2.0447373979563928,-0.010687222944823604,0.18942354890163152,0.23417883903050218,-4.879793273010639,8.856177470397064,0.7142266909727644
448,22.5,1.73,5.47,4.76,0.718,-0.675,2.36,4.92,14.7,3.57,,,,,135,22500000000.0,-4.261506005831001,2.935091847088329,3.085919917256426,0.4640705855167904,-0.11987221932797057,1.6830575401331453,-0.8900164717515593,12.6179114800674,1.903608952655964
449,22.5,0.797,-3.23,0.22,1.65,-0.0935,1.82,4.86,5.5,-1.6,,,,,135,22500000000.0,-2.3333171392947833,-0.8191344320630627,1.9869671062000627,1.2367330184719432,-0.11043608730759001,1.7763923430829496,1.4509801228524073,8.036031994391795,0.44441383630697895
450,22.6,-31.6,-42.9,-4.64,3.25,-0.0849,4.74,-26.7,-34.9,-7.39,,,,,135,22600000000.0,-13.48911943033187,-26.444234677557755,-0.5541799567482715,2.548426426537737,-0.1012991267405981,3.796274340515692,-10.010091194410661,-19.602374542935024,-2.818489727206482
451,22.6,-10.5,-20.1,-7.56,1.63,-2.1,2.55,-3.93,-13.9,-11.2,,,,,135,22600000000.0,-12.349734242295726,-22.5809198020415,-3.2406002987276272,1.9500488110546383,-0.816445867964251,2.946861163597586,-7.534711799561039,-15.931691821054125,-6.309249872362587
452,22.7,-5.29,-15.3,-2.38,0.507,-1.22,2.65,1.83,-10.0,-6.68,,,,,135,22700000000.0,-9.65872210374282,-18.14721137813548,-2.9105984080155185,1.0098667129070864,-0.9608398893632945,2.7445319610910732,-3.7220691521280886,-12.113395239768133,-6.463661089132447
453,22.7,1.23,-8.2,-2.82,-1.01,-0.5529999999999999,0.20800000000000002,8.49,-3.55,-7.49,,,,,135,22700000000.0,-5.508185802822608,-12.089867240069783,-2.8758579228093586,-0.3061265777450821,-0.8149123997951597,1.0157283459479693,1.2498141875142088,-6.601041608343758,-6.8911141532499585
454,22.8,10.5,-2.46,-5.47,-1.03,0.191,-2.4,17.5,2.73,-9.99,,,,,135,22800000000.0,0.5937750643085877,-6.225769624164477,-3.870595940116587,-0.7777480603550482,-0.45499110373555585,-1.3123021217398716,7.865730672672139,-0.5945454145693239,-8.181748693248604
455,22.8,1.77,4.18,6.27,-0.0626,0.823,-4.71,7.89,10.9,2.51,,,,,135,22800000000.0,1.0421255832588188,0.11081286016091951,0.01787153641007455,-0.31181135005029775,0.0022815371459342093,-3.6280436700782683,7.875611357193825,6.804622196859691,-3.7288124297680794
