,Time (s),Acceleration x (m/s^2),Acceleration y (m/s^2),Acceleration z (m/s^2),Gyroscope x (rad/s),Gyroscope y (rad/s),Gyroscope z (rad/s),Linear Acceleration x (m/s^2),Linear Acceleration y (m/s^2),Linear Acceleration z (m/s^2),Still,Walk,Run,Cycle,RPM/SPM,Timestamps,Acceleration x (m/s^2)_kalman,Acceleration y (m/s^2)_kalman,Acceleration z (m/s^2)_kalman,Gyroscope x (rad/s)_kalman,Gyroscope y (rad/s)_kalman,Gyroscope z (rad/s)_kalman,Linear Acceleration x (m/s^2)_kalman,Linear Acceleration y (m/s^2)_kalman,Linear Acceleration z (m/s^2)_kalman
0,0.0519,-2.34,3.11,7.98,-1.49,-1.12,0.569,-4.55,-2.49,0.23800000000000002,0.0,0.0,0.0,1.0,30.0,51900000.0,-2.082679011934629,2.5370197318291776,8.144270589179257,-1.3973211977617626,-0.6140568144394055,0.5496904775644913,-4.135199480182993,-2.508748082708503,0.6350290251702059
1,0.102,-0.953,2.2,9.79,-1.32,0.853,0.0899,-3.43,-2.76,1.7,0.0,0.0,0.0,1.0,30.0,102000000.0,-1.542151587227702,2.3011634820673303,9.010455108877228,-1.3406914080406809,0.3623682049068093,0.2325883197512767,-3.8239718031144627,-2.6231056122428518,1.2224740356623336
2,0.152,-3.67,0.35,9.96,-1.2,1.86,1.28,-5.58,-4.03,1.4,0.0,0.0,0.0,1.0,30.0,152000000.0,-2.7363140900853127,0.8522941099926629,9.579681084223768,-1.2340075751838575,1.4129884499387595,0.9865003212979124,-4.750907509481294,-3.3834167606674272,1.3327224485297826
3,0.20199999999999999,-4.57,-0.182,11.7,0.8140000000000001,1.29,2.08,-6.12,-4.15,2.87,0.0,0.0,0.0,1.0,30.0,202000000.0,-3.7935752626443238,0.08136402002254606,10.874927047554769,0.3220394578617045,1.326319673327281,1.77615020643711,-5.498966452963062,-3.810977537478538,2.302347413609308
4,0.252,-2.56,3.67,8.79,0.00458,1.43,1.11,-3.8,-0.456,-0.0156,0.0,0.0,0.0,1.0,30.0,252000000.0,-3.0789467314861048,2.7568711261247727,9.59771755396964,0.08081075441351634,1.399410769124236,1.294982005408078,-4.564243293586273,-1.928457903738893,0.8372619577770866
5,0.302,-2.21,3.24,8.62,-0.40399999999999997,0.597,1.19,-3.14,-0.7440000000000001,-0.29100000000000004,0.0,0.0,0.0,1.0,30.0,302000000.0,-2.5751324299922906,3.1170734744859825,8.998523573392912,-0.2875860268510595,0.8337189635675794,1.2191508317154163,-3.7795772495731654,-1.263077508263107,0.12392943749854224
6,0.35200000000000004,-2.87,2.43,7.74,-0.738,-0.00244,1.18,-3.78,-1.26,-1.3,0.0,0.0,0.0,1.0,30.0,352000000.0,-2.746121437634726,2.604817395434971,8.227189016880091,-0.6298455695716317,0.24423325750821534,1.19087109438465,-3.779810207091472,-1.2613483012955833,-0.7763702925316057
7,0.402,-2.51,2.38,6.66,-1.67,0.599,1.34,-3.62,-0.7809999999999999,-2.56,0.0,0.0,0.0,1.0,30.0,402000000.0,-2.6091947573252177,2.4372020792590856,7.266667984752612,-1.4202357733822673,0.49434115960773156,1.2985909530067095,-3.6917354721077658,-0.9914369965876803,-1.9041014843847686
8,0.452,-1.28,1.18,9.22,-2.05,0.985,0.626,-2.14,-0.9740000000000001,-0.309,0.0,0.0,0.0,1.0,30.0,452000000.0,-1.8383919906246933,1.499879410942861,8.463855556065603,-1.898779578363102,0.8402520153090387,0.8127603363238978,-2.8365326902030557,-0.981638924710076,-0.8955698248791981
9,0.502,-2.64,0.48100000000000004,10.5,-0.937,0.47,0.371,-1.48,-0.225,-0.484,0.0,0.0,0.0,1.0,30.0,502000000.0,-2.303246547124087,0.7402412123410158,9.711798551140486,-1.1679446315796085,0.5792270875463648,0.4936649104348661,-2.088909615983325,-0.556473705085608,-0.6353473621571135
10,0.552,-4.19,0.215,10.9,-0.747,-0.929,1.23,-4.55,-0.669,1.16,0.0,0.0,0.0,1.0,30.0,552000000.0,-3.3973797973954003,0.3486411036265698,10.440041211103503,-0.8480781442873753,-0.4840618462760531,1.0255396431104613,-3.4452860512209087,-0.6197037238854617,0.4997934525618384
11,0.602,-3.04,0.426,9.46,-0.414,1.13,1.47,-3.64,-0.182,-0.31,0.0,0.0,0.0,1.0,30.0,602000000.0,-3.190134299340431,0.40631698920242915,9.839378735993705,-0.5182318119250697,0.6538397906774565,1.3465853815930466,-3.5525984684233958,-0.3737522396859,-0.012213104082985038
12,0.652,-0.163,-0.9670000000000001,9.42,-0.47100000000000003,0.247,1.42,-0.41700000000000004,-1.2,-0.382,0.0,0.0,0.0,1.0,30.0,652000000.0,-1.4346912232977942,-0.6175765596761533,9.582343592089144,-0.4823413969346603,0.36702074892628256,1.3996147119294142,-1.8244815122560138,-0.8380317605893193,-0.24601755606077827
13,0.7020000000000001,2.22,-3.17,8.13,0.105,2.04,0.233,2.21,-3.4,-1.67,0.0,0.0,0.0,1.0,30.0,702000000.0,0.6846737698508216,-2.5205676234290717,8.692209327548017,-0.036033723734628986,1.5464586961136022,0.5569373993324682,0.39903532624449345,-2.27763549938172,-1.14635618143655
14,0.752,-0.8640000000000001,-5.16,7.04,-0.863,1.56,-0.8590000000000001,0.41,-5.26,-2.68,0.0,0.0,0.0,1.0,30.0,752000000.0,-0.21340620335312,-4.488429109941675,7.679578230800902,-0.6644270018307147,1.5560051746631427,-0.4658324392634787,0.40507826595955687,-3.9534655080886814,-2.116030263460755
15,0.802,-3.63,-5.98,4.42,-1.23,1.07,-1.89,-2.06,-5.46,-5.25,0.0,0.0,0.0,1.0,30.0,802000000.0,-2.1946979276171095,-5.600488332304925,5.681798609117904,-1.0941933695286268,1.2133751651363986,-1.4945471157200512,-0.9534960246584465,-4.800007096328723,-4.097539306374398
16,0.852,-8.5,-5.41,4.2,-1.23,0.968,-3.46,-6.53,-4.04,-5.31,0.0,0.0,0.0,1.0,30.0,852000000.0,-5.851159052396572,-5.458467275791857,4.773611320622279,-1.1973898246364991,1.040387488416056,-2.9142468359189606,-4.026865133534305,-4.372949080819733,-4.86413947076106
17,0.902,-14.7,-3.09,3.16,-3.01,0.815,-2.07,-12.5,-0.6940000000000001,-6.1,0.0,0.0,0.0,1.0,30.0,902000000.0,-10.982624897402617,-3.6926270088401574,3.784636830862171,-2.5747520100133365,0.8814909776781303,-2.304424500399393,-8.696649301085555,-2.305699156569696,-5.645534580274787
18,0.9520000000000001,-16.7,-0.706,6.87,-3.72,1.65,-0.7559999999999999,-14.2,3.52,-1.61,0.0,0.0,0.0,1.0,30.0,952000000.0,-14.2981460807051,-1.4659101149380849,5.675640863898477,-3.4450005297625483,1.423284126426564,-1.1859556579610584,-11.72970135049003,0.9678378929692166,-3.0939948693998294
19,1.0,-15.4,0.445,11.3,-0.636,2.22,0.871,-12.1,5.74,3.79,0.0,0.0,0.0,1.0,30.0,1000000000.0,-14.937113822458285,-0.041207343209344716,9.122783382216397,-1.3105034314842396,1.984962933253527,0.29983895316326037,-11.933783615127988,3.649378485062589,1.2585353578264828
20,1.05,-11.9,-0.998,8.46,-0.619,3.4,1.4,-7.18,4.19,1.59,0.0,0.0,0.0,1.0,30.0,1050000000.0,-13.175883370577374,-0.7545560147300625,8.716566689254897,-0.7850453538233315,2.9825536461457203,1.0945149683948863,-9.313838976762403,3.953160864562467,1.468109893392453
21,1.1,-6.6,-0.14800000000000002,9.93,0.792,1.18,1.15,-0.79,4.88,3.84,0.0,0.0,0.0,1.0,30.0,1100000000.0,-9.36251138961491,-0.30233064360640755,9.460274259757854,0.4133163623478562,1.711766646796301,1.1345932877979588,-4.61611035239742,4.473964042316054,2.96778025401195
22,1.15,-4.8,-0.441,7.16,1.17,0.41200000000000003,1.23,1.65,3.86,1.14,0.0,0.0,0.0,1.0,30.0,1150000000.0,-6.716699240001818,-0.4057173159166769,8.05044724305906,0.9883034110440685,0.795440793305426,1.2035081461247144,-1.1626798021211178,4.128969504222204,1.8121331244614496
23,1.2,-9.51,-1.97,1.79,-0.163,0.16,0.444,-2.9,2.02,-4.25,0.0,0.0,0.0,1.0,30.0,1200000000.0,-8.336541772272023,-1.571987726786255,4.21344950648807,0.11345353123427593,0.3474597405569499,0.6548949068480283,-2.1201661312350897,2.943911761294391,-2.020760175501457
24,1.25,-9.42,-2.92,2.49,-0.0626,0.0415,0.332,-2.66,0.871,-3.52,0.0,0.0,0.0,1.0,30.0,1250000000.0,-8.964842069942321,-2.5770150814710773,3.157155679248505,-0.020325636193657293,0.1317603897227514,0.42165918717515927,-2.4176838851726683,1.7791153450353296,-2.9686816558239295
25,1.3,-11.2,-6.19,1.15,-1.46,-0.43700000000000006,-0.442,-4.57,-2.27,-4.95,0.0,0.0,0.0,1.0,30.0,1300000000.0,-10.261015875379488,-5.2707209173408645,1.9269796960047578,-1.1143022219428915,-0.26921147466456774,-0.20218516684536314,-3.6038862384483004,-0.49613586937778065,-4.2214058899348945
26,1.35,-7.08,-7.91,1.74,-1.05,-0.613,-0.44799999999999995,-4.74,-1.73,-4.76,0.0,0.0,0.0,1.0,30.0,1350000000.0,-8.416336424484863,-7.238468113673029,1.8123807541821353,-1.0654403561719923,-0.5115798201722446,-0.37974386871010196,-4.230030525187802,-1.1894603807879576,-4.561941901065643
27,1.4,-1.18,-6.32,3.44,0.0315,-1.97,-2.47,4.73,-1.54,-2.77,0.0,0.0,0.0,1.0,30.0,1400000000.0,-4.219966019066915,-6.553692928594121,2.8099407209444798,-0.23189975522661943,-1.5397552592247183,-1.889592337474225,0.7080956153542477,-1.3864331867745854,-3.4289542152773826
28,1.45,-10.0,-3.77,3.02,0.535,0.44299999999999995,-2.11,-5.09,1.75,-3.4,0.0,0.0,0.0,1.0,30.0,1450000000.0,-7.571822806987395,-4.478276067264238,2.9386850212944653,0.35085034673193705,-0.14192750295068368,-2.0487986681446793,-2.4873988794027295,0.37596991678219016,-3.410647449336964
29,1.5,-8.52,-1.57,4.56,0.823,-1.22,-2.88,-4.05,4.21,-1.98,0.0,0.0,0.0,1.0,30.0,1500000000.0,-8.121673500840219,-2.3099747524228356,3.9323810632182585,0.7096263866975636,-0.9019606442821495,-2.649197918246573,-3.348592638131224,2.5303619228087113,-2.5060947386847743
30,1.55,-7.14,-4.4,3.81,0.617,-0.815,-4.25,-4.05,1.8,-3.13,0.0,0.0,0.0,1.0,30.0,1550000000.0,-7.552398398706143,-3.868219113026049,3.857374268810444,0.6392416414605429,-0.8406540328205542,-3.805500489336862,-3.735158169752547,2.1199619152640246,-2.9005701956649452
31,1.6,-6.56,-8.4,3.79,0.39399999999999996,-1.01,-2.23,-4.94,-1.94,-3.41,0.0,0.0,0.0,1.0,30.0,1600000000.0,-6.976903944557208,-7.246944371086583,3.816080883260387,0.4528879631385779,-0.9600416779887,-2.6674739554607596,-4.399180595829649,-0.1613841726427383,-3.222666456622689
32,1.65,-4.99,-14.1,4.68,-0.40700000000000003,1.57,-0.156,-3.66,-7.57,-2.49,0.0,0.0,0.0,1.0,30.0,1650000000.0,-5.824693029767036,-12.356325420998843,4.345572609322395,-0.2005217956951036,0.8236189926236075,-0.853368500885801,-3.9917973195144887,-4.324383048176965,-2.759424845379975
33,1.7,-3.57,-8.72,3.77,0.903,2.05,0.205,-1.35,-2.14,-3.16,0.0,0.0,0.0,1.0,30.0,1700000000.0,-4.517190619713349,-9.645218025281668,3.9928069404831925,0.638019892332804,1.6882084808809827,-0.08888035421427587,-2.535828144037771,-3.0969495116317685,-3.012695785448776
34,1.75,-3.38,-7.41,3.97,0.375,0.0385,-0.29600000000000004,-0.826,-1.04,-3.04,0.0,0.0,0.0,1.0,30.0,1750000000.0,-3.857730878329478,-7.978723342745486,3.978828694951529,0.4381569209498464,0.5251762271867184,-0.2384884700995077,-1.5934935019132896,-1.9411224767451154,-3.029959344768938
35,1.8,-4.46,-6.95,3.68,-0.742,-0.433,-0.5539999999999999,-2.18,-0.585,-3.43,0.0,0.0,0.0,1.0,30.0,1800000000.0,-4.2069883356642785,-7.211745731647658,3.7956780799073973,-0.45861808563588036,-0.1503309110588127,-0.4663909825640198,-1.9167338508326612,-1.1790993895919022,-3.282892325873235
36,1.85,-5.64,-7.48,3.64,0.239,0.519,-1.93,-3.73,-0.873,-3.34,0.0,0.0,0.0,1.0,30.0,1850000000.0,-5.037995461677117,-7.411746048390234,3.700263805033694,0.07148638962591602,0.3215424166653149,-1.523595260701853,-2.9160760987098713,-1.007098126785505,-3.3189996313485692
37,1.9,-4.05,-7.37,3.75,0.259,0.444,0.17600000000000002,-2.21,-0.7909999999999999,-3.28,0.0,0.0,0.0,1.0,30.0,1900000000.0,-4.465054425990243,-7.380621678043213,3.7307468773988695,0.2139738177775665,0.4078741094553944,-0.2959317093732161,-2.526937620369554,-0.8856697489075087,-3.294341391041418
38,1.95,-4.56,-6.94,3.7,0.429,-0.6559999999999999,-0.128,-2.7,-0.518,-3.48,0.0,0.0,0.0,1.0,30.0,1950000000.0,-4.520113578926478,-7.052110754419879,3.7119022947796783,0.37736742793096867,-0.34214926644650245,-0.17463010532157652,-2.6223172166827693,-0.6790712798167039,-3.411727416200283
39,2.0,-3.82,-8.25,3.83,-0.14300000000000002,-1.08,-0.061,-2.23,-1.92,-3.49,0.0,0.0,0.0,1.0,30.0,2000000000.0,-4.114115848923208,-7.945211963863894,3.784283758041136,-0.01804822207554807,-0.8623285958755619,-0.09255201231954231,-2.406100117943144,-1.3763654422849645,-3.4612166788757364
40,2.05,-2.87,-8.61,4.28,-0.073,-0.863,-0.818,-1.56,-2.2,-3.03,0.0,0.0,0.0,1.0,30.0,2050000000.0,-3.3926497553814734,-8.440852687466492,4.088105964023419,-0.059804856172374854,-0.8628019136632249,-0.616562696970657,-1.9397903914468864,-1.839176571459464,-3.188572117131333
41,2.1,-3.55,-11.5,4.31,0.27699999999999997,-0.271,-0.461,-2.65,-5.07,-3.0,0.0,0.0,0.0,1.0,30.0,2100000000.0,-3.4838975451723955,-10.721637972727112,4.2241037060381,0.19612567719956392,-0.4455859486769037,-0.5041955569217892,-2.331207037503177,-3.6546188911142563,-3.069343985799803
42,2.15,-2.22,-8.34,4.01,-0.745,-0.21,-0.43200000000000005,-1.67,-1.79,-3.27,0.0,0.0,0.0,1.0,30.0,2150000000.0,-2.7509600773132807,-8.945978306800445,4.092880724621618,-0.5190148149306753,-0.2794995960912234,-0.452046764710467,-1.9667971226042336,-2.6068649642212236,-3.196212367527544
43,2.2,-2.85,-10.1,4.16,0.27,0.175,-0.12300000000000001,-2.35,-3.45,-3.03,0.0,0.0,0.0,1.0,30.0,2200000000.0,-2.808393531609519,-9.806373801972533,4.134017709034996,0.08054001768244878,0.040919248897603955,-0.21436740356270798,-2.177991009245004,-3.08063366877316,-3.0911215741636404
44,2.25,-2.73,-7.63,3.97,-0.23399999999999999,-0.20199999999999999,-0.392,-2.22,-0.915,-3.15,0.0,0.0,0.0,1.0,30.0,2250000000.0,-2.762932929130429,-8.183751360283194,4.033492069207834,-0.15847195008596857,-0.13033702633504093,-0.3426762172859458,-2.2011433674474903,-1.8637356084893393,-3.1283485839967153
45,2.3,-1.05,-7.08,4.5,0.0156,-0.11,0.218,-0.613,-0.265,-2.54,0.0,0.0,0.0,1.0,30.0,2300000000.0,-1.7695986261614247,-7.360835763895799,4.319412514527378,-0.026198543746018266,-0.11599957305997416,0.06231535095448615,-1.325872646095693,-0.9653850122576774,-2.756354527522199
46,2.35,0.0982,-5.43,3.2,-0.524,0.222,-1.57,0.37,1.46,-3.78,0.0,0.0,0.0,1.0,30.0,2350000000.0,-0.6864573285536717,-5.92127704371632,3.6333300497069025,-0.40446679992736784,0.12228762315512037,-1.1167501433394111,-0.39122928445828997,0.39747078144380954,-3.4035728717557943
47,2.4,0.551,-9.39,3.87,-0.29,0.439,-3.89,-0.213,-2.13,-2.67,0.0,0.0,0.0,1.0,30.0,2400000000.0,0.031147404733450235,-8.50742679465165,3.7783838427810137,-0.3174860159909905,0.34556750916999723,-3.1199434783461526,-0.2930020868387499,-1.022748392948189,-2.9397582053613527
48,2.45,-2.75,-10.2,3.94,1.42,-0.706,-2.58,-4.99,-3.31,-2.7,0.0,0.0,0.0,1.0,30.0,2450000000.0,-1.581647232376688,-9.769345633977686,3.877437635767808,1.002790964716289,-0.39577977111439633,-2.729927668402858,-2.8816502987202552,-2.3079851539401366,-2.7881667742088565
49,2.5,-0.139,-11.2,4.26,0.311,-0.519,-0.46,-3.12,-4.71,-2.44,0.0,0.0,0.0,1.0,30.0,2500000000.0,-0.7450523370590049,-10.835987628602632,4.111908391281059,0.47711437556394054,-0.48264911496197904,-1.0902976232949093,-3.0130114943704256,-3.6577089435513273,-2.56803207089294
50,2.55,1.55,-12.1,4.2,0.146,0.45299999999999996,0.711,-1.4,-5.63,-2.55,0.0,0.0,0.0,1.0,30.0,2550000000.0,0.5858544742419819,-11.778388040413287,4.165899193572604,0.2255079179316581,0.17697658367024816,0.21082830980970502,-2.1240352454913327,-4.765965320683986,-2.556630937816909
51,2.6,2.1,-11.3,3.87,0.0632,1.03,1.44,-0.301,-4.77,-3.01,0.0,0.0,0.0,1.0,30.0,2600000000.0,1.4639113603252296,-11.421720035664475,3.984543944641878,0.10217373556612927,0.7783517505228149,1.098692255042581,-1.1193089824357405,-4.768232449396694,-2.843281720408077
52,2.65,1.35,-6.21,3.77,-0.0742,-0.317,-0.266,-0.747,0.306,-3.25,0.0,0.0,0.0,1.0,30.0,2650000000.0,1.397853879059134,-7.536057441864088,3.853050991152421,-0.03184874436747692,0.006136882537095545,0.11293818570952674,-0.9141189651641948,-1.9169544293164273,-3.1004367080690933
53,2.7,0.615,-8.49,3.58,-0.266,0.271,-0.154,-1.58,-1.94,-3.38,0.0,0.0,0.0,1.0,30.0,2700000000.0,0.9438748773500751,-8.247280997080214,3.6856993179093283,-0.2097750822305974,0.19286341601791807,-0.07987847352115024,-1.2811048521309853,-1.9299040710664077,-3.277195727575543
54,2.75,-0.21100000000000002,-8.71,4.35,-0.43200000000000005,-0.153,-0.0042,-2.4,-2.04,-2.5,0.0,0.0,0.0,1.0,30.0,2750000000.0,0.2741599250798419,-8.592266926901601,4.092845921525296,-0.37863886749945774,-0.05096772717204481,-0.02521386839644424,-1.897759652788206,-1.991768401679082,-2.785799673443403
55,2.8,0.852,-9.38,4.27,-0.33299999999999996,-0.27,-0.179,-1.44,-2.56,-2.38,0.0,0.0,0.0,1.0,30.0,2800000000.0,0.6092508912315293,-9.179571191554086,4.2014227842340395,-0.3439589095298367,-0.20538386389979224,-0.1362977477375118,-1.645475398422038,-2.3110651862549916,-2.52922556348987
56,2.85,1.12,-9.32,4.33,-0.0119,-0.29,-0.128,-1.31,-2.42,-2.2,0.0,0.0,0.0,1.0,30.0,2850000000.0,0.9054356349164561,-9.284269406830433,4.280227088618159,-0.09163472336507061,-0.26503760690378597,-0.1303040648690515,-1.4605853906441628,-2.3722771352612133,-2.321066777167878
57,2.9,0.0431,-9.0,2.89,0.0425,0.0489,0.355,-2.37,-2.08,-3.62,0.0,0.0,0.0,1.0,30.0,2900000000.0,0.4053649497244324,-9.07232881884624,3.428163721541477,0.010291272531841922,-0.04371392000063151,0.2202441583992562,-1.961789428704443,-2.2080427218148184,-3.142340725798779
58,2.95,0.816,-9.62,3.27,-0.0785,0.00183,0.392,-1.43,-2.6,-3.2,0.0,0.0,0.0,1.0,30.0,2950000000.0,0.6434932780386474,-9.480651786819674,3.331225932995751,-0.05717924434752383,-0.011605793936839075,0.3443080334104424,-1.6687052115031653,-2.4282886235519308,-3.1787968748136217
59,3.0,0.7020000000000001,-10.8,3.83,0.366,0.0623,0.198,-1.41,-3.75,-2.66,0.0,0.0,0.0,1.0,30.0,3000000000.0,0.6774214914909171,-10.464308380751316,3.636922089748186,0.2643852570505614,0.04049724333541313,0.2386257892576047,-1.5261254372339574,-3.1709756483164684,-2.8507782226809026
60,3.05,-0.45,-8.91,3.59,0.0907,-0.301,0.17,-2.54,-1.94,-3.0,0.0,0.0,0.0,1.0,30.0,3050000000.0,0.023626833603115238,-9.305474343217124,3.608163716200083,0.13240569023216134,-0.20025578181439146,0.1890555298242082,-2.0849003508370947,-2.4792742560157235,-2.9451263900259965
61,3.1,0.441,-8.74,3.0,-0.135,-0.604,0.204,-1.69,-1.72,-3.5,0.0,0.0,0.0,1.0,30.0,3100000000.0,0.2656626303209164,-8.883877750614909,3.2354231279150265,-0.0707899555900744,-0.4848924441153766,0.1998503214314118,-1.8672596348615205,-2.0526280706377955,-3.295955264669776
62,3.15,2.38,-10.3,3.13,0.062,-0.24100000000000002,0.285,-1.74,-1.63,-3.39,0.0,0.0,0.0,1.0,30.0,3150000000.0,1.4917724544985025,-9.939685429545564,3.170809874913602,0.030114180048248396,-0.3129500760715392,0.26135623102722133,-1.7971232576083913,-1.815147790526352,-3.3554168156832294
63,3.2,1.59,-9.96,4.14,0.0956,0.134,0.0722,-0.5429999999999999,-2.84,-2.25,0.0,0.0,0.0,1.0,30.0,3200000000.0,1.5487348838053803,-9.954831238374087,3.7648217141527622,0.07987540056091538,0.0021464177047522126,0.12472357766127332,-1.1059404657603433,-2.3910256925366125,-2.656497042806255
64,3.25,-0.335,-8.87,4.89,0.13,0.0831,0.0954,-2.41,-1.78,-1.56,0.0,0.0,0.0,1.0,30.0,3250000000.0,0.456352104443857,-9.14602174549592,4.45443793961014,0.11796396618765148,0.059218092267494735,0.10354236432209779,-1.824644589243398,-2.047682294742242,-1.963216921463734
65,3.3,0.402,-8.91,3.99,0.158,-0.009770000000000001,0.161,-1.6,-1.83,-2.5,0.0,0.0,0.0,1.0,30.0,3300000000.0,0.4248331830577914,-8.970052687077802,4.169786187678761,0.14838646413072226,0.010581998218915561,0.14504556501659496,-1.7008366183597996,-1.9253637713231349,-2.302607730443683
66,3.35,0.204,-8.52,3.73,0.14400000000000002,0.159,0.284,-1.71,-1.43,-2.78,0.0,0.0,0.0,1.0,30.0,3350000000.0,0.29677144174997117,-8.634510656129216,3.900243380636931,0.14505328280294344,0.1152155856452017,0.24541611239331618,-1.7058868380620953,-1.6470123165264834,-2.6044476082901618
67,3.4,0.237,-8.68,3.74,-0.0308,0.0941,0.158,-1.5,-1.56,-2.77,0.0,0.0,0.0,1.0,30.0,3400000000.0,0.26210982871677396,-8.668426029132666,3.8020309966659442,0.011426281121197979,0.10032925317060629,0.18227309911335465,-1.5924167810119938,-1.598118918067977,-2.7091210898589466
68,3.45,0.431,-9.29,4.89,-0.168,-0.022,0.0502,-1.22,-2.08,-1.55,0.0,0.0,0.0,1.0,30.0,3450000000.0,0.36004967642643554,-9.131848197016465,4.468841833567282,-0.12491576098950441,0.014088036313229246,0.08687313346569951,-1.387167380228556,-1.8688941998315813,-1.9762457882583497
69,3.5,-1.06,-10.1,4.71,0.00458,0.0562,-0.00298,-2.68,-2.79,-1.66,0.0,0.0,0.0,1.0,30.0,3500000000.0,-0.46344080321795206,-9.853666086317517,4.616646526037999,-0.026514809893094904,0.04377665961288811,0.02196978872717542,-2.099684023241926,-2.386475655268239,-1.7762936483090612
70,3.55,-0.244,-9.28,4.49,0.16,0.0458,0.11,-1.83,-2.02,-1.91,0.0,0.0,0.0,1.0,30.0,3550000000.0,-0.33618651041465797,-9.42596200943283,4.539025344971548,0.11521364671439213,0.045203099894008815,0.08555638703274729,-1.951053557490995,-2.1805481486465785,-1.8608318861042918
71,3.6,0.158,-8.88,3.46,0.193,0.0489,0.145,-1.36,-1.66,-3.0,0.0,0.0,0.0,1.0,30.0,3600000000.0,-0.04960645928170199,-9.018913335670437,3.877695974398024,0.17432177082397798,0.047809387601623954,0.12849411085752638,-1.625307240260463,-1.8880452713589366,-2.581091527659118
72,3.65,-0.0287,-8.36,2.73,-0.0651,-0.00428,0.192,-1.47,-1.12,-3.72,0.0,0.0,0.0,1.0,30.0,3650000000.0,-0.03748274880270608,-8.527652056049353,3.1742786968383307,-0.007609511894038884,0.011086755365061159,0.17436613067909734,-1.539713045254519,-1.4564705235788602,-3.3011870242346935
73,3.7,-0.745,-10.4,4.36,-0.2,-0.0275,0.0789,-1.41,-1.04,-3.65,0.0,0.0,0.0,1.0,30.0,3700000000.0,-0.44777385172742473,-9.923604043030789,3.901001607258454,-0.15380277078891869,-0.016116621107871945,0.10540836796270665,-1.4682245005219734,-1.2224502314774193,-3.5217303966475075
74,3.75,-0.754,-8.36,4.29,-0.0858,0.0782,0.0251,-2.06,-0.97,-2.02,0.0,0.0,0.0,1.0,30.0,3750000000.0,-0.6253551988757341,-8.757839366791433,4.1394168097296875,-0.10212897606365215,0.05037589609092104,0.047399465313544095,-1.7943686767396065,-1.080595138595873,-2.572234182923422
75,3.8,-0.831,-7.98,4.36,-0.105,-0.0324,0.0483,-2.1,-0.528,-1.88,0.0,0.0,0.0,1.0,30.0,3800000000.0,-0.744609138511515,-8.177911577337397,4.2746112576772175,-0.10431060086221357,-0.007980497819379408,0.048049947113966415,-1.9628106868832929,-0.7700846528566394,-2.134556598889031
76,3.85,-0.345,-9.41,3.9,-0.0461,-0.175,0.0489,-1.6,-1.9,-2.28,0.0,0.0,0.0,1.0,30.0,3850000000.0,-0.5128747556602963,-9.096510294377062,4.045013895490027,-0.06007766017118441,-0.12572800702635,0.04866396381052854,-1.7628554735185584,-1.404998950071683,-2.2265158014562987
77,3.9,1.31,-9.03,3.79,0.0473,-0.12300000000000001,-0.14400000000000002,-0.00302,-1.49,-2.34,0.0,0.0,0.0,1.0,30.0,3900000000.0,0.5442150385605521,-9.046922519003374,3.888717093966489,0.021516237462925823,-0.1238047846843681,-0.09050241539529938,-0.7929603920034528,-1.4527621645531916,-2.29826818404829
78,3.95,0.0144,-10.7,3.24,0.215,0.212,-0.19899999999999998,-1.34,-3.14,-2.89,0.0,0.0,0.0,1.0,30.0,3950000000.0,0.23697391506044974,-10.279394830349847,3.491121543229361,0.1685402517563,0.11293509820893984,-0.16887315127091757,-1.0944494036360668,-2.400843378287341,-2.6724013923196264
79,4.0,-1.83,-9.03,4.76,-0.0718,0.0812,-0.0573,-3.18,-1.54,-1.43,0.0,0.0,0.0,1.0,30.0,4000000000.0,-0.9616696767160797,-9.347892793196223,4.268811127717612,-0.014088965470924864,0.09056209170539727,-0.08828085222859763,-2.2438553343535013,-1.91712412828143,-1.8868706103718471
80,4.05,-1.92,-8.06,4.22,-0.276,-0.154,-0.12300000000000001,-3.26,-0.529,-1.92,0.0,0.0,0.0,1.0,30.0,4050000000.0,-1.5174079069616737,-8.387688633486482,4.238894895986316,-0.2131093351958515,-0.08185236998539742,-0.11335943266038968,-2.803881381599682,-1.1371188949948914,-1.907817238966209
81,4.1,-0.201,-8.1,3.68,-0.32799999999999996,-0.155,-0.0244,-1.6,-0.457,-2.3,0.0,0.0,0.0,1.0,30.0,4100000000.0,-0.7540195295931158,-8.17319908299839,3.896350969265441,-0.3004122051765201,-0.13342090791188665,-0.04910163188357747,-2.1403883306007923,-0.7549511259982555,-2.1557818519990706
82,4.15,1.03,-9.85,4.09,-0.226,-0.239,-0.136,-0.428,-2.1,-1.74,0.0,0.0,0.0,1.0,30.0,4150000000.0,0.2805380342339856,-9.423359123409139,4.015037613321634,-0.2438680210538921,-0.20785338020977273,-0.11187067508266761,-1.1966427126565111,-1.5107517443236003,-1.8928962628011816
83,4.2,-1.11,-10.8,3.25,-0.102,0.0544,-0.151,-2.65,-2.94,-2.48,0.0,0.0,0.0,1.0,30.0,4200000000.0,-0.525838608573409,-10.449730974342224,3.546149775304206,-0.13606566298212247,-0.02296669013125896,-0.1401348381093318,-1.997629053904109,-2.3138651895658637,-2.2641032303154565
84,4.25,-0.36200000000000004,-8.23,3.73,-0.163,0.0189,-0.0952,-1.95,-0.391,-1.94,0.0,0.0,0.0,1.0,30.0,4250000000.0,-0.4308281653059922,-8.794782627515218,3.658830696894022,-0.15653246905224105,0.006549015839370176,-0.10767719272437502,-1.9713793620639843,-1.233381923580821,-2.0591831378087626
85,4.3,-0.711,-8.95,4.13,-0.25,0.11800000000000001,-0.134,-2.26,-1.03,-1.44,0.0,0.0,0.0,1.0,30.0,4300000000.0,-0.5933005579788475,-8.91050672576456,3.947608144808356,-0.22755636879367436,0.08512113424845687,-0.12669086964148427,-2.1304463499227433,-1.1190989268122677,-1.667693437349877
86,4.35,-1.24,-9.21,3.79,-0.275,-0.138,-0.142,-2.82,-1.2,-1.64,0.0,0.0,0.0,1.0,30.0,4350000000.0,-0.968323257429977,-9.13379768567262,3.8510108548543127,-0.26360773438913876,-0.07217760947851211,-0.1377490712594861,-2.5104788239502005,-1.164558331816105,-1.6501837517124975
87,4.4,-0.354,-9.64,3.03,-0.23199999999999998,-0.203,-0.0928,-1.99,-1.56,-2.27,0.0,0.0,0.0,1.0,30.0,4400000000.0,-0.612075598680162,-9.51120336607187,3.34781727138455,-0.23958971433789278,-0.1644064211942745,-0.10528114244896747,-2.2236282349530927,-1.3867621796060687,-2.04207377184031
88,4.45,-0.321,-9.99,3.98,-0.141,-0.0922,-0.0775,-2.0,-1.83,-1.19,0.0,0.0,0.0,1.0,30.0,4450000000.0,-0.44328010514369054,-9.86817597435103,3.7352790074275353,-0.16467358325578307,-0.11350143186437466,-0.08521407349740134,-2.1003803925121503,-1.6358233708994394,-1.503334756251458
89,4.5,0.46,-9.48,2.89,-0.111,-0.14800000000000002,-0.0561,-1.25,-1.29,-2.21,0.0,0.0,0.0,1.0,30.0,4500000000.0,0.08053438968056192,-9.578766212740382,3.2172116729273497,-0.123888221155522,-0.13782266808655197,-0.06418419180548127,-1.6317117172297637,-1.4415006440656655,-1.9501366605785495
90,4.55,-0.716,-10.1,3.97,0.322,0.0476,0.138,-2.45,-1.88,-1.11,0.0,0.0,0.0,1.0,30.0,4550000000.0,-0.38137799325638905,-9.967378822974045,3.678592000423018,0.214932327263605,-0.007101060421785016,0.08185890714213881,-2.0826935498422907,-1.6878992029959972,-1.4189450723303407
91,4.6,-0.965,-9.96,4.62,1.07,0.363,0.536,-2.5,-1.86,-0.701,0.0,0.0,0.0,1.0,30.0,4600000000.0,-0.7198219026573516,-9.961877478273271,4.255576321543489,0.8646792904081186,0.25381744833821396,0.4098972916077638,-2.3126829321285416,-1.7846049148392467,-0.965011300831477
92,4.65,-2.48,-8.84,6.91,1.14,0.8220000000000001,0.97,-3.6,-1.04,1.07,0.0,0.0,0.0,1.0,30.0,4650000000.0,-1.7405537853626634,-9.125447900067817,5.8824596100960935,1.0738893686086264,0.6543819554618131,0.8144746233421543,-3.0221597092090695,-1.366201587900794,0.32166142990667546
93,4.7,-4.24,-7.86,4.77,1.18,0.0525,1.36,-4.77,-0.355,-1.52,0.0,0.0,0.0,1.0,30.0,4700000000.0,-3.1899890345379154,-8.181977595974926,5.200638505721586,1.1545204395663213,0.23005963606470337,1.2085223443912003,-3.9854438958671206,-0.7979940956254244,-0.8427623030363164
94,4.75,-0.0215,-8.88,3.23,0.243,-0.519,1.26,-0.0892,-1.61,-3.35,0.0,0.0,0.0,1.0,30.0,4750000000.0,-1.3525739760012399,-8.702396956747489,3.992843747099835,0.46187631379595273,-0.29802185194391706,1.2457060382314757,-1.838113733376471,-1.2542709126231553,-2.428008619352914
95,4.8,0.0263,-9.5,5.08,0.317,-0.225,0.833,0.17800000000000002,-2.28,-1.55,0.0,0.0,0.0,1.0,30.0,4800000000.0,-0.5529613592791399,-9.297059814948598,4.659156488277274,0.3517880236369949,-0.24654198326349253,0.9475973253626628,-0.7269764559735379,-1.8306415760255814,-1.8728717610720214
96,4.85,-3.97,-7.08,6.34,0.43200000000000005,0.252,0.5539999999999999,-3.56,0.0364,-0.39399999999999996,0.0,0.0,0.0,1.0,30.0,4850000000.0,-2.5345110000193527,-7.644103268603099,5.689337407594446,0.41273933052797357,0.10492642325587792,0.6632913631695471,-2.2883357915091187,-0.7815263311771683,-0.9378283412229199
97,4.9,-3.56,-6.57,4.58,0.385,-0.546,0.684,-2.94,0.395,-2.29,0.0,0.0,0.0,1.0,30.0,4900000000.0,-3.129194713829153,-6.843292360177548,5.009429850900969,0.3916608224335303,-0.35397188401658697,0.6782497817820319,-2.6474863914395366,-0.12042068890337831,-1.7927633020208238
98,4.95,-2.4,-8.12,6.17,0.495,-0.47200000000000003,0.627,-1.71,-1.29,-0.8320000000000001,0.0,0.0,0.0,1.0,30.0,4950000000.0,-2.706332851828224,-7.795157517354351,5.72073770606538,0.47018597069719525,-0.4371808331324177,0.6412306618722532,-2.130811158612289,-0.7776226816618746,-1.1853033400297996
99,5.0,-2.6,-8.69,6.13,0.72,-0.025,0.636,-1.78,-2.07,-1.06,0.0,0.0,0.0,1.0,30.0,5000000000.0,-2.6446700982850673,-8.462318134833222,5.971572648692358,0.6600141219632513,-0.14659640058001222,0.6374523973668355,-1.9374691956066334,-1.5038264754352415,-1.1060780010406013
100,5.05,-2.68,-7.31,6.81,0.705,-0.0354,0.539,-1.62,-0.9840000000000001,-0.613,0.0,0.0,0.0,1.0,30.0,5050000000.0,-2.6651580391918133,-7.603192990513985,6.485440665654896,0.6941978783300368,-0.06820376183888617,0.5663375539234251,-1.762502949414623,-1.2117291498554912,-0.7943205023257436
101,5.1,-3.64,-6.14,7.19,0.66,-0.0403,0.48200000000000004,-2.41,-0.0845,-0.42100000000000004,0.0,0.0,0.0,1.0,30.0,5100000000.0,-3.2304714968439976,-6.512291178396065,6.917261695253297,0.6682116904573314,-0.04853181685208893,0.5054182564838208,-2.1193569265821646,-0.5783242488003306,-0.5582818657428625
102,5.15,-3.65,-4.94,6.51,0.521,-0.35700000000000004,0.263,-2.32,0.861,-1.28,0.0,0.0,0.0,1.0,30.0,5150000000.0,-3.4737572258425202,-5.34004999908739,6.667653120263613,0.5563488192173085,-0.26599959530374573,0.330313011923169,-2.2299369598993963,0.23045099829492177,-1.0146011901129794
103,5.2,-2.83,-5.48,7.35,0.389,-0.255,0.213,-1.51,0.136,-0.58,0.0,0.0,0.0,1.0,30.0,5200000000.0,-3.100440686518101,-5.444391475206717,7.085860150780417,0.429184169215148,-0.25824495876750103,0.24557465519146637,-1.8331593428194841,0.1773777429151985,-0.7398167174680905
104,5.25,-3.33,-5.14,7.08,0.214,-0.395,0.172,-2.02,0.341,-0.946,0.0,0.0,0.0,1.0,30.0,5250000000.0,-3.2335626871735497,-5.217448529607611,7.082268446065065,0.26567050200642284,-0.35465625695129777,0.19242969918445652,-1.9361325006222567,0.26931923828190585,-0.8701798139547174
105,5.3,-4.47,-6.7,7.75,0.23600000000000002,-0.5710000000000001,0.263,-3.23,-1.31,-0.354,0.0,0.0,0.0,1.0,30.0,5300000000.0,-3.9505757895634632,-6.322783055157743,7.4915178728235645,0.24312454795357114,-0.5071769784257759,0.2434045413829875,-2.6492194687637314,-0.6181210036930241,-0.5438157929675665
106,5.35,-0.397,-6.69,6.45,0.685,-1.06,0.196,0.659,-1.47,-1.79,0.0,0.0,0.0,1.0,30.0,5350000000.0,-1.8898479250936502,-6.596566253296223,6.853176509504612,0.5788958864649234,-0.8969130714969877,0.20916295734552132,-0.8259662046814882,-1.096803044075638,-1.3317382706457948
107,5.4,-3.41,-6.37,7.76,0.496,-0.396,0.262,-2.7,-1.38,-0.649,0.0,0.0,0.0,1.0,30.0,5400000000.0,-2.771388129778723,-6.427646883002199,7.4089643633796465,0.5159051382842654,-0.5437730666890637,0.24732857608492725,-1.8587992360729835,-1.2559351396483165,-0.9000646449605583
108,5.45,-1.93,-4.19,6.71,0.623,-0.266,0.114,-1.25,0.5760000000000001,-1.83,0.0,0.0,0.0,1.0,30.0,5450000000.0,-2.283464927391054,-4.759341491841921,6.980572522765827,0.5972841634174038,-0.347945115011564,0.1510217452685776,-1.5232727658067051,-0.2265466784034622,-1.488033117945204
109,5.5,-1.56,-3.35,6.72,0.129,0.0312,-0.308,-0.977,1.22,-1.94,0.0,0.0,0.0,1.0,30.0,5500000000.0,-1.8639256950107248,-3.708589362043095,6.820868760368418,0.24144542863526391,-0.080650619251045,-0.18054205537893725,-1.2222063999288837,0.5862869622526901,-1.773797389000661
110,5.55,-4.38,-8.24,9.7,0.0559,0.0544,0.0013,-3.88,-3.68,1.04,0.0,0.0,0.0,1.0,30.0,5550000000.0,-3.323003816264041,-7.087038690112848,8.58547419855682,0.10045358061375362,0.014559067011467391,-0.04919262838369717,-2.686991654060212,-1.810995891498542,0.005276872833303248
111,5.6,-3.81,-8.38,10.7,0.46,-0.581,0.515,-3.34,-3.96,1.92,0.0,0.0,0.0,1.0,30.0,5600000000.0,-3.605414140794425,-8.051022143585318,9.881456676768218,0.3736649212430738,-0.40530564088719256,0.35833893200422995,-3.046882967299087,-3.0185496164049015,1.2158951700953415
112,5.65,-0.63,-3.25,6.72,0.42700000000000005,-0.63,0.364,-0.36200000000000004,0.951,-2.14,0.0,0.0,0.0,1.0,30.0,5650000000.0,-1.8799637137591703,-4.471560437234474,7.943815103700903,0.4141930518760784,-0.5637134955603926,0.36242806894816204,-1.567168053813691,-0.7880074357282245,-0.9059303079727488
113,5.7,-0.204,-5.37,7.37,0.365,-0.23600000000000002,0.278,-0.0647,-1.32,-1.56,0.0,0.0,0.0,1.0,30.0,5700000000.0,-0.9080679806909109,-5.141403130013915,7.592126543072052,0.3768123521650971,-0.3326779107810979,0.3014433928174164,-0.7391154333148078,-1.0869410915564268,-1.3194776632500802
114,5.75,-1.83,-5.08,8.06,0.409,0.331,0.21899999999999997,-1.61,-1.19,-0.935,0.0,0.0,0.0,1.0,30.0,5750000000.0,-1.4426987892574787,-5.095623206686586,7.8788841699099645,0.40127103754986165,0.13521009817810886,0.24189230159101008,-1.2190845465381606,-1.1448512812909086,-1.0763847089941119
115,5.8,-2.59,-4.07,9.15,0.285,-0.0867,0.254,-2.23,-0.29600000000000004,0.109,0.0,0.0,0.0,1.0,30.0,5800000000.0,-2.108021705352814,-4.330957210732129,8.657944655558998,0.312919257161112,-0.021234876438637,0.2506380249587748,-1.7762286428830554,-0.6678705720602844,-0.3269037910320073
116,5.85,-1.26,-4.43,8.27,0.41100000000000003,-0.114,0.303,-0.9129999999999999,-0.795,-0.833,0.0,0.0,0.0,1.0,30.0,5850000000.0,-1.6162517000668477,-4.404799664779726,8.420175540670812,0.38744864424976144,-0.08663360113808369,0.2884604957323682,-1.300478926757659,-0.7393062808496169,-0.6468922744771592
117,5.9,-0.922,-4.46,8.33,0.414,-0.125,0.0978,-0.589,-0.987,-0.838,0.0,0.0,0.0,1.0,30.0,5900000000.0,-1.2136533223690327,-4.445954988945086,8.364907342945328,0.40762443290510747,-0.11368162801434492,0.15074127222761327,-0.9083627687554816,-0.8784886364737688,-0.7677235897685162
118,5.95,-1.51,-4.48,8.32,0.292,-0.0513,0.0349,-1.2,-1.12,-0.894,0.0,0.0,0.0,1.0,30.0,5950000000.0,-1.3855055284816498,-4.471337684127818,8.33738366349311,0.3197639924736183,-0.06970304283651788,0.0670659920496322,-1.0690923180039993,-1.0141970541826018,-0.8475641298924124
119,6.0,-0.831,-4.34,8.29,0.18600000000000003,0.0556,0.0117,-0.47,-1.04,-0.9420000000000001,0.0,0.0,0.0,1.0,30.0,6000000000.0,-1.0639463084483827,-4.373417355769836,8.308342422863364,0.21811971043409495,0.018634672852882395,0.027073640681101428,-0.7389156040512803,-1.028696047737096,-0.9072728988270117
120,6.05,-0.723,-4.7,7.77,0.145,0.191,-0.11599999999999999,-0.303,-1.47,-1.48,0.0,0.0,0.0,1.0,30.0,6050000000.0,-0.8662306487095203,-4.616904961386159,7.978394954507099,0.16255766416338285,0.14015095089391216,-0.07627231107704471,-0.49867019266603996,-1.276670565027098,-1.2693899782164189
121,6.1,-0.95,-3.96,7.97,0.124,0.425,-0.258,-0.172,-1.49,-1.48,0.0,0.0,0.0,1.0,30.0,6100000000.0,-0.9148087071970096,-4.127141334573963,7.973249599066886,0.1332585504501018,0.34096742799060314,-0.20753911827394303,-0.3186330174659614,-1.3965431887033193,-1.402551985373377
122,6.15,-3.2,-4.34,9.29,0.10300000000000001,0.373,-0.373,-2.47,-1.15,0.0444,0.0,0.0,0.0,1.0,30.0,6150000000.0,-2.239997128506421,-4.285840870871242,8.780279501995187,0.11026575045602052,0.36355015101643257,-0.3270559782586037,-1.5043121982624603,-1.258007311458214,-0.4876904254698927
123,6.2,-2.93,-4.52,9.96,-0.0357,0.0452,-0.35700000000000004,-2.12,-1.29,0.737,0.0,0.0,0.0,1.0,30.0,6200000000.0,-2.6401316328865487,-4.460421104531675,9.503324489625639,-0.0006503803047902962,0.13911565476441617,-0.3486853489371339,-1.8436350887403954,-1.275984402946909,0.28664223698962854
124,6.25,-0.965,-4.51,9.01,0.0302,-0.298,-0.374,-0.23199999999999998,-1.26,-0.20800000000000002,0.0,0.0,0.0,1.0,30.0,6250000000.0,-1.6687184126911498,-4.497385436654767,9.20096844590461,0.022792138782550774,-0.16904764806375921,-0.36697081428655437,-0.9554174253769007,-1.2670025511132692,-0.026104265530247195
125,6.3,-1.8,-5.04,9.89,0.44799999999999995,0.0819,-0.307,-1.2,-1.85,0.631,0.0,0.0,0.0,1.0,30.0,6300000000.0,-1.7448489200848316,-4.901938437280268,9.623272749744913,0.34589815410454533,0.007868584530010048,-0.3236522837928806,-1.0902138230866345,-1.594596507086949,0.3893617787473668
126,6.35,-1.94,-3.72,9.55,0.7829999999999999,-0.0287,-0.195,-1.39,-0.792,0.20199999999999999,0.0,0.0,0.0,1.0,30.0,6350000000.0,-1.8580175737356976,-4.020729572465442,9.57836435415498,0.6780421277712554,-0.01791199633628381,-0.23072325996632384,-1.2554344525070047,-1.1436069599409096,0.27089891019470036
127,6.4,-1.23,-3.17,8.04,0.892,0.14800000000000002,-0.245,-0.68,-0.635,-1.42,0.0,0.0,0.0,1.0,30.0,6400000000.0,-1.4938285550427772,-3.38645762725526,8.635508288741889,0.8406239751841117,0.09905473290351728,-0.24103573826053343,-0.938296261656408,-0.8578140072079288,-0.7982024780869494
128,6.45,-1.35,-3.69,7.61,0.501,0.359,-0.42100000000000004,-0.787,-1.46,-1.92,0.0,0.0,0.0,1.0,30.0,6450000000.0,-1.4104220144942718,-3.612767457082814,8.006979320491409,0.5825512537472963,0.28231421798449774,-0.37102878695567376,-0.8549126148477896,-1.1961902666865856,-1.5074792215843251
129,6.5,-3.57,-2.09,9.52,0.292,0.51,-0.33799999999999997,-2.84,-0.0431,-0.0396,0.0,0.0,0.0,1.0,30.0,6500000000.0,-2.6627668847629904,-2.4774491968211834,8.934302627969107,0.3617678093634793,0.4428310002739309,-0.34717120189657985,-1.9489503455914639,-0.5482536633285948,-0.5793860374070805
130,6.55,-3.79,-2.37,10.2,0.21600000000000003,0.203,-0.158,-2.8,-0.414,0.636,0.0,0.0,0.0,1.0,30.0,6550000000.0,-3.3164522875610523,-2.397339027875109,9.710042283887363,0.25100209452276817,0.27375191827534695,-0.21052773971336064,-2.4179878437457014,-0.4728147647962462,0.18906375049816526
131,6.6,-2.66,-2.49,9.04,0.486,-0.18600000000000003,-0.0604,-1.64,-0.6940000000000001,-0.5489999999999999,0.0,0.0,0.0,1.0,30.0,6600000000.0,-2.935773942836155,-2.4664235739594993,9.29937659858233,0.42957178188287304,-0.05036978014055282,-0.10208642055837304,-1.9892167408027939,-0.5971016639122,-0.27759041911310633
132,6.65,-2.0,-1.97,8.46,0.196,-0.00367,0.0606,-1.0,-0.318,-1.16,0.0,0.0,0.0,1.0,30.0,6650000000.0,-2.39311619158395,-2.0963088322304277,8.784926780884836,0.25208577134283183,-0.017446781222823657,0.015426375118006708,-1.444031428957094,-0.44027075786587055,-0.8355098136609294
133,6.7,-2.08,-2.08,8.21,-0.105,0.27399999999999997,0.10800000000000001,-0.907,-0.331,-1.15,0.0,0.0,0.0,1.0,30.0,6700000000.0,-2.211539250798314,-2.084149522860574,8.432556972228873,-0.019255768686575248,0.18802103198643583,0.08229480621614414,-1.1480582290194352,-0.37887008043946435,-1.0343519063685023
134,6.75,-2.81,-2.42,8.79,-0.192,0.36200000000000004,0.305,-1.52,-0.7070000000000001,-0.7809999999999999,0.0,0.0,0.0,1.0,30.0,6750000000.0,-2.558588167697075,-2.3345470755312507,8.651632044749384,-0.150520272625456,0.3106749070642474,0.24316078669755842,-1.353045843601588,-0.563250612215332,-0.8741655932235523
135,6.8,-3.85,-1.87,8.6,-0.27899999999999997,0.00733,0.35,-2.35,-0.0458,-0.9229999999999999,0.0,0.0,0.0,1.0,30.0,6800000000.0,-3.307481203746083,-1.9881982354587466,8.619987249059758,-0.24814917308317913,0.0968189955323348,0.32033363120526903,-1.9024954113655919,-0.2724883004292033,-0.9050420161963824
136,6.85,-2.88,-1.66,9.17,-0.39799999999999996,-0.126,0.449,-1.32,0.29100000000000004,-0.316,0.0,0.0,0.0,1.0,30.0,6850000000.0,-3.0595838045920645,-1.743505938639506,8.957087439890858,-0.36201748793710525,-0.060266746504740315,0.41327282453138764,-1.5814657514346335,0.044143199584497195,-0.5326095579876198
137,6.9,-2.44,-2.73,8.67,-0.446,-0.0153,0.494,-0.8490000000000001,-0.618,-0.777,0.0,0.0,0.0,1.0,30.0,6900000000.0,-2.70028557275408,-2.4789988563660312,8.781132988900373,-0.4258339400309633,-0.02856552351433167,0.47158423451474035,-1.1777831557818212,-0.3279237660388531,-0.6871298410156219
138,6.95,-0.797,-4.85,7.65,-0.741,0.457,0.425,0.945,-2.49,-1.71,0.0,0.0,0.0,1.0,30.0,6950000000.0,-1.5965652974410058,-4.246728144873313,8.087867131478955,-0.6653216228776051,0.3137545632805343,0.4379351925929149,-0.007857349707176109,-1.5428228742789396,-1.3338580214801161
139,7.0,-3.82,-3.68,9.06,-0.644,0.9620000000000001,-0.0763,-1.67,-0.976,-0.115,0.0,0.0,0.0,1.0,30.0,7000000000.0,-2.8859408445561527,-3.8241969852866338,8.683682902889982,-0.6491197907494094,0.7707628009637817,0.06648922487196929,-0.9239111308024227,-1.2243176442999255,-0.5632129960038447
140,7.05,-2.65,-2.89,8.66,-0.395,0.273,-0.39899999999999997,-0.20199999999999999,0.14,-0.34700000000000003,0.0,0.0,0.0,1.0,30.0,7050000000.0,-2.7491181884395894,-3.1276948947913272,8.669167673197611,-0.45601981693514404,0.4198437163935142,-0.2697462042219602,-0.5260455014586264,-0.4576895963182547,-0.42650842093635644
141,7.1,-3.79,-2.32,8.97,-0.537,0.508,-0.397,-1.23,0.945,0.0812,0.0,0.0,0.0,1.0,30.0,7100000000.0,-3.3527282449111464,-2.525507881524097,8.853546509048892,-0.5175548588752455,0.48199325446709046,-0.3616650679020861,-0.9140147375024759,0.33050015237352026,-0.1055005877398778
142,7.15,-4.83,-2.45,8.07,-0.773,0.261,-0.18,-2.1,1.11,-0.649,0.0,0.0,0.0,1.0,30.0,7150000000.0,-4.209401946225969,-2.4692120779060556,8.373314471682656,-0.7116619465898931,0.3261946529903078,-0.23044348890971858,-1.5676446919060618,0.7685113880928719,-0.449137913245551
143,7.2,-4.04,-4.06,7.38,-0.899,0.496,-0.157,-1.17,-0.145,-1.14,0.0,0.0,0.0,1.0,30.0,7200000000.0,-4.111165293451831,-3.655243734279538,7.764516925877624,-0.8540159620356872,0.445906158542957,-0.17739327741943822,-1.3484914367948777,0.2551973137026352,-0.8859479526035674
144,7.25,-4.15,-6.28,7.59,-0.851,0.529,-0.39799999999999996,-1.07,-1.96,-0.6559999999999999,0.0,0.0,0.0,1.0,30.0,7250000000.0,-4.1336856964179285,-5.612163534202729,7.65755644301938,-0.8517242078389368,0.5044866898941861,-0.33674347169565316,-1.1950069616978949,-0.9895512447403806,-0.7405592124806104
145,7.3,-2.33,-4.07,7.62,-0.677,0.48,-0.6579999999999999,0.848,0.657,-0.36200000000000004,0.0,0.0,0.0,1.0,30.0,7300000000.0,-3.0877236102981653,-4.462384479646714,7.634538211334694,-0.7189551544975342,0.48722374741824,-0.5687957316659059,-0.06904807309979777,-0.06433241802464085,-0.5012082970140268
146,7.35,-3.02,-5.68,7.47,-0.392,0.591,-0.8320000000000001,0.19,-0.613,-0.287,0.0,0.0,0.0,1.0,30.0,7350000000.0,-3.048450500908013,-5.370192730339959,7.533693412050129,-0.47050919036808986,0.5603852508901768,-0.7589152945493698,0.0737206421784172,-0.37263594271391615,-0.36577122762984016
147,7.4,-5.16,-6.95,7.25,-0.28800000000000003,0.601,-0.925,-1.95,-1.61,-0.331,0.0,0.0,0.0,1.0,30.0,7400000000.0,-4.27294347680679,-6.548037525325993,7.359819097480907,-0.33182450288687126,0.5890183557612247,-0.878882770794268,-1.0416090422906326,-1.0679271063189597,-0.34378649028346153
148,7.45,-4.71,-5.34,6.4,-0.532,0.616,-0.82,-1.51,0.287,-0.9690000000000001,0.0,0.0,0.0,1.0,30.0,7450000000.0,-4.52639371718008,-5.6473702536004895,6.77155069217333,-0.48393341884974117,0.6080402126438629,-0.8363501502355323,-1.2997525356346284,-0.3065757253364785,-0.7390890271607589
149,7.5,-3.79,-4.53,6.9,-0.5870000000000001,0.45,-0.7090000000000001,-0.5579999999999999,1.41,-0.195,0.0,0.0,0.0,1.0,30.0,7500000000.0,-4.099357056925572,-4.814301135408355,6.850276707613031,-0.5622514329517441,0.4966230255123902,-0.7443616916064617,-0.8909517587834316,0.6579907573016578,-0.3950788955145548
150,7.55,-4.13,-6.15,7.53,-0.469,0.28800000000000003,-0.845,-0.9670000000000001,0.0848,0.655,0.0,0.0,0.0,1.0,30.0,7550000000.0,-4.117127045938486,-5.810148089535447,7.2668759412248365,-0.49139175015265524,0.3495453298258545,-0.8170554800229812,-0.9328640986703999,0.3359073224466866,0.2688524584752653
151,7.6,-5.12,-7.88,6.94,-0.336,-0.00916,-0.511,-2.13,-1.4,0.21,0.0,0.0,0.0,1.0,30.0,7600000000.0,-4.698695622523347,-7.353351982244222,7.0665352992982395,-0.3733130088687807,0.09666073062251085,-0.5959833260103443,-1.5926396010035941,-0.639521844496344,0.23164192312816567
152,7.65,-4.52,-6.79,4.94,-0.201,-0.10400000000000001,-0.225,-1.64,-0.174,-1.7,0.0,0.0,0.0,1.0,30.0,7650000000.0,-4.595069553674275,-6.9333378844380045,5.763192176341854,-0.242376186355736,-0.04480359894515529,-0.3280120474375301,-1.6187412479248742,-0.37793898795810954,-0.9896736461352105
153,7.7,-4.1,-5.4,4.64,-0.531,-0.22899999999999998,-0.325,-1.32,1.36,-1.89,0.0,0.0,0.0,1.0,30.0,7700000000.0,-4.307977372363955,-5.79013884583077,5.07479306409469,-0.4616950223444335,-0.17466069817961694,-0.3258363556264301,-1.454096529434958,0.5986318200210389,-1.5589212564778117
154,7.75,-3.78,-9.46,5.94,-0.39899999999999997,-0.247,-0.0854,-1.12,-2.5,-0.429,0.0,0.0,0.0,1.0,30.0,7750000000.0,-4.00180189983875,-8.526249451583793,5.605074228549992,-0.4140544597334028,-0.2256593655929074,-0.1521626834621732,-1.2699664895014455,-1.142530197844493,-0.8445081015718193
155,7.8,-4.05,-8.58,6.24,-0.318,-0.166,-0.11199999999999999,-1.47,-1.48,-0.0146,0.0,0.0,0.0,1.0,30.0,7800000000.0,-4.029752214497665,-8.566323783862593,5.994217010254858,-0.34106480177927956,-0.18359995051261005,-0.12315209515702175,-1.3802106280206927,-1.332158933695984,-0.3197836959092819
156,7.85,-3.2,-6.16,4.62,-0.281,-0.307,-0.0506,-0.655,1.03,-1.54,0.0,0.0,0.0,1.0,30.0,7850000000.0,-3.5485767678131657,-6.772259077223344,5.151966008023113,-0.2954228847837141,-0.27059607882194103,-0.07074575745836165,-0.980526532836163,-0.004830743517447944,-1.0912874973301772
157,7.9,-5.4,-9.44,5.87,-0.237,-0.5479999999999999,0.318,-2.94,-2.16,-0.231,0.0,0.0,0.0,1.0,30.0,7900000000.0,-4.62222198655205,-8.761226152974242,5.59204548463777,-0.2510286355308,-0.46616377203505455,0.21005579259961416,-2.060447788088971,-1.215848773042032,-0.5473551729980601
158,7.95,-2.37,-8.89,4.95,-0.192,-0.47100000000000003,0.426,0.106,-1.6,-1.13,0.0,0.0,0.0,1.0,30.0,7950000000.0,-3.3161525132547442,-8.857235350460385,5.198538808113947,-0.20617408838733822,-0.46957326699365076,0.3660381241898387,-0.8664571654618438,-1.431708418801318,-0.9157428988277396
159,8.0,-3.03,-8.15,4.22,-0.132,-0.36200000000000004,0.33299999999999996,-0.546,-0.858,-1.86,0.0,0.0,0.0,1.0,30.0,8000000000.0,-3.150211907542946,-8.329946963926023,4.5987969960255715,-0.1498108463671842,-0.39373490288698454,0.34217379803869197,-0.6898441640846091,-1.1093340935482956,-1.512766536720393
160,8.05,-3.18,-8.67,4.97,-0.295,-0.299,0.32899999999999996,-0.675,-1.33,-1.03,0.0,0.0,0.0,1.0,30.0,8050000000.0,-3.167486138800293,-8.583477786622336,4.826305385929254,-0.26013684787016883,-0.32694749487266445,0.33265800521974287,-0.6816631321705381,-1.233329195900125,-1.2075286450886031
161,8.1,-2.18,-8.5,4.74,-0.0437,-0.40299999999999997,0.24,0.358,-1.12,-1.2,0.0,0.0,0.0,1.0,30.0,8100000000.0,-2.5948403888837435,-8.521239885690173,4.773409093730189,-0.09567129560148702,-0.3805639453690923,0.26572862207375103,-0.10867538222999429,-1.1696480312522086,-1.202768553226735
162,8.15,-2.32,-7.88,5.09,0.19,-0.249,0.23,0.198,-0.511,-0.8759999999999999,0.0,0.0,0.0,1.0,30.0,8150000000.0,-2.4354596914909323,-8.043155607565641,4.967446216269715,0.12140397195652133,-0.28781233743445,0.23992087656178288,0.06034209029665552,-0.7995450177963362,-0.9961632177888774
163,8.2,-3.03,-9.15,5.83,0.409,0.125,0.16899999999999998,-0.491,-1.86,-0.21899999999999997,0.0,0.0,0.0,1.0,30.0,8200000000.0,-2.7802351511932226,-8.868376911209326,5.496101194810893,0.3399418098032747,0.0032173012336374485,0.18869281212909178,-0.24351812073086174,-1.3954286428358138,-0.5047877165222376
164,8.25,-2.77,-7.76,5.73,0.345,0.159,0.0618,-0.114,-0.596,-0.429,0.0,0.0,0.0,1.0,30.0,8250000000.0,-2.7742997492479815,-8.042012905389376,5.639456648338376,0.34378541522534395,0.11304294545707728,0.09703470687735609,-0.17213702284272453,-0.9462191715757582,-0.4568695559703723
165,8.3,-3.19,-7.51,6.31,0.516,0.0403,-0.109,-0.525,-0.45299999999999996,0.0423,0.0,0.0,0.0,1.0,30.0,8300000000.0,-3.0153654425664915,-7.645364244771067,6.050429377198727,0.4746474306077182,0.061759708308629695,-0.05178972368725439,-0.3666097721473299,-0.6690728301784707,-0.1412605763655374
166,8.35,-3.58,-8.21,7.27,0.732,0.0452,-0.107,-0.938,-1.33,0.812,0.0,0.0,0.0,1.0,30.0,8350000000.0,-3.342798451532311,-8.066335475475444,6.797898277726,0.6702039241541036,0.0500852376909742,-0.09166959770458429,-0.6815190932763904,-1.0404565331262328,0.4614556477258312
167,8.4,-2.4,-5.88,5.52,0.8109999999999999,-0.0116,-0.149,0.23,0.769,-1.19,0.0,0.0,0.0,1.0,30.0,8400000000.0,-2.796067224661327,-6.436285984343627,6.0146806173669205,0.7771917254621854,0.006597602352854497,-0.13308089825212255,-0.1791551492608513,-0.02369908640144236,-0.5827070878519178
168,8.45,-3.52,-6.97,7.25,0.937,-0.15,-0.184,-0.973,-0.569,0.27399999999999997,0.0,0.0,0.0,1.0,30.0,8450000000.0,-3.2158777190442214,-6.834202943076317,6.771801868005786,0.8986264642860256,-0.10380255101210797,-0.1698611407026529,-0.6166654836460522,-0.33011085268277657,-0.04103854517804706
169,8.5,-4.67,-7.25,7.7,1.13,0.0678,0.0117,-2.18,-1.18,0.41,0.0,0.0,0.0,1.0,30.0,8500000000.0,-4.0591270683893255,-7.144205604667927,7.340689878674551,1.0744420688930063,0.017175975977068825,-0.038714626195623325,-1.4782633691821723,-0.8076747251686802,0.24413872965852973
170,8.55,-3.54,-5.85,6.38,0.875,-0.0458,0.225,-1.01,-0.17600000000000002,-1.21,0.0,0.0,0.0,1.0,30.0,8550000000.0,-3.7580839047025423,-6.1792944659831885,6.751887787492137,0.9228904727221592,-0.027221620694041167,0.15177356524776003,-1.2201901829706112,-0.4527283796030465,-0.6752668039890299
171,8.6,-3.43,-5.04,6.8,0.5579999999999999,-0.28800000000000003,0.107,-0.8640000000000001,0.337,-0.9890000000000001,0.0,0.0,0.0,1.0,30.0,8600000000.0,-3.56782723097853,-5.329879293999737,6.781375645795413,0.6456183324367312,-0.2110684368173515,0.11943241058098021,-1.0238837156909744,-0.00896959816366244,-0.8736303051161228
172,8.65,-3.85,-4.76,8.83,0.5770000000000001,-0.326,0.0135,-1.32,0.418,0.9,0.0,0.0,0.0,1.0,30.0,8650000000.0,-3.731459900729768,-4.904998876906469,8.036967517166179,0.5934768031150647,-0.2920943406689781,0.04291457011346893,-1.1870818003379238,0.23095024784839946,0.24777951583883862
173,8.7,-2.88,-5.82,9.17,0.762,-0.7390000000000001,0.0166,-0.535,-0.878,1.03,0.0,0.0,0.0,1.0,30.0,8700000000.0,-3.237696148868074,-5.587189460053991,8.73139767040548,0.7215338540021783,-0.6071595344190299,0.023906845344759533,-0.8277010997246548,-0.39218350922188205,0.7423525451042512
174,8.75,-1.37,-5.39,7.76,0.91,-0.898,-0.00909,0.619,-0.795,-0.667,0.0,0.0,0.0,1.0,30.0,8750000000.0,-2.154614281352325,-5.440172308714244,8.136032895810805,0.8647451101993814,-0.8121999086704983,7.233303939734037e-05,-0.03038321448596404,-0.6185314084591508,-0.14873608658043436
175,8.8,-2.58,-3.89,7.86,0.867,-0.41200000000000003,0.0153,-0.887,0.348,-0.823,0.0,0.0,0.0,1.0,30.0,8800000000.0,-2.4012965253513623,-4.284422163049657,7.966853756273879,0.8664585385314538,-0.5300619391503961,0.011071688149493396,-0.5024889556624856,-0.0754246898182579,-0.5750516484618846
176,8.85,-4.32,-4.19,7.33,0.7140000000000001,-0.285,0.486,-2.69,-0.28600000000000003,-1.52,0.0,0.0,0.0,1.0,30.0,8850000000.0,-3.513957776497466,-4.2140245889621895,7.576529134992417,0.7506086728737539,-0.3572950856055488,0.3541252336127128,-1.7080881665098138,-0.19374973665561784,-1.1725123207951997
177,8.9,-3.18,-4.24,8.02,0.445,-0.6,0.7240000000000001,-1.59,-0.629,-0.9620000000000001,0.0,0.0,0.0,1.0,30.0,8900000000.0,-3.32029482919234,-4.233390708730461,7.848330555126674,0.5183834281261186,-0.5284002684517118,0.6212957487965204,-1.6430064578903565,-0.43832259491482395,-1.03941210675331
178,8.95,-2.1,-4.24,8.33,0.598,-0.21899999999999997,0.792,-0.5660000000000001,-0.89,-0.759,0.0,0.0,0.0,1.0,30.0,8950000000.0,-2.612642618211691,-4.2383181773036425,8.143543372038796,0.5788822842527896,-0.3102753697928101,0.7446000359724271,-1.04943774265901,-0.6921260678132306,-0.8621164831925743
179,9.0,-1.76,-4.2,9.42,0.573,0.022,0.6729999999999999,-0.136,-1.16,0.235,0.0,0.0,0.0,1.0,30.0,9000000000.0,-2.1181929335010863,-4.209749441950703,8.925877487328135,0.5744124776724056,-0.07602369656182673,0.6928813806859977,-0.5460163830997395,-0.9550305718242663,-0.168444746018924
180,9.05,-1.6,-4.35,10.0,0.634,0.0819,0.521,0.11699999999999999,-1.59,0.765,0.0,0.0,0.0,1.0,30.0,9050000000.0,-1.817691513021002,-4.314314916854517,9.584201959174486,0.6196917142777756,0.03531133959450819,0.5687268379753048,-0.18060931106536382,-1.3118282726093273,0.42174256670020693
181,9.1,-0.9359999999999999,-2.78,9.51,0.6970000000000001,-0.111,0.10400000000000001,0.813,-0.318,0.17600000000000002,0.0,0.0,0.0,1.0,30.0,9100000000.0,-1.3063962978574712,-3.1703873471575568,9.538724079017703,0.6784365829523207,-0.06783707156051494,0.2330420951520381,0.3669968833108176,-0.7533830746743833,0.26636738411381
182,9.15,-0.589,-2.3,7.92,0.564,-0.23800000000000002,0.0337,1.1,-0.132,-1.49,0.0,0.0,0.0,1.0,30.0,9150000000.0,-0.8903763050188613,-2.521459211367249,8.546615998620663,0.5914787745361526,-0.1878006789519938,0.08905191722429195,0.7709756366727765,-0.40421974316068054,-0.8441276639464509
183,9.2,-1.07,-2.06,7.89,0.368,0.0971,0.0514,0.562,-0.11599999999999999,-1.59,0.0,0.0,0.0,1.0,30.0,9200000000.0,-0.9945405848642506,-2.177412520568849,8.14417915990442,0.4216622204317629,0.013052186357069201,0.06185491949570636,0.6558032425082704,-0.24226527275229112,-1.315718958418052
184,9.25,-2.11,-1.82,8.99,0.261,0.588,-0.00176,-0.32899999999999996,-0.0449,-0.491,0.0,0.0,0.0,1.0,30.0,9250000000.0,-1.6413983495387114,-1.9109392145238786,8.662578505030288,0.29957857496108675,0.4183861338806336,0.01590414530136585,0.11305033644837881,-0.13136312743269102,-0.7942754800306612
185,9.3,-3.28,-1.74,9.38,-0.11900000000000001,0.441,0.171,-1.21,-0.0141,-0.054,0.0,0.0,0.0,1.0,30.0,9300000000.0,-2.5916277058049415,-1.7834933665219,9.10228272548423,-0.018489984625651323,0.43432875216357675,0.12793407205407506,-0.61612012873801,-0.06547143232839717,-0.32622292098699174
186,9.35,-2.23,-1.21,8.04,-0.41,0.195,0.223,0.0138,0.606,-1.33,0.0,0.0,0.0,1.0,30.0,9350000000.0,-2.381918866640793,-1.3559182905542748,8.451214778328529,-0.31598974249616996,0.26560375043633033,0.1966027624633691,-0.2689533375065086,0.3118372099217469,-0.9608791593613388
187,9.4,-2.72,-2.14,9.61,-0.578,0.523,0.019,-0.353,-0.10400000000000001,0.308,0.0,0.0,0.0,1.0,30.0,9400000000.0,-2.5779730146533213,-1.9405002285612607,9.161428402959544,-0.5150855216930119,0.447066200240233,0.06831549077852125,-0.3152738211297594,0.07817280533232587,-0.15860736457724234
188,9.45,-3.23,-2.99,8.86,-0.7440000000000001,0.374,-0.107,-0.664,-0.628,-0.31,0.0,0.0,0.0,1.0,30.0,9450000000.0,-2.956085175910957,-2.7229678291001624,8.976684188166029,-0.6890325602512262,0.3955550796181403,-0.058319622922160363,-0.5074666631592176,-0.318635003611197,-0.25432809772519593
189,9.5,-1.97,-3.33,6.7,-0.706,0.321,-0.017,0.7170000000000001,-0.619,-2.33,0.0,0.0,0.0,1.0,30.0,9500000000.0,-2.3842518259080663,-3.175548148912037,7.581315388407301,-0.7019257182026813,0.3429943078831593,-0.028473344173717927,0.16737153581505315,-0.487414059757412,-1.566709147659758
190,9.55,-2.65,-2.03,7.21,-1.08,0.855,-0.0793,0.254,1.07,-1.63,0.0,0.0,0.0,1.0,30.0,9550000000.0,-2.538359940809096,-2.321470473036372,7.35373801342005,-0.9892159960234426,0.7039545399580521,-0.06518681109312754,0.21511493595449543,0.38771743561609656,-1.6067259306347685
191,9.6,-4.06,-2.53,9.13,-1.28,1.1,-0.16699999999999998,-0.748,1.1,0.645,0.0,0.0,0.0,1.0,30.0,9600000000.0,-3.420762948507783,-2.4769422312739056,8.442400429224458,-1.2101762771330045,0.9831636711268463,-0.13872922366461446,-0.3156849475104459,0.7879584002226079,-0.18303150120192146
192,9.65,-3.84,-4.94,8.73,-1.13,0.627,-0.598,-0.175,-0.774,0.647,0.0,0.0,0.0,1.0,30.0,9650000000.0,-3.663879558848702,-4.31330559408054,8.618668528946205,-1.1492521021851612,0.7320709042470603,-0.4704729001488569,-0.23814949401315447,-0.08972658425527746,0.3417709356721904
193,9.7,-4.25,-4.26,8.4,-0.968,0.428,-0.7040000000000001,-0.536,0.395,0.613,0.0,0.0,0.0,1.0,30.0,9700000000.0,-4.003772332090629,-4.273563116798542,8.4846474156556,-1.0115226535143365,0.5177031723123939,-0.6391558276912912,-0.40230333570518384,0.1826476716283716,0.5132604013210764
194,9.75,-3.46,-3.96,7.0,-0.9520000000000001,0.26899999999999996,-0.53,0.22,1.16,-0.513,0.0,0.0,0.0,1.0,30.0,9750000000.0,-3.6884373599173514,-4.039782267847783,7.5747142243678525,-0.966292728482565,0.34236927452346233,-0.5603096050822105,-0.059334375016341256,0.7318347945128238,-0.13561130428902268
195,9.8,-4.61,-6.57,6.56,-0.995,0.43200000000000005,-0.36,-0.9159999999999999,-1.03,-0.643,0.0,0.0,0.0,1.0,30.0,9800000000.0,-4.222854017045282,-5.926217661095229,6.9528007688534466,-0.9881067498020363,0.4055582796590474,-0.4156205785812592,-0.5314670243329562,-0.2581633576793202,-0.45641698735914105
196,9.85,-4.2,-6.85,6.35,-1.18,0.507,-0.41200000000000003,-0.396,-0.887,-0.447,0.0,0.0,0.0,1.0,30.0,9850000000.0,-4.209600802317977,-6.614954989700723,6.58334704650328,-1.13392212653841,0.4770739612527037,-0.41300533724774546,-0.4568073162737536,-0.6115149602541026,-0.45046292483800127
197,9.9,-4.28,-6.94,6.32,-0.976,0.242,-0.586,-0.501,-0.517,-0.0539,0.0,0.0,0.0,1.0,30.0,9900000000.0,-4.2504256024213305,-6.857296378102704,6.421943025781814,-1.0139206202447455,0.31134855970473896,-0.5379640718895252,-0.481163146544069,-0.5584057706398567,-0.1997288436923077
198,9.95,-4.27,-7.45,6.66,-0.594,0.08,-0.711,-0.635,-0.657,0.588,0.0,0.0,0.0,1.0,30.0,9950000000.0,-4.261776835593723,-7.299193784867077,6.5678468957038305,-0.6948322585843469,0.14824953830413623,-0.6629526136138613,-0.5659469803249012,-0.6138071692074983,0.2983269632916961
199,10.0,-4.4,-8.66,7.11,-0.5479999999999999,-0.254,-0.665,-1.02,-1.57,1.24,0.0,0.0,0.0,1.0,30.0,10000000000.0,-4.341932864615235,-8.31375965125412,6.900129982345056,-0.5832576715097614,-0.135333410969516,-0.6644315115868548,-0.816188425416675,-1.1511045400346998,0.8937167766800236
200,10.1,-3.71,-7.36,5.31,-0.39299999999999996,-0.0354,-0.391,-0.596,-0.0407,-0.43700000000000006,0.0,0.0,0.0,1.0,30.0,10100000000.0,-3.975473369585505,-7.60267239343375,5.925547003109259,-0.4386850998884485,-0.06488109643729426,-0.46692454902334646,-0.6948363679299097,-0.5271536087024546,0.052347024904453976
201,10.1,-4.23,-6.89,4.76,-0.45799999999999996,-0.32,-0.20800000000000002,-1.26,0.5870000000000001,-0.84,0.0,0.0,0.0,1.0,30.0,10100000000.0,-4.123074037783518,-7.071330536827736,5.211189045331408,-0.45336206653055316,-0.24473802780005022,-0.2798963584653753,-1.0063140179589982,0.09890398051893223,-0.5118555028617667
202,10.2,-3.7,-9.58,6.23,-0.29100000000000004,-0.271,0.0783,-0.794,-1.98,0.752,0.0,0.0,0.0,1.0,30.0,10200000000.0,-3.8777323269585415,-8.941700165558448,5.8356133435724376,-0.32998674668905476,-0.2632525220689976,-0.021161456701110526,-0.8893017766594351,-1.0692595487817138,0.2872399790238289
203,10.2,-3.03,-9.03,4.96,-0.2,-0.066,0.213,-0.113,-1.38,-0.451,0.0,0.0,0.0,1.0,30.0,10200000000.0,-3.386130121897751,-9.007533005064001,5.298954200843945,-0.23121270869664373,-0.12419095553501502,0.14797968633500852,-0.46145991975421313,-1.2438686970120112,-0.17952560174804827
204,10.3,-2.79,-9.34,5.75,0.0308,-0.0263,0.21600000000000003,0.185,-1.7,0.374,0.0,0.0,0.0,1.0,30.0,10300000000.0,-3.0404326865502407,-9.255408017423921,5.575397980771157,-0.03211507390409238,-0.055178557341012444,0.19711259973653344,-0.10517758069801336,-1.5001749086166811,0.17045097845671103
205,10.3,-2.08,-7.56,4.5,0.32,0.0367,0.0978,0.963,0.0152,-0.94,0.0,0.0,0.0,1.0,30.0,10300000000.0,-2.4834752212308384,-7.9913754638694785,4.916291780720697,0.2354493406559431,0.009595144083425156,0.12537642823279516,0.4835252820405002,-0.6486657951079449,-0.5316517333678119
206,10.4,-3.03,-7.13,6.02,0.36700000000000005,0.0,-0.0329,-0.0124,0.368,0.475,0.0,0.0,0.0,1.0,30.0,10400000000.0,-2.800406349945593,-7.34916637050096,5.592749176782138,0.33541177371302977,0.0028306386112240635,0.011049088745862912,0.21020683868686318,-0.07738789848505012,0.10482202630708493
207,10.4,-3.73,-8.11,6.16,0.59,0.011,-0.0329,-0.743,-0.7190000000000001,0.44799999999999995,0.0,0.0,0.0,1.0,30.0,10400000000.0,-3.339480144347617,-7.916415079491776,5.940414358119833,0.528867689506778,0.008589977807706515,-0.020696526178435655,-0.31513238204182215,-0.4379181759426673,0.3218025151975509
208,10.5,-4.21,-8.19,6.09,0.805,-0.14400000000000002,0.0557,-1.25,-1.01,0.10400000000000001,0.0,0.0,0.0,1.0,30.0,10500000000.0,-3.844296902289955,-8.120389403105499,6.032094765128474,0.7386945015021117,-0.09898482137992957,0.03448674793371081,-0.8303643557924391,-0.7593784798480476,0.18409293742158797
209,10.5,-3.62,-8.16,6.53,0.848,0.0348,0.266,-0.6729999999999999,-1.24,0.245,0.0,0.0,0.0,1.0,30.0,10500000000.0,-3.7142264770087663,-8.14992146197269,6.337258594236706,0.8217533132261206,-0.004667513400002446,0.2017150234898158,-0.7436363984038024,-1.0294460454927798,0.22260253223927284
210,10.6,-3.01,-5.55,5.58,0.7240000000000001,-0.0269,0.447,0.0852,1.05,-0.98,0.0,0.0,0.0,1.0,30.0,10600000000.0,-3.3058436998577054,-6.2115178571576095,5.87313843247965,0.747472725377347,-0.02034125230849591,0.37889098336487415,-0.28684122908896975,0.1390220397420292,-0.5377646795669622
211,10.6,-5.43,-6.43,6.91,0.62,-0.35700000000000004,0.249,-2.26,-0.0898,0.139,0.0,0.0,0.0,1.0,30.0,10600000000.0,-4.537647381520884,-6.374409805159846,6.508625758469435,0.6506090376721494,-0.25768316985192347,0.2850672170907505,-1.3743048053401221,0.010443922714000436,-0.10986797271079285
212,10.7,-3.13,-7.67,7.4,0.762,-0.45899999999999996,0.381,0.053,-1.62,0.371,0.0,0.0,0.0,1.0,30.0,10700000000.0,-3.7213490582369744,-7.3403532280289605,7.054944760848479,0.7352525731059191,-0.39961003715921495,0.3543620655008632,-0.5876767763547687,-0.9057239874098088,0.19416949427626906
213,10.7,-2.58,-7.04,8.38,0.855,-0.344,0.20800000000000002,0.542,-1.32,1.05,0.0,0.0,0.0,1.0,30.0,10700000000.0,-3.0594777168946097,-7.1164211188862,7.867064752311137,0.8262459962813615,-0.360405381306655,0.24864079638491687,0.034920029641782646,-1.1385111629308775,0.7352837788321986
214,10.8,-2.94,-5.51,7.45,0.912,-0.31,0.251,0.102,-0.157,-0.183,0.0,0.0,0.0,1.0,30.0,10800000000.0,-2.990192310285459,-5.91873406640396,7.611447674075422,0.8914085584529254,-0.32486996270482216,0.250344903563439,0.07188969666218462,-0.586987120341684,0.15468225380936995
215,10.8,-2.07,-3.66,7.1,1.04,-0.605,0.31,0.853,1.3,-0.8340000000000001,0.0,0.0,0.0,1.0,30.0,10800000000.0,-2.4565703496953226,-4.234706885005112,7.297983819884406,1.0043198639139237,-0.522359576488443,0.2934353923448621,0.5023816593301604,0.4733357608365688,-0.4704299757833821
216,10.9,-4.45,-5.71,8.9,1.37,-0.563,0.109,-1.73,-1.24,0.608,0.0,0.0,0.0,1.0,30.0,10900000000.0,-3.612565294939761,-5.3346300241575815,8.279851523140746,1.2821920768430943,-0.5510107903627816,0.16021272613784526,-0.7279469949457658,-0.4894101672047101,0.21142686715623826
217,10.9,-3.29,-4.66,8.88,1.04,-0.7070000000000001,0.32899999999999996,-0.737,-0.747,0.255,0.0,0.0,0.0,1.0,30.0,10900000000.0,-3.4255088165831995,-4.831651114377803,8.64767968029782,1.098155670630177,-0.6609820392717454,0.2821323291592312,-0.732936355660059,-0.6341532740244851,0.23897676539002632
218,11.0,-2.77,-3.51,6.64,0.895,-0.532,0.409,-0.359,-0.0574,-2.22,0.0,0.0,0.0,1.0,30.0,11000000000.0,-3.045377532306041,-3.846277698941982,7.4171824721378385,0.9437821765290078,-0.5700506611285752,0.3737722804094258,-0.5268494571151214,-0.3100680151519344,-1.3157557825404762
219,11.0,-1.46,-3.06,7.42,0.794,-0.239,0.38,0.831,0.0281,-1.61,0.0,0.0,0.0,1.0,30.0,11000000000.0,-2.1260129865710367,-3.2600585492345946,7.418909368042224,0.8299660514935444,-0.33666239313531937,0.3782707269963032,0.22149974995374133,-0.12004695455216982,-1.5017970194002503
220,11.1,-1.33,-2.81,8.99,0.893,0.342,0.297,1.0,-0.147,-0.154,0.0,0.0,0.0,1.0,30.0,11100000000.0,-1.6644030034348867,-2.924511763729363,8.381823046534135,0.877864153302472,0.14178957004888182,0.3195666797394045,0.65055324661109,-0.13519222560011385,-0.6496279788157867
221,11.1,0.575,-2.45,10.1,0.611,0.187,0.281,3.06,-0.17,0.867,0.0,0.0,0.0,1.0,30.0,11100000000.0,-0.365767365174547,-2.5707336585669878,9.43488559127701,0.6750800145224457,0.17366259266230516,0.29170891708534835,1.978467437954179,-0.1547511733374229,0.3092874783427191
222,11.2,-0.7040000000000001,-3.09,8.44,0.32299999999999995,0.185,-0.0769,1.83,-1.04,-0.813,0.0,0.0,0.0,1.0,30.0,11200000000.0,-0.5619093504793786,-2.9578790667197334,8.825124786580973,0.4075422458801691,0.1816553824982313,0.02545274402619585,1.8966428592501452,-0.6521841232496142,-0.40029909087500215
223,11.2,-0.706,-2.03,8.94,-0.0211,0.24600000000000002,-0.255,1.9,-1.06,-0.7979999999999999,0.0,0.0,0.0,1.0,30.0,11200000000.0,-0.6454678769812638,-2.2660872793615576,8.895530989845684,0.08182652882353503,0.2270178657895051,-0.17712584277694596,1.8984930612866608,-0.8813412017583451,-0.6517526691131323
224,11.3,-1.2,-0.955,8.45,-0.00275,0.513,-0.409,1.51,1.11,-0.742,0.0,0.0,0.0,1.0,30.0,11300000000.0,-0.9670425297637092,-1.28858985703297,8.622467092863225,0.017558704032696423,0.42863315915169686,-0.3446148146955783,1.6843835469300141,0.23761964658029844,-0.7088131659140663
225,11.3,-3.26,-1.31,7.59,-0.358,0.433,-0.38299999999999995,-0.34299999999999997,0.855,-1.52,0.0,0.0,0.0,1.0,30.0,11300000000.0,-2.296734544449403,-1.3045524124571173,7.989673119050277,-0.26782001732548605,0.43171174841187465,-0.3723414607633261,0.5670351612695879,0.5845338066348202,-1.221700699797723
226,11.4,-4.49,-2.89,7.73,-0.731,0.47200000000000003,-0.429,-1.44,-0.439,-1.26,0.0,0.0,0.0,1.0,30.0,11400000000.0,-3.568614772484475,-2.486602636932551,7.830520737102996,-0.619780198132756,0.4601146692348634,-0.41326744657837494,-0.5390986882139956,0.009396678414375748,-1.24591611895322
227,11.4,-1.81,-1.52,8.17,-0.9590000000000001,0.688,-0.542,1.39,1.41,-0.624,0.0,0.0,0.0,1.0,30.0,11400000000.0,-2.5487894438222174,-1.7659400178164426,8.03858597550835,-0.8775457809423728,0.6207721551094951,-0.5062544430589673,0.5240821282192405,0.7964141071281499,-0.8526984137020642
228,11.5,-4.7,-3.25,8.62,-1.15,0.7190000000000001,-0.45299999999999996,-1.24,0.212,0.125,0.0,0.0,0.0,1.0,30.0,11500000000.0,-3.7962819480947836,-2.872399375278758,8.394931737507289,-1.0845776694379965,0.6900220450471125,-0.46778732731932293,-0.44815340998386377,0.46802412422652195,-0.23453091023010475
229,11.5,-4.47,-3.55,8.88,-1.22,0.376,-0.191,-1.06,0.7440000000000001,0.441,0.0,0.0,0.0,1.0,30.0,11500000000.0,-4.1869726827210485,-3.3775929039000987,8.692227790133412,-1.1874821108313707,0.46863882133162016,-0.26785636628040155,-0.78535933162366,0.6230986123791582,0.1925857337503336
230,11.6,-3.0,-4.21,7.42,-1.5,0.341,-0.162,0.8029999999999999,0.303,-0.41700000000000004,0.0,0.0,0.0,1.0,30.0,11600000000.0,-3.4986441267334834,-3.998204384543019,7.912485602532956,-1.4249575100705254,0.3786543916289868,-0.19139345475615893,0.09003038557168053,0.4432309892403634,-0.1928358678914484
231,11.6,-3.42,-4.81,5.41,-1.57,0.555,-0.327,0.488,0.312,-1.99,0.0,0.0,0.0,1.0,30.0,11600000000.0,-3.453038236670399,-4.603448648616199,6.378724235829128,-1.5351721149059563,0.5029767437308679,-0.28934571856930963,0.3093626940410365,0.36949057214805314,-1.3291253976694317
232,11.7,-5.29,-7.15,6.06,-1.55,0.6659999999999999,-0.501,-1.29,-1.39,-0.7929999999999999,0.0,0.0,0.0,1.0,30.0,11700000000.0,-4.518297134457974,-6.502061717726363,6.183379664412841,-1.546439459051401,0.61790693733721,-0.44222931217731387,-0.5720912809496681,-0.6191903386703096,-0.9901504084579167
233,11.7,-4.46,-9.39,5.92,-1.19,0.17800000000000002,-0.537,-0.467,-3.06,-0.41,0.0,0.0,0.0,1.0,30.0,11700000000.0,-4.484490496187218,-8.65520023936919,6.021955593882769,-1.2755890783594492,0.307775808712371,-0.5106847394870433,-0.5141725092041777,-1.990713392186085,-0.6233398185875181
234,11.8,-4.38,-7.99,7.14,-0.8340000000000001,0.214,-0.779,-0.5379999999999999,-1.21,1.19,0.0,0.0,0.0,1.0,30.0,11800000000.0,-4.423896251156119,-8.159251765910772,6.707199499097282,-0.9400353441386731,0.2416645596058979,-0.7044960862707216,-0.5273045061722017,-1.5520202792740518,0.5231771116485564
235,11.8,-3.38,-7.5,6.38,-0.6859999999999999,0.007940000000000001,-0.773,0.237,-0.348,0.73,0.0,0.0,0.0,1.0,30.0,11800000000.0,-3.818538157540212,-7.667738421387943,6.506660585192071,-0.7469995233033032,0.07689047708918884,-0.7539783143882791,-0.10607468338417636,-0.875465425966936,0.6539446352037714
236,11.9,-5.1,-8.09,6.38,-0.47700000000000004,-0.153,-0.578,-1.77,-0.648,0.9259999999999999,0.0,0.0,0.0,1.0,30.0,11900000000.0,-4.561661168515756,-7.982560901202395,6.429030997759211,-0.5418328839971461,-0.08518060359522062,-0.6268644323995545,-1.0231109554274265,-0.7476496092599543,0.8259565590401907
237,11.9,-3.14,-8.95,5.59,-0.37,-0.21,-0.0934,-0.000365,-1.33,0.263,0.0,0.0,0.0,1.0,30.0,11900000000.0,-3.737236208055667,-8.703846998428853,5.914793067268179,-0.4112608975236025,-0.17317734844076657,-0.24152866851249677,-0.4594467455109439,-1.074879985459151,0.4700171009071218
238,12.0,-2.7,-8.18,4.67,-0.212,-0.0611,0.0538,0.386,-0.485,-0.565,0.0,0.0,0.0,1.0,30.0,12000000000.0,-3.1357402520997035,-8.3132865880789,5.151865488082902,-0.25984696754811976,-0.09416364741055253,-0.028204795047691383,0.0065028615041032856,-0.7434186630016639,-0.18439117763559665
239,12.0,-2.92,-8.81,6.1,-0.149,-0.0525,0.16399999999999998,0.195,-1.08,0.9329999999999999,0.0,0.0,0.0,1.0,30.0,12000000000.0,-3.0106319611991452,-8.683617756282302,5.732972467641284,-0.1756168231273962,-0.06479108358680823,0.11062992191125173,0.11038895955986322,-0.9325481719804009,0.5220996199266743
240,12.1,-3.03,-8.29,4.5,0.209,-0.146,0.139,0.126,-0.5760000000000001,-0.667,0.0,0.0,0.0,1.0,30.0,12100000000.0,-3.0218635208474294,-8.39015111939533,4.977289629803765,0.11664495865297839,-0.12204276633146242,0.13112239437606496,0.11899264640055945,-0.7321990457132842,-0.22973011660048137
241,12.1,-3.58,-7.37,5.96,0.31,-0.171,0.152,-0.409,0.26899999999999996,0.682,0.0,0.0,0.0,1.0,30.0,12100000000.0,-3.345528277262096,-7.629564692798166,5.579588066823947,0.26357115966861566,-0.15655725595035858,0.14620284915858273,-0.1719990329515601,-0.1696121231036496,0.34672772625229564
242,12.2,-2.57,-9.0,5.69,0.631,-0.2,0.158,0.602,-1.51,0.222,0.0,0.0,0.0,1.0,30.0,12200000000.0,-2.895797366907452,-8.651309762171422,5.647259039553567,0.5427721570643875,-0.1871840706658002,0.1547242550296268,0.2545737146605133,-0.9227937140157589,0.2678663674713456
243,12.2,-4.06,-7.85,5.65,0.758,-0.115,0.18899999999999997,-0.861,-0.5820000000000001,-0.106,0.0,0.0,0.0,1.0,30.0,12200000000.0,-3.5709214785171595,-8.05388324252621,5.648939019350728,0.7063190244598698,-0.1362948372507253,0.17948254800467806,-0.36025049848449925,-0.7312972486891646,0.03148259615783261
244,12.3,-4.18,-8.07,6.31,0.684,0.00122,0.426,-0.9159999999999999,-1.04,0.305,0.0,0.0,0.0,1.0,30.0,12300000000.0,-3.924127602903111,-8.06589906376545,6.054100049066044,0.6893593053386738,-0.03934789608503797,0.3575487597538879,-0.6665397650059054,-0.9047613677561748,0.20441892574693513
245,12.3,-3.99,-6.75,6.04,0.7929999999999999,-0.188,0.312,-0.596,-0.0249,-0.237,0.0,0.0,0.0,1.0,30.0,12300000000.0,-3.9623271833969187,-7.084814168236546,6.045458174086246,0.7681135530748925,-0.14414652319255838,0.32464766525241373,-0.6276633149650126,-0.41035568080706947,-0.07467617518309208
246,12.4,-3.11,-7.09,6.72,0.8109999999999999,-0.231,0.368,0.294,-0.649,0.153,0.0,0.0,0.0,1.0,30.0,12400000000.0,-3.4680603648546713,-7.088680643299607,6.458881454877898,0.8007020031036756,-0.20537758506800258,0.35596222782691084,-0.11970860602207989,-0.5444530597139705,0.06927620222894051
247,12.4,-2.6,-6.07,6.94,1.07,-0.44299999999999995,0.306,0.802,0.0101,0.0393,0.0,0.0,0.0,1.0,30.0,12400000000.0,-2.9646698388614094,-6.32919076173171,6.753756709838111,1.0053356064902401,-0.3728996187497009,0.31987315737368366,0.38827105661306327,-0.2328423941481696,0.05032320526711642
248,12.5,-4.79,-6.75,7.77,1.28,-0.41200000000000003,0.34,-1.48,-1.1,0.47200000000000003,0.0,0.0,0.0,1.0,30.0,12500000000.0,-4.023183540187002,-6.642930317395404,7.37660727559202,1.2140469538143928,-0.4004650981066246,0.33441132188338235,-0.6413859507924832,-0.7201096837207341,0.3169359864556
249,12.5,-2.27,-4.84,7.43,1.22,-0.5770000000000001,0.354,0.975,0.29100000000000004,-0.273,0.0,0.0,0.0,1.0,30.0,12500000000.0,-3.006507819427795,-5.298733333681028,7.409331311884679,1.218570563063139,-0.5249209111601424,0.3485607546020425,0.24945005641952678,-0.1519538348199333,-0.056061711018128624
250,12.6,-4.13,-4.88,8.64,1.32,-0.7809999999999999,0.111,-1.09,-0.257,0.546,0.0,0.0,0.0,1.0,30.0,12600000000.0,-3.6580239329382858,-4.9865415797959525,8.163602384859233,1.2956445780942183,-0.7054547838444906,0.17696420758762027,-0.4887587554488546,-0.21098065772506402,0.32460269630663185
251,12.6,-3.77,-4.43,7.67,1.11,-1.07,0.136,-1.07,-0.321,-0.812,0.0,0.0,0.0,1.0,30.0,12600000000.0,-3.72295913535612,-4.5716049626031685,7.8610759269786765,1.154577399445101,-0.9624564966818068,0.1473746596041781,-0.8090972664076772,-0.2728019802139378,-0.39403489880966724
252,12.7,-2.37,-2.52,7.74,0.988,-0.44,0.27,0.145,1.11,-1.02,0.0,0.0,0.0,1.0,30.0,12700000000.0,-2.9383745359970836,-3.042005379672249,7.786868939023655,1.0279989167932089,-0.5941285366020921,0.2359502620490354,-0.2832672920576921,0.5042126671954885,-0.7898126423856198
253,12.7,-1.63,-4.48,8.05,0.9420000000000001,-0.297,0.264,0.7929999999999999,-1.26,-0.889,0.0,0.0,0.0,1.0,30.0,12700000000.0,-2.1796447257444678,-4.114120148514087,7.948140805375431,0.9626502296031102,-0.3846551138371617,0.25621134418198643,0.3098940301161395,-0.48712165368299454,-0.8525256421091221
254,12.8,-3.9,-4.16,9.14,0.759,0.0116,0.235,-1.49,-1.33,0.0656,0.0,0.0,0.0,1.0,30.0,12800000000.0,-3.1772832936712425,-4.148326328030214,8.678625728256762,0.8079009481583312,-0.10529819520875522,0.24088981706586923,-0.6820784596549333,-0.9607461183672444,-0.2720241006306018
255,12.8,-1.88,-2.89,7.82,0.45399999999999996,-0.0379,0.265,0.54,-0.33799999999999997,-1.34,0.0,0.0,0.0,1.0,30.0,12800000000.0,-2.4249853237847865,-3.210165579116621,8.15237829429006,0.5389794791042388,-0.05778296762502412,0.2583052429282688,-0.008556459527240712,-0.6108168747899525,-0.9472711981636335
256,12.9,-1.8,-1.72,7.45,0.3,0.0684,0.0703,0.6779999999999999,0.617,-1.75,0.0,0.0,0.0,1.0,30.0,12900000000.0,-2.062554676038054,-2.0991541393365236,7.721893931719465,0.35738429256855003,0.031175091574340036,0.12250397764209114,0.3698242001300739,0.07910958411912317,-1.4548110002558543
257,12.9,-2.21,-2.21,6.83,0.009470000000000001,0.0935,-0.0934,0.33399999999999996,0.0604,-2.36,0.0,0.0,0.0,1.0,30.0,12900000000.0,-2.1480586262678396,-2.1817966763279784,7.175256425437419,0.0930119529091375,0.07511369241313987,-0.033449296698416536,0.35008046592774933,0.06859642342037651,-2.027133049112407
258,13.0,-2.64,-2.38,8.27,-0.17600000000000002,0.231,-0.203,-0.0582,-0.0486,-0.894,0.0,0.0,0.0,1.0,30.0,13000000000.0,-2.4333367733974605,-2.3295697120637673,7.846219726537405,-0.11140425142615204,0.18501238840734283,-0.15592034395541743,0.12506555777672096,0.0027422103697698763,-1.3106891824899658
259,13.0,-2.89,-1.88,7.01,-0.515,0.275,-0.13,-0.207,0.621,-2.09,0.0,0.0,0.0,1.0,30.0,13000000000.0,-2.6981570309520815,-1.9943874242907935,7.333704857286268,-0.4180876812344576,0.2484529919121874,-0.13719737612916075,-0.057945160134937,0.3501493981111271,-1.8034224862160064
260,13.1,-1.73,-1.51,8.75,-0.843,0.532,-0.00542,1.08,1.31,-0.213,0.0,0.0,0.0,1.0,30.0,13100000000.0,-2.1367202534620278,-1.6332463550416492,8.201745272421302,-0.7409691059212434,0.4483515350336801,-0.042011018760630736,0.5692086119340746,0.8895020570510455,-0.7978491066480846
261,13.1,-3.83,-3.09,8.48,-1.18,0.775,-0.142,-0.741,0.16699999999999998,-0.24100000000000002,0.0,0.0,0.0,1.0,30.0,13100000000.0,-3.1186575526678295,-2.719347069543614,8.372285963128276,-1.0745788863755679,0.6786362653369293,-0.11423576333178902,-0.1528843929626641,0.48351863594530353,-0.44577118639537705
262,13.2,-3.66,-4.22,8.95,-1.35,0.594,-0.17600000000000002,-0.27399999999999997,-0.428,0.568,0.0,0.0,0.0,1.0,30.0,13200000000.0,-3.4325835002241236,-3.838177349313891,8.72636397392271,-1.2838652883562798,0.6189683127129686,-0.15884973864591284,-0.21963462199665557,-0.02867568886170624,0.19520399173624092
263,13.2,-3.62,-3.99,7.48,-1.62,0.7090000000000001,-0.305,0.0266,0.4,-0.491,0.0,0.0,0.0,1.0,30.0,13200000000.0,-3.5412667511227784,-3.9513706198656866,7.962473558607391,-1.5392865898070585,0.6824399790026325,-0.26441802417354215,-0.08392776082051345,0.2122028282256875,-0.2386608897403822
264,13.3,-3.78,-4.67,6.96,-1.51,0.491,-0.447,0.0121,0.385,-0.541,0.0,0.0,0.0,1.0,30.0,13300000000.0,-3.6797087685042844,-4.487153739253618,7.348062406144499,-1.5170323537694737,0.5474762101544558,-0.3963019134471851,-0.031004147082897136,0.309299828824152,-0.42982026534907464
265,13.3,-4.58,-6.37,6.15,-1.47,0.28800000000000003,-0.608,-0.7709999999999999,-0.7040000000000001,-0.895,0.0,0.0,0.0,1.0,30.0,13300000000.0,-4.2017899586187895,-5.890933075838321,6.613775833917819,-1.4812935350284107,0.36454739615232007,-0.5492171438557434,-0.438836797172985,-0.26008668448037914,-0.723938553171039
266,13.4,-3.77,-9.06,7.29,-1.41,0.287,-0.67,-0.0964,-2.78,0.7140000000000001,0.0,0.0,0.0,1.0,30.0,13400000000.0,-3.9513938238455046,-8.253670606024034,7.028230318039317,-1.4271191366741978,0.30987705688061495,-0.636461874477368,-0.2501101973600871,-1.6760591388817319,0.18522409335573353
267,13.4,-4.52,-8.35,5.99,-1.25,0.239,-0.633,-0.996,-1.52,-0.0983,0.0,0.0,0.0,1.0,30.0,13400000000.0,-4.28113001805343,-8.325490466894689,6.391903857702462,-1.2925302406385413,0.2599092518169126,-0.6339612807699468,-0.6611911500594487,-1.588367443270777,0.005960856285411237
268,13.5,-4.21,-6.46,5.6,-1.11,-0.161,-0.49200000000000005,-0.846,0.82,-0.046,0.0,0.0,0.0,1.0,30.0,13500000000.0,-4.239881557099639,-6.934650901160075,5.906549770522057,-1.1538295778155094,-0.036828650394567786,-0.5314188240186598,-0.7630445406356632,-0.23507407109958245,-0.026892334855466035
269,13.5,-3.24,-7.18,6.01,-0.797,-0.294,-0.294,-0.0594,0.405,0.679,0.0,0.0,0.0,1.0,30.0,13500000000.0,-3.6600476385844933,-7.1175738419974275,5.969954054073061,-0.882682704178914,-0.2181325458818264,-0.3599247960917402,-0.37524614149097,0.12459197766874619,0.41942087238955306
270,13.6,-3.56,-10.6,6.32,-0.5670000000000001,-0.0941,-0.0152,-0.517,-2.79,1.2,0.0,0.0,0.0,1.0,30.0,13600000000.0,-3.602029718723493,-9.713940213661813,6.18449561964361,-0.642802410963695,-0.13069051912583407,-0.11092076724484853,-0.4533707111908398,-1.5131556081796074,0.9129561725305181
271,13.6,-3.74,-8.47,4.68,-0.107,-0.0244,0.0673,-0.703,-0.607,-0.33399999999999996,0.0,0.0,0.0,1.0,30.0,13600000000.0,-3.6820390503847404,-8.786505331920608,5.26239745530834,-0.23565806600673062,-0.05575649049597044,0.017812905032682125,-0.590948474476693,-1.0039748372769928,0.12454558701302754
272,13.7,-2.82,-8.89,5.25,-0.0938,0.0134,0.247,0.266,-1.02,0.27699999999999997,0.0,0.0,0.0,1.0,30.0,13700000000.0,-3.1821403169557114,-8.863667323478447,5.254799115154571,-0.1278632746465807,-0.007001677483389805,0.18336092821566374,-0.11865994209305403,-1.012979576489022,0.2209376530517359
273,13.7,-3.38,-8.24,5.92,0.359,0.258,0.221,-0.14400000000000002,-0.445,0.929,0.0,0.0,0.0,1.0,30.0,13700000000.0,-3.2968797298112564,-8.39868423146128,5.662497553877775,0.2420933067393552,0.17982253171704998,0.21054864675917184,-0.13262556097394249,-0.6938243701266595,0.6686228896865026
274,13.8,-3.52,-9.17,6.82,0.473,-0.0159,0.251,-0.217,-1.51,1.67,0.0,0.0,0.0,1.0,30.0,13800000000.0,-3.4262677456413067,-8.973748342292144,6.3719252872353636,0.4175541641544576,0.0418395966395102,0.2397677422380337,-0.17912669564988415,-1.1524441973858637,1.3017616501798004
275,13.8,-1.95,-7.79,5.3,0.948,0.0751,0.207,1.47,-0.35100000000000003,-0.091,0.0,0.0,0.0,1.0,30.0,13800000000.0,-2.5701762554338243,-8.091190030538057,5.714947601089316,0.8206281778089941,0.06528793256803161,0.21609871880812775,0.7297536642894188,-0.7021021568068864,0.4211629103077723
276,13.9,-3.39,-7.81,6.44,0.887,0.0709,0.0813,0.0718,-0.643,0.716,0.0,0.0,0.0,1.0,30.0,13900000000.0,-3.045594244983894,-7.8815452671449435,6.159328730441226,0.8710626690634335,0.06924439896371258,0.11872996261925649,0.36713679952820094,-0.6688918804785828,0.6075790052779619
277,13.9,-4.07,-6.55,7.14,1.14,-0.0727,0.00496,-0.5479999999999999,0.32,1.09,0.0,0.0,0.0,1.0,30.0,13900000000.0,-3.63964991494132,-6.88879529250505,6.760377307372596,1.0754221596745452,-0.030825351316185856,0.036550846454961414,-0.137220950290095,-0.11322051659273791,0.9125984247471484
278,14.0,-5.76,-7.38,7.92,1.07,-0.31,0.258,-2.32,-0.87,1.44,0.0,0.0,0.0,1.0,30.0,14000000000.0,-4.8692465948216554,-7.255019150156599,7.4711044710665995,1.0713020208857034,-0.22764141144304853,0.19650954017144606,-1.3402121567930854,-0.5384648751503752,1.2460576447929035
279,14.0,-2.09,-4.8,6.37,1.13,-0.235,0.5,1.39,1.27,-0.491,0.0,0.0,0.0,1.0,30.0,14000000000.0,-3.257554192565886,-5.424649264161251,6.7962428178100325,1.11590530721088,-0.23282916142329127,0.4157288946445149,0.1644849403256501,0.4777353386666877,0.1477715367698491
280,14.1,-5.66,-6.35,9.42,1.19,-0.8590000000000001,0.20600000000000002,-2.25,-0.7190000000000001,2.15,0.0,0.0,0.0,1.0,30.0,14100000000.0,-4.650738696734911,-6.114555930586408,8.404330900004549,1.172208261217317,-0.6742749814250086,0.2642360507771073,-1.1662059698078715,-0.19472599478731545,1.4137167526998997
281,14.1,-3.66,-6.46,6.27,0.97,-1.15,0.595,-0.389,-1.31,-1.41,0.0,0.0,0.0,1.0,30.0,14100000000.0,-4.0762067910456405,-6.372106076725535,7.0962098444721935,1.0185547187095425,-1.0096575772626293,0.5031558037883992,-0.7378657867918936,-0.8214131104401254,-0.3716292092367812
282,14.2,-1.2,-5.32,8.54,1.13,-1.06,0.527,1.79,-0.6709999999999999,0.442,0.0,0.0,0.0,1.0,30.0,14200000000.0,-2.4082869954177237,-5.587695447994214,7.981101796059176,1.1032395078133113,-1.0451485718805167,0.520379117824563,0.6553124921771925,-0.7368940054102237,0.14280257362045434
283,14.2,-1.71,-2.74,7.29,1.02,-0.71,0.36700000000000005,0.88,1.43,-1.2,0.0,0.0,0.0,1.0,30.0,14200000000.0,-2.0033485667916584,-3.4645607344983125,7.557528838013563,1.0399876410721582,-0.8088712972585612,0.4095892490458744,0.7791441272151852,0.4807122372080398,-0.7062086679178312
284,14.3,-2.66,-3.62,7.32,1.15,-0.20800000000000002,0.313,-0.0938,0.0522,-1.4,0.0,0.0,0.0,1.0,30.0,14300000000.0,-2.384142496143948,-3.5804503247250734,7.411948671896664,1.1235835698213088,-0.38526148858614484,0.3398202215515084,0.29803993937573076,0.23992556951815344,-1.144870769579122
285,14.3,-3.11,-4.17,9.13,0.9109999999999999,-0.1,0.315,-0.5660000000000001,-0.975,0.214,0.0,0.0,0.0,1.0,30.0,14300000000.0,-2.8050690958430025,-4.01999646648761,8.46493405780425,0.9620460492695768,-0.18415425416716114,0.32189190356703656,-0.17815688994050355,-0.442757117732129,-0.2857001497260854
286,14.4,-1.07,-3.22,7.42,0.5479999999999999,-0.0177,0.31,1.47,-0.38,-1.61,0.0,0.0,0.0,1.0,30.0,14400000000.0,-1.7988980301044426,-3.4235491831887432,7.824499094961025,0.647421640650399,-0.06680523833276876,0.31330206221836693,0.7301889826551369,-0.4074930643062321,-1.123012688707598
287,14.4,0.42100000000000004,-1.43,7.67,0.332,0.365,0.153,3.06,1.17,-1.41,0.0,0.0,0.0,1.0,30.0,14400000000.0,-0.5115733676494281,-1.9372337829909771,7.729807396700478,0.40773973558515564,0.23761426144151476,0.19751155187660677,2.0142136684951133,0.47892103450564416,-1.3044655852551514
288,14.5,-1.64,-1.69,7.93,0.294,0.624,-0.11199999999999999,1.24,0.7190000000000001,-1.13,0.0,0.0,0.0,1.0,30.0,14500000000.0,-1.1659509079619552,-1.7529056071469182,7.852504365873937,0.3213114378454224,0.5100133528178111,-0.026057002471144286,1.5875226333718353,0.6138245560394983,-1.1941565608002251
289,14.5,-3.9,-2.36,9.49,-0.21,0.636,-0.248,1.56,0.685,-1.03,0.0,0.0,0.0,1.0,30.0,14500000000.0,-2.751433165945866,-2.2055322959783585,8.8561173477178,-0.08242031204355726,0.5988329896337585,-0.18637241992135894,1.5723541004968098,0.6538189764734673,-1.0903655884183723
290,14.6,-2.28,-3.18,9.26,-0.617,0.32899999999999996,-0.371,1.08,-0.574,0.425,0.0,0.0,0.0,1.0,30.0,14600000000.0,-2.478047826268539,-2.9320588491283748,9.10365520424099,-0.4886355252278429,0.4086027289005698,-0.3197339007685195,1.3010038601003435,-0.036108673045125994,-0.13224828263077137
291,14.6,-1.06,-1.27,7.69,-0.9129999999999999,0.48200000000000004,-0.379,2.39,1.73,-0.9890000000000001,0.0,0.0,0.0,1.0,30.0,14600000000.0,-1.6557181583897416,-1.6928902107628427,8.237232829645931,-0.8111006500031182,0.46034725639510055,-0.3625434104975713,1.9011804774515164,0.9562910545605305,-0.6739450642282987
292,14.7,-2.9,-1.71,7.29,-1.15,0.7509999999999999,-0.33899999999999997,0.764,1.77,-1.11,0.0,0.0,0.0,1.0,30.0,14700000000.0,-2.377280500463072,-1.7056466551390876,7.656678404942453,-1.0686227169626803,0.6652552776234214,-0.3455373596939255,1.2744481664910245,1.4135248139998728,-0.9496486923490632
293,14.7,-5.01,-3.56,7.68,-1.24,0.895,-0.41700000000000004,-1.05,0.467,-0.335,0.0,0.0,0.0,1.0,30.0,14700000000.0,-3.9040015407722564,-3.0881827869549605,7.670971992088111,-1.1988485132613078,0.8272235908859167,-0.3971567514365895,-0.006620905887065653,0.8816600628631552,-0.5610259461336664
294,14.8,-4.07,-6.21,8.18,-1.41,0.682,-0.545,0.0992,-1.58,0.609,0.0,0.0,0.0,1.0,30.0,14800000000.0,-4.000264579980442,-5.41569242358463,7.9829529732284366,-1.3592978104839668,0.724842022407485,-0.5039479342309314,0.05169998856353095,-0.501579162069115,0.1787441350939465
295,14.8,-3.1,-4.44,5.95,-1.57,0.508,-0.733,1.14,0.841,-1.14,0.0,0.0,0.0,1.0,30.0,14800000000.0,-3.4781987456023082,-4.688252857981776,6.736965851493692,-1.5194057619521961,0.5719700149883242,-0.6693984124475273,0.6514928841388945,0.2528337577134573,-0.6550556844021043
296,14.9,-5.49,-4.81,6.42,-1.4,0.40700000000000003,-0.81,-1.28,1.13,-0.15,0.0,0.0,0.0,1.0,30.0,14900000000.0,-4.6448474098774835,-4.779022909620823,6.54269906712783,-1.4286719587502694,0.45566738066060525,-0.7709587376096874,-0.4130074334705329,0.745725015801127,-0.33572509791334965
297,14.9,-4.81,-12.0,7.96,-1.12,0.109,-0.9470000000000001,-0.7859999999999999,-5.49,1.83,0.0,0.0,0.0,1.0,30.0,14900000000.0,-4.740619794655169,-10.16271209172211,7.4113559495467305,-1.1941190001955397,0.211269444489562,-0.898118114472531,-0.6185741890568536,-2.7582108447596765,1.0335937889233642
298,15.0,-2.32,-7.81,6.9,-1.0,0.242,-0.74,1.42,-0.815,1.13,0.0,0.0,0.0,1.0,30.0,15000000000.0,-3.3368960206747964,-8.408618319324438,7.097948429774387,-1.0466122856392175,0.23293425746542104,-0.783905137517309,0.5049416550874627,-1.6662950844263869,1.0945483563416794
299,15.0,-3.06,-4.88,5.22,-0.74,0.19,-0.8220000000000001,0.447,2.49,-0.217,0.0,0.0,0.0,1.0,30.0,15000000000.0,-3.1763232625727857,-5.777813177634185,5.9469628282971385,-0.8136244305351137,0.20266592244382797,-0.8114221046756896,0.47300836920124884,0.6691818528111322,0.26529819364848173
300,15.1,-4.83,-9.36,6.49,-0.639,-0.376,-0.451,-1.58,-1.7,1.3,0.0,0.0,0.0,1.0,30.0,15100000000.0,-4.135294673455464,-8.448556811648531,6.2797875334478075,-0.6809312051704324,-0.2052892554902936,-0.5510794893859736,-0.6584626069907757,-0.662092650956178,0.9195070928649569
301,15.1,-3.74,-10.1,5.78,0.006409999999999999,0.109,0.0593,-0.606,-2.34,0.7070000000000001,0.0,0.0,0.0,1.0,30.0,15100000000.0,-3.906062266370062,-9.679811082423434,5.973470309864057,-0.15863589745131523,0.016282338682011843,-0.11018590051536364,-0.6295489845325136,-1.6049308343540287,0.7851456511219442
302,15.2,-3.03,-6.87,5.14,-0.0547,0.0421,0.0544,0.174,0.902,0.0894,0.0,0.0,0.0,1.0,30.0,15200000000.0,-3.398031455520599,-7.584921435915589,5.462640322629359,-0.0796573173761879,0.03448359937876905,0.008698940361788268,-0.1866904249103813,-0.19625338535048376,0.3452478813802006
303,15.2,-3.12,-8.16,6.68,0.248,-0.044,0.11199999999999999,0.113,-0.42,1.6,0.0,0.0,0.0,1.0,30.0,15200000000.0,-3.2368002226064188,-8.01367829029736,6.208754051918648,0.169322193851216,-0.02084675639775646,0.08331608773743264,-0.02152256032593569,-0.3219795467177909,1.1385876153014416
304,15.3,-2.8,-8.98,5.77,0.529,-0.307,0.252,0.428,-1.36,0.507,0.0,0.0,0.0,1.0,30.0,15300000000.0,-2.9834986060818154,-8.734131105115141,5.939843812491824,0.44263335406365856,-0.22258268044500948,0.20516103556743387,0.2262220327587455,-0.9052569145716447,0.7392549418283755
305,15.3,-3.49,-8.44,6.21,0.785,-0.127,0.125,-0.217,-1.02,0.69,0.0,0.0,0.0,1.0,30.0,15300000000.0,-3.277220091606297,-8.514837692604035,6.105421251259054,0.7027901802032115,-0.1551976019220629,0.14725855493950007,-0.01805015574657748,-0.9697325543232451,0.7081126125877677
306,15.4,-3.31,-7.64,6.18,0.8009999999999999,-0.257,0.349,-0.0663,-0.48,0.32799999999999996,0.0,0.0,0.0,1.0,30.0,15400000000.0,-3.2962292128371593,-7.862591482483524,6.151130098981491,0.777417639133696,-0.22696753763700683,0.2929818534488622,-0.04464200747379695,-0.6945453779472035,0.46777954477464057
307,15.4,-3.47,-6.58,6.15,1.04,-0.38799999999999996,0.353,-0.17300000000000001,0.258,-0.0597,0.0,0.0,0.0,1.0,30.0,15400000000.0,-3.396999362340228,-6.906339411106007,6.150437525253975,0.9769481110910023,-0.34049423830967235,0.33633457073214407,-0.11538372206711947,-0.15929759600787274,0.13427106261537713
308,15.5,-3.73,-7.96,6.78,1.07,-0.344,0.627,-0.423,-1.52,0.153,0.0,0.0,0.0,1.0,30.0,15500000000.0,-3.5901073121092644,-7.691909182122776,6.536293437325378,1.0476562135407108,-0.3429657825573325,0.5462900407097125,-0.2849197537430135,-0.923894181807891,0.14611277017558968
309,15.5,-3.15,-6.49,7.06,1.26,-0.47700000000000004,0.473,0.23199999999999998,-0.524,0.0523,0.0,0.0,0.0,1.0,30.0,15500000000.0,-3.3348879887082,-6.795810688400581,6.857270611286664,1.2090115309427887,-0.4374589112240561,0.49335065797611694,-3.066737820395238e-05,-0.6991883696729233,0.08679794883218486
310,15.6,-4.66,-5.38,7.62,1.2,-0.42700000000000005,0.445,-1.33,0.0692,0.17600000000000002,0.0,0.0,0.0,1.0,30.0,15600000000.0,-4.103323813307558,-5.740235525160311,7.324743679510619,1.2021639050664645,-0.43008544656998526,0.4584256669110296,-0.7330143895895889,-0.2674208268223012,0.1431975582747949
311,15.6,-4.01,-4.39,8.03,1.28,-0.9420000000000001,0.321,-0.755,0.537,0.203,0.0,0.0,0.0,1.0,30.0,15600000000.0,-4.049205223181219,-4.733550554703943,7.756991689801331,1.26130980220056,-0.7909813932655665,0.35915940377254063,-0.7451312784104802,0.18459382745944525,0.1810087298731448
312,15.7,-2.96,-5.78,8.52,1.3,-0.963,0.41100000000000003,-0.0449,-1.41,0.244,0.0,0.0,0.0,1.0,30.0,15700000000.0,-3.4175722942160065,-5.513744096005344,8.224636058350558,1.2907095875049999,-0.9122532359010489,0.39660527595513495,-0.3592140248038279,-0.7114294206845715,0.22083610132432935
313,15.7,-2.47,-2.41,8.35,1.29,-0.863,0.0691,0.0521,1.4,-0.33,0.0,0.0,0.0,1.0,30.0,15700000000.0,-2.868072664803243,-3.1997091887554823,8.301471243194147,1.2901703587412936,-0.8775300524466457,0.160039371281205,-0.132527238069888,0.4750105575772865,-0.12743999374939746
314,15.8,-1.62,-3.37,7.47,1.02,-0.336,0.225,0.6409999999999999,-0.083,-1.49,0.0,0.0,0.0,1.0,30.0,15800000000.0,-2.1443120725375686,-3.3266715334242547,7.791866427453351,1.0848738923379284,-0.4957553753881295,0.2069621832710596,0.2937854761165405,0.16145707999293418,-0.9889432052567548
315,15.8,-3.37,-3.46,8.19,0.9259999999999999,0.138,0.32299999999999995,-1.15,-0.664,-0.9440000000000001,0.0,0.0,0.0,1.0,30.0,15800000000.0,-2.8550916336093444,-3.4260762565742273,8.035880303463788,0.9641491513048016,-0.0489625347397003,0.29077944172319947,-0.5019255036611225,-0.30237810745080645,-0.9605270545654443
316,15.9,-2.37,-2.23,6.97,0.51,0.0428,0.426,-0.06,0.182,-2.25,0.0,0.0,0.0,1.0,30.0,15900000000.0,-2.5737856631202227,-2.5343267578283424,7.3826073130246055,0.6190512960368132,0.01572937349735487,0.38845290172128333,-0.25836786424867086,-0.03019967337703383,-1.775819644082541
317,15.9,-2.35,-2.12,6.23,0.0559,0.0996,0.275,0.0644,0.0941,-3.01,0.0,0.0,0.0,1.0,30.0,15900000000.0,-2.44401171782835,-2.2254202106711976,6.676179899871198,0.19112514049524715,0.07485754517228047,0.30650281147516123,-0.08048136804137782,0.03964594883016048,-2.5561524878962922
318,16.0,-2.45,-2.87,7.51,-0.185,0.447,0.0679,0.136,-0.603,-1.67,0.0,0.0,0.0,1.0,30.0,16000000000.0,-2.4474843659373797,-2.7059945954479874,7.187224330310737,-0.09468399736495903,0.33721521580932745,0.1341535590553037,0.03882763806995558,-0.3214652629216317,-1.9958665244640992
319,16.0,-4.18,-3.24,8.42,-0.56,0.546,-0.0317,-1.34,-0.826,-0.657,0.0,0.0,0.0,1.0,30.0,16000000000.0,-3.4521746033967338,-3.104128966327454,7.942786598399344,-0.448267289375116,0.48440694411430923,0.014353054583795169,-0.7210832722833302,-0.6049699607193919,-1.1493439546525632
320,16.1,-1.43,-1.89,7.74,-0.915,0.445,-0.121,1.63,0.88,-1.16,0.0,0.0,0.0,1.0,30.0,16100000000.0,-2.279510243822599,-2.19892002065498,7.818499536735213,-0.8029271207983353,0.45662533550376666,-0.0834161112899801,0.5746651835456027,0.22945420941509465,-1.156081410930926
321,16.1,-3.42,-2.21,6.49,-1.19,0.685,-0.415,-0.136,1.05,-2.16,0.0,0.0,0.0,1.0,30.0,16100000000.0,-2.9408832736583608,-2.207180865352661,7.004268481869478,-1.0970552436909007,0.617627783241189,-0.3229281020406449,0.18299750571777496,0.6905296660826463,-1.790827148731394
322,16.2,-3.39,-2.7,7.94,-1.18,0.778,-0.54,0.133,1.15,-0.364,0.0,0.0,0.0,1.0,30.0,16200000000.0,-3.2013272960199046,-2.5746083294534206,7.577773820288054,-1.1600830809632465,0.73068900557078,-0.479725011161653,0.15544246756786598,0.94871208293878,-0.8886898754935342
323,16.2,-3.51,-4.5,8.12,-1.32,0.6409999999999999,-0.631,0.225,-0.0572,0.217,0.0,0.0,0.0,1.0,30.0,16200000000.0,-3.380327396975822,-4.010108010215492,7.910101542526125,-1.2816004339392792,0.6674589021390664,-0.588995007826838,0.19377758685618038,0.3834768393487714,-0.18959746021098822
324,16.3,-2.71,-4.39,7.68,-1.5,0.723,-0.7240000000000001,1.11,0.6940000000000001,0.217,0.0,0.0,0.0,1.0,30.0,16300000000.0,-2.991602812443782,-4.293341103378835,7.7690733193240815,-1.4475574109363387,0.706614957473809,-0.6865127427633118,0.6987336690019352,0.5579638950431823,0.0674811326137405
325,16.3,-5.46,-7.9,7.24,-1.55,0.377,-0.8290000000000001,-1.67,-2.14,0.267,0.0,0.0,0.0,1.0,30.0,16300000000.0,-4.423032804646297,-6.982330523462666,7.4448067109237615,-1.5254012216634405,0.4742388579856122,-0.7894351335806543,-0.6067423984263063,-0.9580575993223558,0.19363053828092494
326,16.4,-4.53,-8.97,7.54,-1.65,-0.025,-0.747,-0.877,-2.5,1.13,0.0,0.0,0.0,1.0,30.0,16400000000.0,-4.485063482019718,-8.464262395298194,7.503150192139382,-1.620081046383378,0.12227916254625454,-0.7587830755384023,-0.75568898887216,-1.824495336277526,0.7856670614239395
327,16.4,-3.83,-6.44,6.0,-1.43,0.00305,-0.636,-0.395,0.624,0.14,0.0,0.0,0.0,1.0,30.0,16400000000.0,-4.105190415235681,-6.955048460003477,6.581876738998192,-1.4756426433407515,0.03822348647970564,-0.6700935283020477,-0.5569030960365912,-0.4486535614276357,0.3774323855030229
328,16.5,-2.95,-7.93,5.82,-0.975,-0.0489,-0.375,0.28600000000000003,-0.426,0.40399999999999997,0.0,0.0,0.0,1.0,30.0,16500000000.0,-3.4352925067472024,-7.6819355653197405,6.1149262907141395,-1.095215442011855,-0.023197926373023266,-0.456939504218063,-0.09235536287298934,-0.43592422645701095,0.39423024913071303
329,16.5,-3.5,-10.2,6.67,-0.6,-0.0128,-0.23,-0.42200000000000004,-2.46,1.52,0.0,0.0,0.0,1.0,30.0,16500000000.0,-3.472816550931748,-9.559309646457148,6.455128318338164,-0.7189122503700824,-0.01586746510786111,-0.2930149751486094,-0.2740318367316661,-1.5732790750788714,1.1060185212967908
330,16.6,-3.87,-8.95,5.75,-0.0864,0.14400000000000002,0.0288,-0.8109999999999999,-1.07,0.7879999999999999,0.0,0.0,0.0,1.0,30.0,16600000000.0,-3.7031442030893578,-9.10503112736185,6.022958596283667,-0.23828024863840414,0.09683790869520031,-0.06055932878909426,-0.5699701662688921,-1.2904799658319088,0.9049455520900673
331,16.6,-2.21,-8.22,4.38,-0.0199,-0.322,0.203,0.86,-0.359,-0.611,0.0,0.0,0.0,1.0,30.0,16600000000.0,-2.8372660056400667,-8.445185373945868,5.015997321322446,-0.07233795031068443,-0.1984397108730076,0.12981668723007017,0.2181268267051777,-0.767069107208321,-0.05353843958469118
332,16.7,-3.83,-8.67,5.5,0.0999,-0.00183,0.28600000000000003,-0.731,-0.848,0.45899999999999996,0.0,0.0,0.0,1.0,30.0,16700000000.0,-3.4129549951589846,-8.61279876834664,5.31264021266268,0.05854184052256134,-0.059831321695752754,0.2426321212016202,-0.30496380352211505,-0.812545235819366,0.2705232525336491
333,16.7,-1.78,-7.43,5.0,0.46299999999999997,-0.069,0.32899999999999996,1.44,0.28300000000000003,-0.129,0.0,0.0,0.0,1.0,30.0,16700000000.0,-2.4660001158546074,-7.730948323701669,5.121024544569924,0.36588060771990083,-0.06629517073543385,0.3050179695469995,0.6567351117291276,-0.19694394758201295,0.017917455146543193
334,16.8,-5.41,-8.83,6.46,0.655,-0.17,0.17800000000000002,-2.15,-1.31,1.09,0.0,0.0,0.0,1.0,30.0,16800000000.0,-4.173233242235655,-8.550359898542162,5.941676122229951,0.5855759873921523,-0.13940630810350335,0.2132694624379276,-0.8901360096668005,-0.8223847663567642,0.695761053554433
335,16.8,-3.23,-8.7,6.7,0.9359999999999999,0.0971,0.47100000000000003,0.11800000000000001,-1.44,1.03,0.0,0.0,0.0,1.0,30.0,16800000000.0,-3.626249834858205,-8.661925793086162,6.4064490274306864,0.8518553995153942,0.027328884392929575,0.3994351792139339,-0.33452375349230545,-1.1694309301367312,0.9070896539753828
336,16.9,-4.28,-7.32,5.69,1.07,-0.555,0.37799999999999995,-0.838,-0.436,-0.382,0.0,0.0,0.0,1.0,30.0,16900000000.0,-4.005361383183127,-7.661436474144174,5.967340932819325,1.0176186736941581,-0.38320866868924236,0.38395196406842835,-0.6120037463768537,-0.7573064278656898,0.09203940786730302
337,16.9,-3.29,-5.92,6.49,1.03,-0.244,0.55,0.177,0.585,0.0286,0.0,0.0,0.0,1.0,30.0,16900000000.0,-3.5905214282950664,-6.363086932374419,6.28767599666881,1.027026946677142,-0.285067590828216,0.5038929529295011,-0.17716147535774207,-0.0030467846017971922,0.051928694860849056
338,17.0,-5.38,-7.53,8.12,1.22,-0.737,0.478,-1.89,-1.46,1.24,0.0,0.0,0.0,1.0,30.0,17000000000.0,-4.628244787843328,-7.233093623926119,7.410698410010261,1.1736629034103034,-0.6036765820965002,0.48518976314784096,-1.1211552017898758,-0.8217280007719862,0.8031082695099796
339,17.0,-2.94,-6.91,7.76,1.31,-0.40700000000000003,0.652,0.55,-1.4,0.43200000000000005,0.0,0.0,0.0,1.0,30.0,17000000000.0,-3.6492272632619693,-6.992207044776014,7.624783798511794,1.277262389959453,-0.4650210529249755,0.6056813089383032,-0.20013431855037234,-1.1466666375706007,0.5684683618055699
340,17.1,-3.23,-4.77,8.03,1.56,-0.745,0.431,0.205,0.11,0.24600000000000002,0.0,0.0,0.0,1.0,30.0,17100000000.0,-3.4061162904286366,-5.335412959945675,7.873138676926118,1.4921083733828935,-0.6624041391380708,0.4795042783325263,0.0231466569051825,-0.44052910832904957,0.36458191259794936
341,17.1,-3.06,-3.01,7.31,1.32,-0.95,0.13699999999999998,0.099,1.26,-0.93,0.0,0.0,0.0,1.0,30.0,17100000000.0,-3.2054025172735203,-3.6016724299555527,7.5279936814906465,1.361327084880813,-0.8651570813585334,0.23210418527901241,0.06495157842689675,0.5150205823315734,-0.45394091832481276
342,17.2,-1.31,-3.26,7.29,1.19,-0.9990000000000001,0.0239,1.54,0.449,-1.33,0.0,0.0,0.0,1.0,30.0,17200000000.0,-2.1062536184751783,-3.346934297803379,7.382128486473504,1.231139483773131,-0.9595153562092326,0.0817126802601458,0.8778924433914814,0.477922748394072,-1.0078451431372168
343,17.2,-1.75,-2.91,7.76,0.9940000000000001,-0.281,-0.0628,0.7979999999999999,0.327,-1.14,0.0,0.0,0.0,1.0,30.0,17200000000.0,-1.8996612155158983,-3.0211725676600416,7.613724242369015,1.0509424731494215,-0.48116705011086136,-0.02267272934268738,0.8338614471231367,0.3931172645231333,-1.0914024323285425
344,17.3,-1.46,-2.49,7.5,0.5920000000000001,-0.203,0.0856,0.9790000000000001,0.386,-1.55,0.0,0.0,0.0,1.0,30.0,17300000000.0,-1.6447005515110746,-2.6251502677406124,7.544023206490457,0.7022022921725734,-0.28506133707372405,0.055535589416873754,0.9138513915602307,0.38911798403107056,-1.3813590079517108
345,17.3,-2.04,-2.27,7.49,0.243,-0.0434,0.10800000000000001,0.358,0.366,-1.64,0.0,0.0,0.0,1.0,30.0,17300000000.0,-1.8739357110596941,-2.360363559070854,7.510912505300214,0.3532646752398031,-0.11469188586385437,0.09343205193324178,0.607505980935195,0.3761276825450412,-1.5448894435812877
346,17.4,-1.96,-2.79,7.11,-0.0559,0.069,0.114,0.45899999999999996,-0.21600000000000003,-2.04,0.0,0.0,0.0,1.0,30.0,17400000000.0,-1.9238446389132176,-2.6806843169052814,7.265195259549506,0.042349530912834166,0.014809531168409357,0.10828883627382359,0.5256601317224496,0.04340333831410531,-1.857932022697117
347,17.4,-2.35,-2.49,7.8,-0.29100000000000004,0.289,0.0447,0.15,0.132,-1.31,0.0,0.0,0.0,1.0,30.0,17400000000.0,-2.170973189510228,-2.538517262512568,7.592974604745095,-0.2109553764912449,0.2081117829484034,0.062356903019214094,0.3186232161873014,0.09318696862315531,-1.5114920559671894
348,17.5,-2.47,-2.5,7.86,-0.537,0.391,0.0343,0.18899999999999997,0.295,-1.16,0.0,0.0,0.0,1.0,30.0,17500000000.0,-2.3443796337827134,-2.5098002389134555,7.756633254594333,-0.45870944092811294,0.3370466224912846,0.04209064395181109,0.24718419475824796,0.2065883607606005,-1.2892548258398604
349,17.5,-3.56,-3.46,8.55,-0.7609999999999999,0.36,-0.126,-0.69,-0.38,-0.313,0.0,0.0,0.0,1.0,30.0,17500000000.0,-3.0493210230005046,-3.218233504376105,8.24288399699417,-0.6884133022675365,0.35322859361962267,-0.07932576869310554,-0.2693245086444699,-0.12302335979835244,-0.6720000528305712
350,17.6,-1.25,-2.6,7.55,-0.833,0.244,-0.348,1.74,0.846,-1.13,0.0,0.0,0.0,1.0,30.0,17600000000.0,-2.0058900666277095,-2.7573017632429893,7.818218876930817,-0.7982815241448915,0.27622324650971264,-0.27339641390794167,0.8380710386193432,0.4214836335791815,-0.9615787992175309
351,17.6,-2.86,-3.66,7.72,-0.91,0.525,-0.649,0.26,0.22899999999999998,-0.722,0.0,0.0,0.0,1.0,30.0,17600000000.0,-2.50119058486416,-3.4303197126409124,7.758020875641418,-0.8831739312794047,0.45160899730527226,-0.5447050188741442,0.5194797414257843,0.3133245467372948,-0.810100772504019
352,17.7,-2.36,-2.99,6.9,-1.05,0.6990000000000001,-0.705,0.89,1.38,-1.25,0.0,0.0,0.0,1.0,30.0,17700000000.0,-2.419313735445574,-3.1020338875236515,7.232144106145176,-1.0099413174748102,0.6260178215399949,-0.660490400229842,0.7236839229614312,0.9127035256491571,-1.088235014545758
353,17.7,-4.42,-5.56,7.14,-1.22,0.5489999999999999,-0.784,-1.1,-0.604,-0.648,0.0,0.0,0.0,1.0,30.0,17700000000.0,-3.5795169650795,-4.934601017432443,7.17566934913009,-1.1695602641637453,0.5717208455899669,-0.7497047045386608,-0.28139985720091476,0.06044786042121164,-0.8098884662751361
354,17.8,-3.13,-5.66,6.27,-1.89,0.615,-0.718,0.263,-0.0431,-1.02,0.0,0.0,0.0,1.0,30.0,17800000000.0,-3.3188409704282824,-5.475431127373339,6.620588991483607,-1.7170063990185644,0.6022323354440879,-0.7268035365200608,0.018634301051522806,0.00226295460715778,-0.9427352712228364
355,17.8,-4.13,-6.95,5.05,-2.19,0.39399999999999996,-0.841,-0.772,-0.5,-1.53,0.0,0.0,0.0,1.0,30.0,17800000000.0,-3.7892342746738055,-6.574814127984599,5.657982742622146,-2.0764237690702187,0.45543007773059,-0.8092907406193097,-0.4171066223014062,-0.27996521264149754,-1.3140439984251173
356,17.9,-5.67,-13.4,8.39,-1.87,0.151,-0.603,-2.46,-6.17,2.62,0.0,0.0,0.0,1.0,30.0,17900000000.0,-4.879895270689523,-11.66341596557275,7.332423062825738,-1.919566937704704,0.24080912409225763,-0.6602813573972691,-1.5430029380890156,-3.58965335378561,1.1733263933332558
357,17.9,-5.08,-8.35,6.74,-0.782,0.135,-0.0164,-1.92,-0.657,1.54,0.0,0.0,0.0,1.0,30.0,17900000000.0,-4.995936481125392,-9.193057811451455,6.969329704273249,-1.0551551046230019,0.16621447950743679,-0.1951884658843983,-1.7507766532803273,-1.9417568244037988,1.4051623882212396
358,18.0,-3.67,-4.5,5.48,-0.195,-0.142,-0.184,-0.513,3.32,0.485,0.0,0.0,0.0,1.0,30.0,18000000000.0,-4.227022500075111,-5.694090254256171,6.056526772719994,-0.4015423494623451,-0.05107444774176226,-0.1871067351054197,-1.0686029529776349,1.0148935767398073,0.8233730864275083
359,18.0,-4.21,-11.7,6.37,-0.179,-0.525,0.0801,-1.21,-3.84,1.34,0.0,0.0,0.0,1.0,30.0,18000000000.0,-4.217151129984699,-10.171870739539866,6.248652921286128,-0.23243736731402706,-0.3851884331613541,0.0059039051395848585,-1.1465308840289818,-1.71313499785095,1.1500198166945959
360,18.1,-2.99,-9.07,5.11,0.155,-0.166,0.324,0.0111,-1.26,0.0037,0.0,0.0,0.0,1.0,30.0,18100000000.0,-3.5055229931179857,-9.35035709266652,5.550778157203985,0.061967679420795146,-0.23066220766535747,0.23567330488994676,-0.5085277767683215,-1.4585124709889778,0.4252383817092876
361,18.1,-2.31,-7.48,5.01,0.0192,0.0525,0.304,0.799,0.27699999999999997,-0.128,0.0,0.0,0.0,1.0,30.0,18100000000.0,-2.8122360566378273,-7.955889139404992,5.219337991069416,0.02946947090083612,-0.03103495084346619,0.2850275147747023,0.21208775958421355,-0.48330515725503675,0.07544340586454773
362,18.2,-3.02,-8.0,5.8,0.46299999999999997,-0.313,0.402,0.16899999999999998,-0.34700000000000003,0.555,0.0,0.0,0.0,1.0,30.0,18200000000.0,-2.9327188984704646,-7.988776539548517,5.575223033423681,0.35889968573054526,-0.22981821640572725,0.36951990676572843,0.18834087701875024,-0.40671349633659226,0.37865173967907245
363,18.2,-4.07,-9.26,6.95,1.02,0.0929,0.35700000000000004,-0.81,-1.85,1.41,0.0,0.0,0.0,1.0,30.0,18200000000.0,-3.5922312764071123,-8.936553154629191,6.417817043124827,0.8612551091478386,-0.0023042650421399857,0.36047643520407363,-0.3618730055565603,-1.2177151992017436,1.03074030781441
364,18.3,-3.59,-7.19,6.08,1.0,-0.10400000000000001,0.345,-0.146,-0.146,0.19699999999999998,0.0,0.0,0.0,1.0,30.0,18300000000.0,-3.5909373036229115,-7.634388793934463,6.210770571145742,0.9666842685318363,-0.0739990060648766,0.3492973872754246,-0.2428992881003118,-0.6155043168056779,0.5035929182732759
365,18.3,-3.73,-7.57,7.26,0.976,-0.20600000000000002,0.354,-0.0936,-0.483,-0.156,0.0,0.0,0.0,1.0,30.0,18300000000.0,-3.671580135181908,-7.586383056643886,6.853838333087024,0.9737630941950495,-0.16705872873911548,0.3526942129838648,-0.16061622821237997,-0.541048402332654,0.08655336510213663
366,18.4,-4.35,-9.0,8.05,1.12,-0.33399999999999996,0.583,-0.812,-2.7,1.42,0.0,0.0,0.0,1.0,30.0,18400000000.0,-4.064997529749812,-8.640322731334333,7.58696012681981,1.0848852728782727,-0.2847510817774588,0.519050305133838,-0.5196122271345129,-1.7541917577339556,0.929649087900573
367,18.4,-3.16,-5.86,6.17,1.15,-0.623,0.687,0.446,-0.0722,-0.8740000000000001,0.0,0.0,0.0,1.0,30.0,18400000000.0,-3.5401871505275597,-6.567418676206124,6.718512192915656,1.1343644889284694,-0.5232140806203438,0.6403648881070328,0.012563975296510432,-0.8090584432470436,-0.210740674565993
368,18.5,-3.33,-3.57,6.53,1.04,-0.695,0.5870000000000001,0.222,1.72,-0.929,0.0,0.0,0.0,1.0,30.0,18500000000.0,-3.4182990292327933,-4.332655892895324,6.602974113923974,1.0626589817625645,-0.6443218756887482,0.601817997337782,0.12799009101996653,0.6120528109867784,-0.6648731352579421
369,18.5,-2.29,-4.39,7.88,1.16,-0.505,0.45,1.18,0.40399999999999997,0.0617,0.0,0.0,0.0,1.0,30.0,18500000000.0,-2.76399545588413,-4.375409404838738,7.385657148127542,1.1366262330555335,-0.5461009824373869,0.49215574961545766,0.7077824641559938,0.4951452050662149,-0.2054841297551207
370,18.6,-3.16,-6.67,9.77,1.19,-0.765,0.266,0.126,-2.4,1.58,0.0,0.0,0.0,1.0,30.0,18600000000.0,-2.993639574121655,-6.086169987602926,8.847009583718945,1.1771838159708812,-0.7004231575418315,0.3287973465402666,0.38714570179692737,-1.131675058233971,0.9234205284094772
371,18.6,-0.826,-2.16,8.14,1.02,-0.547,0.10300000000000001,2.17,1.61,-0.39899999999999997,0.0,0.0,0.0,1.0,30.0,18600000000.0,-1.7366197144870419,-3.1589652391728302,8.413687053669246,1.0577433126435296,-0.5922609620587387,0.16569782587619414,1.369727150374937,0.40890826334354125,0.08729624064269048
372,18.7,-1.87,-2.88,6.79,0.818,-0.563,-0.0341,0.937,0.49200000000000005,-1.99,0.0,0.0,0.0,1.0,30.0,18700000000.0,-1.8139672928627155,-2.9509793246068186,7.418537120069265,0.8755677110478948,-0.5716322171233381,0.021378461116132952,1.1312389713656834,0.4555986118360818,-1.2261118808686888
373,18.7,-1.18,-2.76,8.23,0.644,-0.147,-0.0604,1.42,0.295,-0.7120000000000001,0.0,0.0,0.0,1.0,30.0,18700000000.0,-1.4463279750450182,-2.8085923093366163,7.915878497979187,0.6996045485858391,-0.2722696507839767,-0.03769233089330532,1.2903833141113485,0.365356129952283,-0.9010553544551965
374,18.8,-1.75,-2.26,6.74,0.38299999999999995,-0.0996,-0.0402,0.757,0.5589999999999999,-2.31,0.0,0.0,0.0,1.0,30.0,18800000000.0,-1.62242817471592,-2.399582490369405,7.19518813660639,0.4590237773422362,-0.15053882811164193,-0.03950368711397807,0.9964207065403772,0.474167178721965,-1.7918860508013994
375,18.8,-3.67,-2.56,8.79,0.322,0.223,-0.10099999999999999,0.809,0.419,-2.34,0.0,0.0,0.0,1.0,30.0,18800000000.0,-2.8098204633598027,-2.519183715016878,8.172640559550388,0.3549024515128282,0.11280328097327602,-0.08392413707436996,0.8931278650345142,0.4431680145043981,-2.138440953405306
376,18.9,-3.01,-2.23,7.54,0.073,0.243,-0.00237,-0.348,0.368,-1.53,0.0,0.0,0.0,1.0,30.0,18900000000.0,-2.9259050934740545,-2.303579217730105,7.784898209460658,0.14069104219997944,0.20459100354417736,-0.025015381526538594,0.2091072164041191,0.4009301178551735,-1.7537431390369722
377,18.9,-3.63,-1.71,7.2,-0.489,0.28,-0.0182,-0.8270000000000001,0.941,-1.81,0.0,0.0,0.0,1.0,30.0,18900000000.0,-3.3342116333930134,-1.8610288858505086,7.426416820373412,-0.3377971822225827,0.25775378805344684,-0.02009244795032333,-0.36192077426738334,0.7044024868987722,-1.7893125205921447
378,19.0,-2.45,-1.87,6.41,-1.17,0.29,-0.114,0.46799999999999997,1.14,-2.45,0.0,0.0,0.0,1.0,30.0,19000000000.0,-2.8214550275851016,-1.867717415015598,6.803459793585136,-0.9701695777166102,0.2804871226262527,-0.08792440868204533,0.09547202409891326,0.9491704567751899,-2.2070441579493023
379,19.0,-4.03,-3.45,9.13,-1.52,0.711,-0.00237,-0.92,0.17300000000000001,0.563,0.0,0.0,0.0,1.0,30.0,19000000000.0,-3.522293532325111,-3.047407889850601,8.229385058056826,-1.3879734828416803,0.5839955285952091,-0.026126148930203943,-0.46418332582816507,0.5130300536977683,-0.455633628820725
380,19.1,-2.8,-4.76,7.63,-1.28,0.883,-0.0409,0.654,-0.574,-0.544,0.0,0.0,0.0,1.0,30.0,19100000000.0,-3.1034336005305336,-4.324252385213464,7.862024936857,-1.3059268108655355,0.7947914765365757,-0.03679770010056535,0.15207910834649935,-0.09778644641308853,-0.5115048837728269
381,19.1,-3.77,-6.44,7.77,-1.3,0.679,-0.439,-0.0453,-1.68,0.0486,0.0,0.0,0.0,1.0,30.0,19100000000.0,-3.489977183855484,-5.901674347819624,7.805623288260208,-1.3014231227599948,0.7131593577917292,-0.3273192898106638,0.04329790198526563,-0.9868530449453704,-0.15736844204421296
382,19.2,-2.1,-3.32,6.9,-1.47,0.855,-0.599,1.81,2.03,-0.332,0.0,0.0,0.0,1.0,30.0,19200000000.0,-2.683925732637812,-3.976874913684445,7.250571231237476,-1.4295209674170883,0.8131559728585624,-0.523561586608406,1.016977342819635,0.7083563863868575,-0.2677823947363416
383,19.2,-3.87,-6.19,5.61,-1.71,0.732,-0.789,0.14,-0.196,-1.04,0.0,0.0,0.0,1.0,30.0,19200000000.0,-3.3717332288498687,-5.626897859992608,6.245073172409554,-1.6426507804879376,0.7559416087084906,-0.7152949021424108,0.5336503366331362,0.2001866285306192,-0.7560309168896961
384,19.3,-3.74,-11.3,7.8,-1.4,0.222,-0.9490000000000001,0.16,-4.59,1.8,0.0,0.0,0.0,1.0,30.0,19300000000.0,-3.585292095922767,-9.85654978447571,7.198080390880681,-1.4582658264387072,0.3795167334603724,-0.8841064058958139,0.3277210707343373,-2.491482393866651,0.8600658252860731
385,19.3,-3.47,-8.61,7.15,-1.2,0.413,-0.835,0.2,-1.38,1.64,0.0,0.0,0.0,1.0,30.0,19300000000.0,-3.5184339252459695,-8.927168849738086,7.168612211248879,-1.262015400318111,0.4031221794964542,-0.8486355073674344,0.25733037951304005,-1.866925799719161,1.3531933031008572
386,19.4,-4.75,-7.21,7.22,-0.5489999999999999,0.0929,-0.851,-1.33,0.41700000000000004,2.09,0.0,0.0,0.0,1.0,30.0,19400000000.0,-4.232622305635124,-7.6469123084007755,7.2001074088337536,-0.7202108610121515,0.18441784227243907,-0.8503434521677246,-0.6174922914533683,-0.5835578239152766,1.8190526078952471
387,19.4,-3.31,-8.96,5.99,-0.326,-0.11599999999999999,-0.44,-0.172,-1.1,1.04,0.0,0.0,0.0,1.0,30.0,19400000000.0,-3.697591189931287,-8.625901178924021,6.458438314221155,-0.42065879164639175,-0.027374507873736492,-0.5539412941890658,-0.3719688984109206,-0.8737534958002233,1.3264824834806879
388,19.5,-4.6,-8.74,5.38,-0.0192,-0.252,-0.1,-1.61,-0.7909999999999999,0.47700000000000004,0.0,0.0,0.0,1.0,30.0,19500000000.0,-4.220900358325102,-8.710968801878678,5.797468778703988,-0.11559917774285766,-0.18573381805085806,-0.22604724041765467,-1.0542828465611498,-0.8272532217575164,0.7893818194353237
389,19.5,-2.39,-8.24,5.35,0.11199999999999999,-0.0299,0.17800000000000002,0.552,-0.308,0.395,0.0,0.0,0.0,1.0,30.0,19500000000.0,-3.1591565238288966,-8.35983198974444,5.52321727879083,0.057348382365592115,-0.07587213080774466,0.06580699431011222,-0.16901496647535852,-0.5354779987566002,0.5400267885933312
390,19.6,-3.33,-8.05,5.0,0.319,0.158,0.193,-0.289,-0.203,-0.0301,0.0,0.0,0.0,1.0,30.0,19600000000.0,-3.2582290572151487,-8.128833042687644,5.202539949475711,0.25617163655895236,0.08900599338499707,0.15768193965996163,-0.23514211302518923,-0.34865423039499566,0.17955381644928592
391,19.6,-3.92,-7.96,6.57,0.441,-0.0672,0.302,-0.7709999999999999,-0.237,1.41,0.0,0.0,0.0,1.0,30.0,19600000000.0,-3.641991797999284,-8.002957498595654,6.040649678971984,0.39661861375240914,-0.021118072668396784,0.26192676176407287,-0.5304685589324849,-0.2859142501810392,0.9575256471782294
392,19.7,-3.86,-7.5,5.58,0.645,-0.14,0.331,-0.607,0.0225,0.19899999999999998,0.0,0.0,0.0,1.0,30.0,19700000000.0,-3.768415262374264,-7.627971286846856,5.758319680983909,0.5853580951630573,-0.10492895086058092,0.31182022714108815,-0.572647196033823,-0.11261222175974153,0.47793408962357486
393,19.7,-2.67,-8.9,6.77,0.73,-0.28,0.442,0.64,-1.62,1.09,0.0,0.0,0.0,1.0,30.0,19700000000.0,-3.1314414297699265,-8.576347813028406,6.378373623881329,0.6952682789247762,-0.2283527439474649,0.40585259360679066,0.09567694837263763,-0.9596332640826518,0.8649238516081448
394,19.8,-4.4,-8.38,6.4,0.914,-0.184,0.513,-1.01,-1.42,0.375,0.0,0.0,0.0,1.0,30.0,19800000000.0,-3.8670819101174017,-8.429958346951256,6.391628383232359,0.8614776339323303,-0.19708438840094916,0.4832480668780707,-0.5136928710368557,-1.2183193703074335,0.5551606362898236
395,19.8,-3.09,-5.93,6.27,0.932,-0.174,0.503,0.435,0.6559999999999999,-0.0895,0.0,0.0,0.0,1.0,30.0,19800000000.0,-3.4164500329551633,-6.566083214278588,6.31708292611282,0.915065998635275,-0.18081006211971698,0.4975154367006205,0.009158591850945363,-0.16511462768773288,0.14756228886351141
396,19.9,-5.42,-6.37,7.18,1.04,-0.42100000000000004,0.465,-1.87,-0.183,0.45,0.0,0.0,0.0,1.0,30.0,19900000000.0,-4.578313931135802,-6.4198908524410045,6.845960504976708,1.0100005410148853,-0.3501421910420965,0.4740286613207382,-1.0264988361400234,-0.17516465294030203,0.33878399369575196
397,19.9,-3.16,-7.65,7.6,1.15,-0.5479999999999999,0.524,0.42200000000000004,-1.91,0.499,0.0,0.0,0.0,1.0,30.0,19900000000.0,-3.75583003130584,-7.337014081203119,7.308107591248078,1.1163830007273334,-0.4896304646313743,0.510124300733512,-0.22819018225601517,-1.1499914574403776,0.440083469284537
398,20.0,-3.78,-6.24,7.74,1.34,-0.9129999999999999,0.447,-0.35100000000000003,-1.04,0.16699999999999998,0.0,0.0,0.0,1.0,30.0,20000000000.0,-3.769846242629372,-6.519121433173051,7.57281221092902,1.2863046146445485,-0.7881028408666284,0.46452791149070266,-0.2958741507959307,-1.0881857878646943,0.26742150447601776
399,20.0,-2.29,-3.32,8.31,1.28,-0.6759999999999999,0.353,0.882,1.32,0.272,0.0,0.0,0.0,1.0,30.0,20000000000.0,-2.911679522907367,-4.133976653479843,8.024631284089004,1.2815138563363706,-0.7090711681424356,0.3839682786870126,0.35328560923134944,0.2650055432346876,0.27031635041805324
400,20.1,-3.66,-2.64,7.75,1.26,-0.888,-0.0292,-0.8079999999999999,1.44,-0.705,0.0,0.0,0.0,1.0,30.0,20100000000.0,-3.345632570008674,-3.020123876741911,7.856311103739511,1.2651659477382853,-0.8352146766843734,0.08552567345783768,-0.2867317360420708,0.9252504312312567,-0.3463450399115142
401,20.1,-1.41,-2.84,6.8,1.06,-0.35700000000000004,0.0441,1.21,0.7020000000000001,-1.96,0.0,0.0,0.0,1.0,30.0,20100000000.0,-2.2231541724791737,-2.8858302186119973,7.208903274832233,1.109264859747797,-0.49807686881505,0.055602791926908895,0.5381594585796495,0.7998030868165881,-1.3666075950558814
402,20.2,-3.21,-3.62,8.48,0.713,-0.0501,0.139,-0.633,-0.47600000000000003,-0.44799999999999995,0.0,0.0,0.0,1.0,30.0,20200000000.0,-2.7954286650481417,-3.4331995350215547,7.987952004406997,0.8081519982196803,-0.18225649520934017,0.11584284631073155,-0.10729963764168382,0.08291252828571694,-0.7858013390574687
403,20.2,-1.87,-2.32,8.52,0.41100000000000003,0.111,0.14400000000000002,0.722,0.56,-0.486,0.0,0.0,0.0,1.0,30.0,20200000000.0,-2.2587701701452874,-2.603239741685463,8.314041917727437,0.5063650303884795,0.024487161689521975,0.13618151428774888,0.3497508392377083,0.35099426156308955,-0.5962465215175015
404,20.3,-2.5,-1.91,8.93,-0.073,0.231,0.0129,0.131,0.851,-0.10300000000000001,0.0,0.0,0.0,1.0,30.0,20300000000.0,-2.398659977941347,-2.0863862146763155,8.691559822167951,0.06611841920108869,0.17007718666648072,0.04713194778786217,0.22919106595250238,0.6319540754886475,-0.28438248813478373
405,20.3,-1.6,-1.84,8.33,-0.311,0.475,-0.10400000000000001,1.1,0.9890000000000001,-0.6629999999999999,0.0,0.0,0.0,1.0,30.0,20300000000.0,-1.93551498654175,-1.9026899361437246,8.469961516213385,-0.22044547929202524,0.3850455061768687,-0.062034740757875295,0.709118501146992,0.8325828941168687,-0.523770249367167
406,20.4,-3.32,-3.83,8.89,-0.633,0.508,-0.271,-0.423,-0.792,0.0278,0.0,0.0,0.0,1.0,30.0,20400000000.0,-2.7383814197983396,-3.339619841989781,8.727401273549717,-0.533936504153779,0.47172752457452105,-0.2129759887754922,0.08517598488647249,-0.08029162177798543,-0.175029984623866
407,20.4,-1.54,-2.84,7.58,-0.762,0.708,-0.322,-0.295,-0.439,0.2,0.0,0.0,0.0,1.0,30.0,20400000000.0,-2.0434368852882514,-2.9671219975979155,8.024164558258585,-0.7072369051232317,0.6382978718335202,-0.2917269738863428,-0.12434974105235938,-0.2818545883364297,0.06208950735374061
408,20.5,-3.03,-2.66,7.94,-0.91,0.912,-0.45899999999999996,0.23399999999999999,1.15,-0.49,0.0,0.0,0.0,1.0,30.0,20500000000.0,-2.615547393248851,-2.738143440641898,7.972580544293259,-0.8613120950682327,0.8312558442061345,-0.41255279142450535,0.07314693064478747,0.5227233439938508,-0.2869790740884204
409,20.5,-4.62,-3.0,8.69,-1.14,0.863,-0.523,-1.09,1.32,0.621,0.0,0.0,0.0,1.0,30.0,20500000000.0,-3.777934623942876,-2.933373851739138,8.41228318757151,-1.0730808301820545,0.8536352216502936,-0.49233179402998384,-0.5678962443714829,0.9707236238357158,0.2871071109322827
410,20.6,-3.45,-5.75,6.87,-1.46,0.775,-0.598,0.28300000000000003,-0.86,-0.763,0.0,0.0,0.0,1.0,30.0,20600000000.0,-3.587764507460162,-5.033344469928616,7.467025241427939,-1.3670921382361272,0.798197956319552,-0.5686587853923798,-0.0989432727506272,-0.057984092693760036,-0.37684210809073304
411,20.6,-4.37,-6.38,6.97,-1.47,0.6709999999999999,-0.87,-0.57,-0.8240000000000001,-0.168,0.0,0.0,0.0,1.0,30.0,20600000000.0,-4.041384844378864,-6.037360316348622,7.162400756027844,-1.4452895573229518,0.7085243424278971,-0.7863256854493057,-0.3585559483656591,-0.4884185173082581,-0.2447979069657989
412,20.7,-3.84,-7.89,5.84,-1.52,0.498,-0.919,-0.106,-1.65,-0.743,0.0,0.0,0.0,1.0,30.0,20700000000.0,-3.9246011978580158,-7.41861874987755,6.3519078480416065,-1.5020603480120218,0.560106238288911,-0.8821599468899137,-0.21936522456241656,-1.1411264330207227,-0.5597951717446559
413,20.7,-4.04,-7.39,5.87,-1.21,0.0257,-0.98,-0.545,-0.547,-0.223,0.0,0.0,0.0,1.0,30.0,20700000000.0,-3.9915212422193935,-7.397281585807834,6.056548798084912,-1.2801302086794544,0.1833538000371357,-0.9528324730635462,-0.398831764473003,-0.8072789626383419,-0.346850336650647
414,20.8,-4.13,-9.12,6.23,-1.09,0.14,-0.619,-0.912,-1.77,0.581,0.0,0.0,0.0,1.0,30.0,20800000000.0,-4.071825501566388,-8.681675616988967,6.162856209112327,-1.1356545135213518,0.15278969271262433,-0.7116962758308587,-0.6816532870323672,-1.3482445784993486,0.23979979992437972
415,20.8,-4.62,-7.74,5.48,-0.6859999999999999,0.0128,-0.39799999999999996,-1.58,-0.0575,0.198,0.0,0.0,0.0,1.0,30.0,20800000000.0,-4.389713257245884,-7.979597490856246,5.744336966334234,-0.7939720329009567,0.05409799654211721,-0.48510498624314957,-1.1767575812178528,-0.6229582058132613,0.2133711198058733
416,20.9,-4.55,-8.98,6.57,-0.28800000000000003,-0.109,-0.0286,-1.64,-1.11,1.49,0.0,0.0,0.0,1.0,30.0,20900000000.0,-4.482664068227667,-8.725459669112245,6.250381935280908,-0.40949511933671673,-0.060884880502886055,-0.15535910728383423,-1.4320635665775474,-0.8966334106502127,1.0205428228230744
