,Time (s),Acceleration x (m/s^2),Acceleration y (m/s^2),Acceleration z (m/s^2),Gyroscope x (rad/s),Gyroscope y (rad/s),Gyroscope z (rad/s),Linear Acceleration x (m/s^2),Linear Acceleration y (m/s^2),Linear Acceleration z (m/s^2),Still,Walk,Run,Cycle,SPM/RPM,Timestamps,Acceleration x (m/s^2)_kalman,Acceleration y (m/s^2)_kalman,Acceleration z (m/s^2)_kalman,Gyroscope x (rad/s)_kalman,Gyroscope y (rad/s)_kalman,Gyroscope z (rad/s)_kalman,Linear Acceleration x (m/s^2)_kalman,Linear Acceleration y (m/s^2)_kalman,Linear Acceleration z (m/s^2)_kalman
0,0.045,-1.85,5.34,4.13,-0.907,-0.6409999999999999,0.9490000000000001,-6.03,-2.56,0.0943,,,,,140,45000000.0,-0.591758848825855,2.9237734834766145,3.3064088133247345,-0.7330151076363132,0.1231705296288062,0.7616589784645926,-3.378530181737973,-1.9041027079794672,0.4384892131705816
1,0.095,1.0,3.34,4.73,-0.892,0.414,1.16,-3.74,-4.09,0.43,,,,,140,95000000.0,-0.2932673682419951,3.0935193890235615,3.6087677936124947,-0.8244795835278884,0.1718488595533308,0.9503825806026762,-3.4458981297029547,-2.905943744567544,0.4364868324094935
2,0.145,0.47200000000000003,4.43,7.17,0.256,2.2,0.968,-4.36,-2.67,2.43,,,,,140,145000000.0,-0.06890420324699001,3.7915151743826323,4.752720154476147,-0.12742797032626085,0.6729920959502786,0.9604263894467657,-3.7126340246035676,-2.7725396238206406,1.1319574886227985
3,0.195,-0.508,1.23,10.5,-0.669,2.55,0.505,-5.04,-5.65,5.17,,,,,140,195000000.0,-0.21920715539257601,2.3902905004199746,6.867244006190548,-0.48146049658985296,1.216805421529426,0.6929990964456467,-4.165271922780525,-4.455085131261253,2.7208866134135166
4,0.245,-2.34,5.37,7.9,-1.09,0.465,0.314,-6.71,-1.21,2.08,,,,,140,245000000.0,-0.9888070946752248,4.035253048111004,7.265927032162,-0.8798948391341761,0.9832962124174849,0.46935376594643174,-5.08570364059949,-2.5468485574310975,2.45846133436666
5,0.295,-3.87,4.9,12.9,0.237,-1.74,0.14,-6.51,-0.7979999999999999,1.51,,,,,140,295000000.0,-2.058103161349673,4.513510683634753,9.47895315260114,-0.14848409465239298,0.11081126275019593,0.2748439877589349,-5.612727341514235,-1.5174774520146614,2.064856073364037
6,0.345,-1.43,2.5,9.27,0.732,-1.66,0.507,-6.05,-3.88,3.44,,,,,140,345000000.0,-1.8229575649511969,3.3995125338455674,9.396359612988771,0.4281233159921741,-0.46446482935890765,0.41196961246160557,-5.775965471273264,-2.9082807167470994,2.638121893011781
7,0.395,3.99,-2.96,15.1,1.41,0.685,0.13,-1.07,-9.29,9.53,,,,,140,395000000.0,0.3606304075619329,-0.11921651292218804,11.656025875090613,1.0711319295270973,-0.08869887620075778,0.2454171849218488,-4.013123407746152,-6.665263847419761,5.515595868832831
8,0.445,-5.27,4.12,11.6,1.54,1.6,0.542,-10.0,-2.68,6.39,,,,,140,445000000.0,-1.7572474720395734,2.226382987184625,11.6338112243488,1.378183001895948,0.4649035310446946,0.4206019391775838,-6.258804455746758,-4.319087648631463,5.880863849087915
9,0.495,-4.2,7.95,7.79,0.17300000000000001,0.34600000000000003,0.55,-9.01,1.01,2.8,,,,,140,495000000.0,-2.676521621011368,5.393324756155969,10.10924087481525,0.5889358711796872,0.4258741100757813,0.49703450180670516,-7.291320187457626,-1.1817825628073,4.5936566993132
10,0.545,-3.44,6.7,6.73,-1.97,1.41,-1.28,-8.0,-0.0182,1.23,,,,,140,545000000.0,-2.9638963564915755,6.1163232227512445,8.768785181162945,-1.0868534576374045,0.7490928562040811,-0.5526203387139285,-7.5573399794142775,-0.49676587358009994,3.188212831525991
11,0.595,-2.88,2.25,-1.24,-1.04,2.66,-2.23,-6.27,-4.37,-7.63,,,,,140,595000000.0,-2.93231521439348,3.977041481849311,4.798404767841923,-1.056170161388546,1.3768585203482897,-1.5434113219253645,-7.074067845465694,-2.776990831557468,-1.3320756335185227
12,0.645,-2.42,4.04,1.45,-1.74,1.64,-3.01,-4.25,-2.43,-5.69,,,,,140,645000000.0,-2.739458153751822,4.011877144062017,3.470108224568174,-1.5039948853416236,1.4633150414072273,-2.409692731142922,-6.01386951763207,-2.572712700511475,-3.153005818382608
13,0.695,-5.48,1.21,1.17,-1.79,2.24,-2.57,-6.04,-4.79,-6.57,,,,,140,695000000.0,-3.7711259210921293,2.461565814061073,2.557661144672889,-1.6912931508176134,1.7185123779909248,-2.50438264113121,-6.0236794055940335,-3.8780595396089876,-4.58077785045335
14,0.745,-4.65,0.39299999999999996,2.88,-1.53,2.18,-0.7809999999999999,-3.56,-4.97,-5.26,,,,,140,745000000.0,-4.10197664861658,1.3170041899279845,2.6855324388968707,-1.5856658902512604,1.8701481343930229,-1.4864187360496632,-5.0987608083416385,-4.520899454664884,-4.8645873562694595
15,0.795,-10.6,-10.8,3.76,-1.86,-0.0525,1.3,-8.98,-15.4,-4.73,,,,,140,795000000.0,-6.548151236578564,-5.387475873780189,3.1117720999523217,-1.765321112539474,1.2383971314509052,0.15945700353825254,-6.555864527775595,-10.925572074453182,-4.808350728824778
16,0.845,-15.4,-8.0,13.9,-5.22,-0.147,1.55,-14.2,-11.4,4.79,,,,,140,845000000.0,-9.880423063673527,-6.8330159900143705,7.39144682197476,-4.027712158161353,0.7831759102152128,0.9808198926869932,-9.425645731902735,-11.20487395198583,-0.7977288388434225
17,0.895,-12.9,-8.34,19.1,-4.6,-0.16899999999999998,-0.354,-11.6,-9.34,9.42,,,,,140,895000000.0,-11.017140744786504,-7.666847930428801,12.036214026834894,-4.402490478793915,0.4703041644297137,0.19237137602883858,-10.241947854594086,-10.10699765867997,3.4716972145584766
18,0.945,-16.7,0.0335,9.29,-2.63,0.305,-1.99,-15.4,1.1,-0.36700000000000005,,,,,140,945000000.0,-13.156450020190668,-3.4061554713681774,10.946794621179405,-3.2417265690549764,0.4159874670501837,-1.0967070145521514,-12.178397856373085,-3.5092873585257562,1.867717087147724
19,0.995,-9.33,-2.76,6.95,-1.82,1.01,-1.16,-7.82,-0.305,-2.42,,,,,140,995000000.0,-11.715985098111226,-3.048630095963299,9.361271504871063,-2.3106699815660576,0.6111719875251395,-1.1340927580274314,-10.542156121862883,-1.6228802884341753,0.07611625551944723
20,1.05,-7.7,1.06,-0.6559999999999999,-1.98,1.43,-1.92,-5.94,4.3,-9.74,,,,,140,1050000000.0,-10.204169738975502,-0.7752771021232165,5.387433371832311,-2.0941216909714213,0.8802278880836794,-1.5983107156158738,-8.814401912185966,1.863999128427029,-4.025497957191525
21,1.1,1.79,1.81,8.36,-1.39,0.746,-0.184,3.97,6.16,-0.156,,,,,140,1100000000.0,-5.6889714052938505,0.655186885754873,6.566646418812203,-1.633008288051918,0.8361223952549635,-0.7629087337785412,-4.014846202911123,4.393112544531555,-2.4086478947618573
22,1.15,-1.31,-1.36,1.97,1.29,0.109,-0.813,0.938,3.03,-6.51,,,,,140,1150000000.0,-4.040510095273899,-0.4598395656898808,4.743162977401398,0.2812038016692797,0.5971996831495557,-0.7924965479284833,-2.155434902103976,3.5906298351692287,-4.122377132315233
23,1.2,-3.7,-7.02,3.24,1.54,0.585,-0.391,-1.48,-3.2,-5.52,,,,,140,1200000000.0,-3.9123252819112957,-4.089652953466421,4.14686024937766,1.105560978354193,0.593191023021472,-0.5553414404752182,-1.9018612601350522,-0.4071053292189801,-4.706366739578003
24,1.25,-13.0,-10.3,5.53,2.67,-0.0983,-1.3,-10.8,-7.22,-3.52,,,,,140,1250000000.0,-7.3333752518008755,-7.525910623663182,4.695550011792608,2.1300768123434346,0.3659762981615664,-0.9951947130783851,-5.242425321802993,-4.417947950265113,-4.210649416300266
25,1.3,-15.6,-12.8,8.75,3.1,0.98,-0.628,-13.4,-10.9,-0.621,,,,,140,1300000000.0,-10.445341572359112,-10.444125988401154,6.30394487020161,2.765257540765944,0.5677363010644798,-0.7783009497850549,-8.304964549688416,-8.234018968513253,-2.7107326399701557
26,1.35,-12.4,-6.28,5.48,2.84,1.11,-0.0439,-9.63,-5.83,-3.92,,,,,140,1350000000.0,-11.18117148030921,-8.140066553449614,5.977087055692757,2.8142046331280115,0.745916923104964,-0.3445065927205721,-8.802413086229997,-6.818740616271946,-3.216018895079851
27,1.4,-5.85,-1.08,4.91,0.993,1.37,0.795,-2.76,-1.66,-4.38,,,,,140,1400000000.0,-9.174254977669236,-4.233649283681415,5.553774995046046,1.6215388298816196,0.950982298242518,0.3285746966649265,-6.533953558278265,-3.781720596797344,-3.702382534488935
28,1.45,-1.69,0.36200000000000004,2.12,1.56,1.06,-0.0164,1.96,-0.8759999999999999,-6.89,,,,,140,1450000000.0,-6.356811476419768,-1.6908228590183167,4.191601026398832,1.5812384025110784,0.9868040419141675,0.12480579197115743,-3.345129877973776,-2.071083784076116,-5.034312243358898
29,1.5,-1.89,0.18,-0.20800000000000002,0.467,0.805,0.466,2.22,-1.56,-8.94,,,,,140,1500000000.0,-4.675282835338327,-0.655674713858124,2.446285213524207,0.8515488416337114,0.9270656613946406,0.32634164030758867,-1.2558533321710854,-1.770201851243764,-6.6662838559871584
30,1.55,0.373,-2.31,1.21,-1.87,-0.8440000000000001,1.76,4.4,-4.07,-7.56,,,,,140,1550000000.0,-2.774859639346522,-1.5710321873931439,1.9558525468443866,-0.9307320344873395,0.3451171173537113,1.17317184110897,0.8674828901675875,-3.124124060986076,-7.03971858271713
31,1.6,-5.44,-3.31,6.7,-2.03,-1.06,1.65,-2.02,-4.47,-2.42,,,,,140,1600000000.0,-3.778150231410263,-2.533223359540812,3.8378493865468277,-1.6506177805265239,-0.11658560410214636,1.4548236483945722,-0.2165439592071392,-3.9164592084409477,-5.109392673280618
32,1.65,-15.0,-8.49,2.65,-1.55,0.20199999999999999,0.517,-11.9,-9.09,-6.64,,,,,140,1650000000.0,-8.002609184069247,-5.829177329891253,3.366631169998094,-1.5847254371820276,-0.011902622268560883,0.9008720239756703,-4.602779373787801,-6.962192360389601,-5.748949113376586
33,1.7,-19.0,-10.2,8.11,-3.7,-1.47,1.26,-16.0,-9.8,-1.22,,,,,140,1700000000.0,-12.142570691867098,-8.24760446383409,5.2483190704111005,-2.9699710082933315,-0.49101397873125846,1.1130009513041743,-8.881555636236623,-8.632848006310503,-3.856550745664768
34,1.75,-13.5,-9.36,6.51,-3.4,-1.54,1.39,-11.3,-7.49,-2.85,,,,,140,1750000000.0,-12.653574181629994,-8.863105718056806,5.748826289435015,-3.251587345652551,-0.8356967791390981,1.2766181393806812,-9.78949481642911,-7.960037875850569,-3.435968590083622
35,1.8,-5.7,-6.4,4.51,-2.47,0.0476,-0.37,-3.77,-3.17,-4.55,,,,,140,1800000000.0,-10.035905070380458,-7.500240605188516,5.257385657022491,-2.7397434630689768,-0.545457240477923,0.30399730994699203,-7.529639325446762,-5.140078184277591,-3.9014610350622903
36,1.85,-1.49,-0.73,4.18,-1.87,0.225,-0.8540000000000001,0.418,3.58,-4.42,,,,,140,1850000000.0,-6.818803978552519,-3.754187404893109,4.829988147509118,-2.1701681144913314,-0.29229527124155896,-0.3800060099394975,-4.545914463256638,-0.0064508934537146345,-4.118129939228666
37,1.9,-0.8,1.32,3.25,-0.992,-0.198,-0.562,0.925,6.31,-5.02,,,,,140,1900000000.0,-4.553028654032686,-0.9465802125474889,4.203208973950684,-1.3986124134115387,-0.2613111026734478,-0.4875058109518101,-2.4920085367151072,3.712128687197807,-4.494971754593266
38,1.95,-4.9,-0.632,0.503,0.763,0.7020000000000001,-0.7759999999999999,-3.28,4.53,-7.68,,,,,140,1950000000.0,-4.683645855464704,-0.7725193223897209,2.735341057857611,0.016978745828179598,0.05522008214419921,-0.6579129455369701,-2.787838472475477,4.193620655144413,-5.825819555056665
39,2.0,-14.4,-5.1,-0.124,1.29,0.486,0.75,-12.6,-0.37,-8.5,,,,,140,2000000000.0,-8.341361694477168,-3.16696487836802,1.601044305871915,0.8506515903251419,0.19676861694685402,0.17371001557540344,-6.4715475833575775,1.5069557796031536,-6.943212268964532
40,2.05,-8.0,-8.84,8.73,1.8,-0.0782,2.56,-5.69,-4.79,0.10099999999999999,,,,,140,2050000000.0,-8.212856279053993,-6.305921563004072,4.429091262064525,1.472358392534666,0.10641759835151043,1.5832385674826097,-6.178136837660479,-2.20014677649131,-3.9998239559677
41,2.1,-19.8,-15.2,5.52,0.772,-0.0874,0.49,-17.2,-12.1,-3.41,,,,,140,2100000000.0,-12.574829644773683,-11.227118949462493,4.861853283927769,1.0137095078196237,0.042731722137629824,0.9374867902557775,-10.315995643601703,-8.028323773569838,-3.753369048174818
42,2.15,-17.9,-1.3,5.37,1.38,-1.49,3.38,-15.4,1.06,-3.82,,,,,140,2150000000.0,-14.579486847816653,-5.734328048465545,5.063434357506781,1.2535848757309975,-0.4609034779977204,2.3802252561916566,-12.224646554165899,-2.6779053392008603,-3.7812104250112157
43,2.2,-9.12,3.48,6.52,1.11,-1.69,2.46,-7.23,4.87,-3.0,,,,,140,2200000000.0,-12.524266090968547,-0.6359326950171829,5.641251981721191,1.1595543926999266,-0.86476821758023,2.4273464511505334,-10.349542462162436,1.7656480063711264,-3.454785617520374
44,2.25,-0.0431,-0.718,5.3,2.04,-0.13,1.42,1.6,-0.271,-4.36,,,,,140,2250000000.0,-7.825738225926071,-0.6813414906000415,5.505877855107047,1.736138311978681,-0.6233331816451533,1.8323292116849736,-5.863411991137759,0.566645927855238,-3.8330249044794855
45,2.3,-0.5770000000000001,-2.38,-0.56,0.27399999999999997,0.691,-0.589,1.65,-1.04,-4.35,,,,,140,2300000000.0,-5.096954858405967,-1.6212291494077387,3.0995522656280143,0.7786169451748743,-0.1914608365907371,0.4021037392016633,-3.0427059760476096,-0.3792081211520749,-4.049040282026611
46,2.35,-5.33,-1.58,1.09,-1.26,-0.259,-0.223,-3.45,-1.56,-8.53,,,,,140,2350000000.0,-5.184684540479923,-1.5984166031833245,2.3023655972738926,-0.556427245903202,-0.21365330580027303,0.03286881717765966,-3.1956134490805304,-1.0743561513903115,-5.921386425036481
47,2.4,-2.04,-2.29,-3.03,-1.67,-0.16899999999999998,0.905,-0.33,-1.6,-12.7,,,,,140,2400000000.0,-4.000869822281276,-1.9810777540040094,0.18702334644275087,-1.2856808655590717,-0.19898082511838985,0.5480173533448645,-2.11979688385819,-1.3838097704354249,-8.753795591836722
48,2.45,-17.9,0.467,4.23,-2.31,0.826,-0.313,-16.2,1.95,-5.31,,,,,140,2450000000.0,-9.233189316192952,-0.6265277322002474,1.790866756016745,-1.956484296035618,0.13781419245560886,0.03943349674051122,-7.405826180307659,0.5788489182572643,-7.314823074585497
49,2.5,-14.4,1.41,11.6,-1.23,2.17,1.08,-11.9,3.95,2.45,,,,,140,2500000000.0,-11.17823211114254,0.5003068324837807,5.682136875212491,-1.4807261499549498,0.8055633641916812,0.6540730844419702,-9.093041270499938,2.563490939258279,-3.2346413388859476
50,2.55,-16.2,-6.26,4.59,-1.23,2.92,-1.99,-12.6,-3.26,-4.05,,,,,140,2550000000.0,-13.068674059371745,-3.240250032533073,5.248887705907875,-1.3165312692330347,1.5003390608557323,-0.9077222685892463,-10.409633612573773,-0.8648765127847158,-3.5753348930546784
51,2.6,-13.0,4.04,8.52,1.11,1.75,-0.305,-8.53,7.68,0.593,,,,,140,2600000000.0,-13.04282174884265,0.7879973308402106,6.546533736010643,0.2725492676373178,1.582374314940637,-0.5517075921327015,-9.703976234349323,4.165607140950501,-1.8336173355975696
52,2.65,-0.7879999999999999,-1.45,1.23,0.192,-0.44799999999999995,-1.13,3.95,1.85,-6.7,,,,,140,2650000000.0,-8.429501078000666,-0.45031276101475015,4.437471959470832,0.21979937247712789,0.9152203960339349,-0.8932920929204964,-4.577962487695941,2.8023780799250737,-3.867010530678056
53,2.7,-0.51,-3.87,-0.9359999999999999,-0.513,-0.23800000000000002,-0.33299999999999996,3.92,-0.33,-8.94,,,,,140,2700000000.0,-5.448209405081723,-2.3424655928034426,2.3058228628424415,-0.26009439453083727,0.5362875562446823,-0.5623399787926286,-1.387633749621414,0.9583049575895302,-5.986733233980956
54,2.75,3.23,-2.46,5.06,0.914,-0.9329999999999999,-0.865,7.4,1.28,-2.99,,,,,140,2750000000.0,-2.181302411054695,-2.407498774346069,3.3984012070015686,0.5087934921801325,0.05349925655555643,-0.7411145484673083,1.911444186323425,1.1476911398824257,-4.73456347974788
55,2.8,2.78,-3.63,3.99,2.9,0.8059999999999999,-4.58,6.45,-0.24100000000000002,-4.45,,,,,140,2800000000.0,-0.3136229554775345,-3.08392304600635,3.6330876564636942,2.0747406936603667,0.30076096048779755,-3.0086590250254295,3.6153213597270226,0.33014998614396895,-4.6156599956387385
56,2.85,-9.51,-12.1,-6.73,0.579,-0.11199999999999999,-1.59,-5.59,-9.01,-15.2,,,,,140,2850000000.0,-3.775593941170861,-8.072623953606506,-0.47793528951654407,1.0952138906525777,0.16513321403451406,-2.170688612734019,0.15943395815139905,-5.168522095743867,-9.038272617623452
57,2.9,-20.8,-11.5,2.37,0.0864,-3.47,-3.62,-18.3,-8.2,-6.53,,,,,140,2900000000.0,-10.184421616553553,-9.969031155669565,0.6518367649105894,0.4345644581582859,-1.0293230762245076,-3.0267646479043857,-6.770657786522195,-6.953193807274635,-7.990203734205928
58,2.95,-10.7,-17.0,13.1,6.96,4.14,-1.57,-10.5,-14.3,3.67,,,,,140,2950000000.0,-10.37851073349155,-13.85934834683383,5.5900065329607544,4.70792484922711,0.669247483133607,-2.1662861003109066,-8.170737811373064,-11.278357559649734,-3.1180468065871603
59,3.0,-14.8,-7.7,4.52,0.527,1.36,0.7809999999999999,-13.0,-6.91,-5.09,,,,,140,3000000000.0,-12.042977920890761,-10.45130885290291,5.165536372571617,1.9699315939229383,0.896219550124435,-0.42538953648256683,-9.983752852102953,-8.706646608220023,-3.942017494561489
60,3.05,-2.76,-1.93,1.46,-0.0846,-0.113,0.316,-0.389,-1.33,-8.04,,,,,140,3050000000.0,-8.548406167194653,-5.736369097131507,3.6955550914189828,0.6244652515198759,0.5646034697542882,0.012532833445601688,-6.3816640534229006,-4.363915539361879,-5.654338650500081
61,3.1,0.888,-0.7829999999999999,-2.74,-2.21,-0.5,-0.39299999999999996,2.87,0.262,-12.3,,,,,140,3100000000.0,-4.996076436862551,-2.9956121105645455,1.1425790365504946,-1.2317620531932805,0.21478897157803428,-0.2270064238636484,-2.908378649152541,-1.6405768334824757,-8.431194564691554
62,3.15,0.429,-0.7709999999999999,-1.34,-3.81,0.625,0.294,2.48,1.68,-10.6,,,,,140,3150000000.0,-2.9538095063766874,-1.764708259129137,0.15774325775257403,-2.9201918202265342,0.3495788432350508,0.08074051897629425,-0.8854585447836629,0.31429138825589686,-9.337419057556799
63,3.2,-4.65,2.28,13.4,0.29100000000000004,1.45,1.54,-2.03,6.23,4.78,,,,,140,3200000000.0,-3.592339487337145,0.4732760515423138,5.410928549643678,-0.8172548130110542,0.7111625712174179,0.942692717628391,-1.315145470058123,3.7969486415118316,-3.438527134102239
64,3.25,1.61,-1.54,-3.57,0.321,-0.794,-0.17600000000000002,4.75,1.57,-12.3,,,,,140,3250000000.0,-1.633921745549053,-0.6406930839895939,1.848206296843673,-0.07183743588538605,0.21658621971679154,0.2819057332022692,0.9618483091006331,2.4859140486459728,-7.141248633953005
65,3.3,-0.675,-13.5,-1.85,-3.11,-0.244,-5.55,1.49,-9.61,-10.6,,,,,140,3300000000.0,-1.27293620519155,-7.755897811735317,0.3811328222849153,-2.0614614166411127,0.06524373131269112,-3.162871792828396,1.1601284892351447,-4.6351130724581475,-8.58647048096759
66,3.35,-2.66,-10.1,-8.34,0.991,5.17,-9.25,-1.31,-5.03,-16.6,,,,,140,3350000000.0,-1.7950956128925677,-9.052917145314591,-3.078528901824597,-0.062473373777206076,1.742598567986116,-6.75840346285506,0.23278600401578986,-4.867588442517082,-11.934883240635969
67,3.4,-0.079,-17.8,-22.0,-3.24,1.47,-8.14,1.02,-12.3,-30.1,,,,,140,3400000000.0,-1.1490723983922457,-13.89277984239997,-10.584651043386893,-2.1433638063580336,1.653026324456453,-7.574482107802779,0.52832406442036,-9.243149224748823,-19.52508515794924
68,3.45,15.6,-50.2,52.4,-6.33,-11.5,-1.18,13.6,-42.1,47.2,,,,,140,3450000000.0,5.156106508179873,-33.98198928676704,14.401275937436699,-4.885097248729129,-2.668882662230145,-3.797403272247915,5.4357291388798545,-28.58641839141302,8.355653026289975
69,3.5,-0.8,-6.12,1.31,3.86,-0.161,-1.04,-4.16,1.34,-4.09,,,,,140,3500000000.0,2.913933601689838,-18.565625091815456,9.207984353767248,0.8418693717176016,-1.8448258744784,-2.1686662731026485,1.8332738777250435,-10.968333273406081,3.155300070228667
70,3.55,-5.38,-2.55,5.49,-0.9279999999999999,3.84,1.69,-3.82,1.44,-4.15,,,,,140,3550000000.0,-0.2083130209608699,-9.703992621679026,7.733064869282732,-0.317178091649732,0.023132043162245486,0.11056237504650257,-0.28909389778876093,-3.663380515996284,0.10281750743736406
71,3.6,-1.01,3.59,6.81,2.06,-1.22,2.74,-2.74,11.3,0.97,,,,,140,3600000000.0,-0.5101076239348162,-2.3482712628617506,7.366886254154159,1.2395821169716992,-0.38534457203633427,1.6637128866508215,-1.2092198860775216,5.14576300402946,0.46516531856547483
72,3.65,3.52,-2.21,-2.29,1.96,0.0886,0.16399999999999998,2.16,4.83,-8.98,,,,,140,3650000000.0,1.007024088092824,-2.2717641790641885,3.536012477563443,1.7113675436499738,-0.22961270743107787,0.7778657383585278,0.05566204536589914,4.959869030774939,-3.4814488364648106
73,3.7,-6.2,-31.4,3.91,4.01,-1.5,1.4,-7.68,-25.2,-3.57,,,,,140,3700000000.0,-1.7060559524583567,-18.388757098156898,3.684372858874143,3.216690176948124,-0.6470450245942516,1.1453466388562348,-2.848481647651239,-12.795652048669648,-3.5184494624081246
74,3.75,-0.201,-29.5,4.15,2.62,2.19,2.54,-0.503,-24.6,-4.36,,,,,140,3750000000.0,-1.139478498422078,-24.53673758751698,3.869086557477301,2.825931180755311,0.2851701426430657,1.969137434922431,-1.9679344127291902,-19.74503071262593,-3.8700871351973887
75,3.8,-2.28,-11.9,-2.29,1.53,-0.0312,2.54,-1.66,-8.12,-11.3,,,,,140,3800000000.0,-1.568827157202443,-17.54468285801422,1.4257852171813408,1.9772550990182167,0.1812151344782898,2.3063332725905408,-1.8523288066250025,-12.901218676600624,-6.9746385610090575
76,3.85,-0.414,-4.54,-0.7879999999999999,-0.266,-2.25,0.657,0.0421,-1.14,-9.98,,,,,140,3850000000.0,-1.1340931334466915,-10.349039902296685,0.5475796032483213,0.5081979945679456,-0.6176497259023805,1.3321086800836928,-1.1411170753311057,-5.977231013037965,-8.230413379584364
77,3.9,3.53,0.35200000000000004,-4.07,-0.713,-1.4,-1.72,2.69,3.88,-13.2,,,,,140,3900000000.0,0.621702058885482,-4.428029525271773,-1.2842080843497221,-0.29153699225889407,-0.874719581455689,-0.4707042637186285,0.29717157266810634,-0.1741464418511045,-10.306929823402116
78,3.95,0.244,4.11,-0.35,-2.82,2.15,-1.54,-0.5529999999999999,8.28,-9.19,,,,,140,3950000000.0,0.47951633501488566,0.29616201869024206,-0.9136089911227628,-1.9473702695685966,0.11916295409149413,-1.10231352450861,-0.022002193391959746,4.802923142416365,-9.84022619543545
79,4.0,-5.86,-7.76,15.4,1.53,-1.02,1.07,-6.55,-2.99,6.89,,,,,140,4000000000.0,-1.9069910281447633,-4.161406657895585,5.557977607950183,0.32988096839683934,-0.25515078973491495,0.18082394152815584,-2.472761355507846,0.21512444695143085,-2.849586226105253
80,4.05,4.43,-7.93,3.61,1.46,5.87,1.83,5.12,-4.13,-5.41,,,,,140,4050000000.0,0.47856556979896525,-6.246613280493692,4.785217468642835,1.0699704245968098,1.7574920116514476,1.154955699588164,0.3777341846067803,-2.3429088360269015,-3.919442050699529
81,4.1,8.04,-9.85,-16.3,-2.62,-2.27,-1.16,8.68,-5.99,-25.3,,,,,140,4100000000.0,3.325063239182258,-8.240409455063658,-3.579259645907798,-1.346507797331706,0.43411187029448706,-0.21243728595101996,3.494594019672691,-4.4900003327600855,-12.853199256390457
82,4.15,2.68,-22.0,-8.45,-1.13,2.46,-1.45,3.48,-17.0,-16.9,,,,,140,4150000000.0,3.082229575394544,-15.853751631015903,-5.511475719186518,-1.2047217273428819,1.0997916965701737,-0.9434381704425149,3.4891150993827362,-11.854805430221592,-14.544134229699846
83,4.2,-0.958,-21.7,-6.96,-2.46,-1.65,-1.1,-0.682,-16.0,-15.0,,,,,140,4200000000.0,1.5612874517102897,-19.08854956645139,-6.086103368734813,-2.026775143916076,0.1962468355838487,-1.0359157860038557,1.9231834761443283,-14.295137237537244,-14.734615425991812
84,4.25,-12.1,-19.1,3.98,-2.77,2.68,-1.84,-12.4,-12.4,-3.16,,,,,140,4250000000.0,-3.5814965706949673,-19.09488543615939,-2.0928936903515543,-2.5134963047040113,1.0123750136716847,-1.510870523017488,-3.4540657531331656,-13.17944422649714,-9.898221205909058
85,4.3,-1.53,-10.7,9.68,-2.24,-1.17,-1.85,-1.52,-3.36,3.21,,,,,140,4300000000.0,-2.8092118445580163,-14.449897157125902,2.5773975270482885,-2.334389757632115,0.2952757115214242,-1.7111868000786097,-2.7279734024156124,-7.398605250495831,-4.421017549702195
86,4.35,-4.23,-1.25,4.48,-0.17300000000000001,0.993,-0.253,-4.96,6.55,-1.42,,,,,140,4350000000.0,-3.3440667434771356,-7.146239870495233,3.332157377267285,-0.9189444135223854,0.524538595401346,-0.8498681825343986,-3.565927049128104,0.8131264192557,-3.167057593992765
87,4.4,-6.14,1.88,4.51,1.32,0.609,1.61,-6.43,9.55,-1.58,,,,,140,4400000000.0,-4.396594174880686,-2.1519159161905472,3.7994060526959834,0.5472897529812768,0.5522914951543576,0.6031214218914767,-4.641165216706265,5.9566415431265245,-2.503913658631309
88,4.45,4.42,-2.78,1.92,1.63,-0.608,1.31,5.08,4.4,-4.73,,,,,140,4450000000.0,-1.0775922915555722,-2.499442160657983,3.053848181742933,1.2563322387313556,0.17103519474957918,1.0206588914851393,-0.9916183657415041,5.040225781789784,-3.434072535677648
89,4.5,-4.41,-6.63,-0.6920000000000001,1.84,-1.33,1.14,-3.89,-0.0945,-7.99,,,,,140,4500000000.0,-2.3320752175925885,-4.784928126032407,1.5678752561256366,1.6385630959076907,-0.32218496029070004,1.091151029840503,-2.07973689847597,2.017343639388121,-5.337743586597893
90,4.55,-8.87,-57.4,-1.18,1.99,2.67,5.37,-8.1,-51.8,-9.21,,,,,140,4550000000.0,-4.793273234403616,-33.89746284119443,0.4777968578063332,1.8687111938013292,0.6610071264915602,3.6185721795819914,-4.339880957237028,-29.665650100910728,-6.955746273561434
91,4.6,-4.66,-18.1,-5.86,2.55,-1.97,2.58,-2.31,-13.9,-14.4,,,,,140,4600000000.0,-4.743102543792216,-25.156542330161827,-2.0363986864220904,2.314871815545343,-0.2035067266076479,3.0051105749432945,-3.577817381817481,-20.384199571260183,-10.06628971646239
92,4.65,-1.05,-9.7,-2.52,-0.525,-2.03,1.39,1.22,-6.28,-11.4,,,,,140,4650000000.0,-3.352836177072615,-16.604256803609744,-2.2282426696691373,0.45510391474869305,-0.803668041123411,2.0511005596135203,-1.776607427165103,-12.080867667515081,-10.623573623707852
93,4.7,2.53,-4.02,-3.55,-0.768,-2.22,-1.11,3.78,-0.332,-12.5,,,,,140,4700000000.0,-1.1382458602460934,-9.641240505395306,-2.752582006371434,-0.3458792208453151,-1.2690558381104236,0.18390853755734682,0.30946957497738903,-5.164151210138106,-11.407628852672708
94,4.75,4.49,1.2,-1.72,-2.22,2.05,-2.85,5.05,5.52,-10.5,,,,,140,4750000000.0,0.9805040014508499,-3.642655469536434,-2.342958124272808,-1.5731986127554536,-0.1784583821251624,-1.6081539123518136,2.08917276186368,1.1257523267948253,-11.0283807473974
95,4.8,-10.0,5.53,8.35,0.833,-1.66,-1.86,4.97,6.14,-10.2,,,,,140,4800000000.0,-3.1531004746561075,1.432682064743851,1.898924136483369,0.002566520022243335,-0.6652731827827436,-1.7569138209206872,3.1707008562380317,4.077707308612666,-10.682245980628222
96,4.85,-4.22,-8.35,2.74,0.561,3.94,2.77,-4.17,-3.92,-6.01,,,,,140,4850000000.0,-3.55473411421131,-3.9801904054412773,2.2325778043564,0.3682719875426926,0.8479581687814872,0.9170337924786705,0.4148344981175214,-0.6306506196942347,-8.729971828575247
97,4.9,9.62,-3.05,9.86,0.474,2.05,0.136,12.1,1.26,1.39,,,,,140,4900000000.0,1.4048869947809313,-3.465505162060192,5.2583657968271575,0.4375108796702399,1.2429330634163547,0.45569445247018137,4.801711969759784,0.4824008288737667,-4.501393016101715
98,4.95,6.0,-29.8,-5.09,-2.19,-0.8079999999999999,-1.4,7.62,-25.4,-13.7,,,,,140,4950000000.0,3.1347146679078763,-18.036688350163722,1.1531829398037452,-1.2831866932614844,0.5690238093171404,-0.6404231026298164,5.859761456591268,-14.754916502857032,-8.344984135100425
99,5.0,1.98,-12.9,-1.96,0.16,1.08,-2.78,4.0,-7.97,-10.2,,,,,140,5000000000.0,2.700022996157888,-15.194498472669478,-0.08181256135388404,-0.3380763230769418,0.7369237831706945,-1.9042237209607105,5.161564638677688,-10.760544758615845,-9.1200930109491
100,5.05,-3.4,-25.2,-6.26,-3.35,-0.149,-1.36,-2.26,-19.7,-14.3,,,,,140,5050000000.0,0.4036727783397258,-20.73065976535652,-2.5326913014551518,-2.310517055434656,0.445821045096837,-1.582762843801247,2.375340206699365,-16.02332276824157,-11.284490911755045
101,5.1,-10.3,-16.2,5.58,-1.92,2.7,-1.94,-9.32,-9.53,-1.55,,,,,140,5100000000.0,-3.6257188133309044,-18.22379321614416,0.6856023986955084,-2.054776227153134,1.1865141942290436,-1.7937749452134624,-2.0153568231381036,-12.200616144607062,-7.216983316204827
102,5.15,-6.22,-10.6,10.0,-1.72,-0.579,-2.0,-5.51,-3.14,3.68,,,,,140,5150000000.0,-4.602334409191877,-14.005459586273933,4.380611402366914,-1.8355388553042618,0.6063897835079389,-1.9155875127168687,-3.327325568906767,-6.8665095922231245,-2.6637341670230157
103,5.2,-5.94,-1.52,5.21,-0.0638,0.392,0.00496,-5.54,6.25,-0.763,,,,,140,5200000000.0,-5.105897880367231,-7.097108942473627,4.709628758929067,-0.6752670916428836,0.5359441572734569,-0.7811626787194286,-4.158013942815502,0.8553560572761789,-1.8695220559682897
104,5.25,-5.13,1.23,2.43,1.44,-0.00244,1.64,-4.46,8.82,-3.75,,,,,140,5250000000.0,-5.114971152654005,-2.489622284084125,3.8053031220866984,0.7099735930099811,0.35903830534188697,0.6489644258701379,-4.271386402529252,5.544248912716191,-2.655270211930893
105,5.3,3.36,2.53,4.86,1.65,0.701,2.2,4.93,9.54,-1.81,,,,,140,5300000000.0,-1.9245731296464292,0.28779334468339135,4.223700008303463,1.325575641802562,0.4714023482339336,1.5651267785867877,-0.816976395258247,7.896601309010285,-2.302078323994297
106,5.35,-0.84,-5.99,-0.721,1.61,-0.8340000000000001,1.33,1.36,0.22699999999999998,-7.98,,,,,140,5350000000.0,-1.5162861829646066,-3.185782917949194,2.2621441577436996,1.5118387399219249,0.04246455370610808,1.426242628983919,0.0003101424550250309,3.3814038403755022,-4.674569060069263
107,5.4,-16.8,-61.4,0.599,1.41,2.68,5.99,-14.3,-56.2,-7.32,,,,,140,5400000000.0,-7.269831255540309,-35.39639008103507,1.6023770976626643,1.4451468272115922,0.9091235381380913,4.121952786611533,-5.368352131098161,-31.694970580761815,-5.779949011084819
108,5.45,-6.74,-15.9,-6.73,1.69,-1.71,2.75,-2.54,-12.3,-14.8,,,,,140,5450000000.0,-7.070376495057512,-24.608809498439502,-1.703065700271336,1.605495677785483,0.04851447050916746,3.3115706940787417,-4.306524294249983,-20.276890597303243,-9.548931574051169
109,5.5,-1.5,-10.3,-2.15,-0.84,-2.25,0.895,2.44,-7.21,-10.6,,,,,140,5500000000.0,-4.973411436757061,-16.69157816555686,-1.8803639738278806,0.003995804588776908,-0.706746721939885,1.8841559532883465,-1.7737253605594376,-12.5842363400807,-9.98811533573267
110,5.55,2.76,-4.71,-2.91,-0.845,-1.56,-1.53,5.75,-1.17,-11.6,,,,,140,5550000000.0,-2.062173110455206,-10.06203102939979,-2.2888192349413603,-0.551992392873652,-0.9871143477697972,-0.13251025379541548,1.0508525373106088,-5.864521829035725,-10.661633313612358
111,5.6,5.91,0.38299999999999995,-3.68,-1.67,2.86,-3.15,8.43,4.68,-12.1,,,,,140,5600000000.0,0.938946858043963,-4.282673358683363,-2.8406988002473,-1.2841502976219694,0.27699607130047266,-1.9148746003477872,3.8211527132701475,0.34317992301856926,-11.262647685917702
112,5.65,-11.8,6.83,6.41,1.96,-3.57,-2.41,-9.22,11.9,-1.58,,,,,140,5650000000.0,-3.8566225015012834,1.866098576941444,0.8290409141670025,0.8403704914671264,-0.9870754962343911,-2.2073342468513215,-1.0747932052230205,7.146835148273008,-7.216802556772994
113,5.7,-6.6,-8.83,2.8,0.573,5.27,3.49,-4.91,-4.33,-5.74,,,,,140,5700000000.0,-4.889365362096371,-4.052177665885221,1.6109177143166094,0.6652756039492895,1.0689160351469298,1.1579547788400681,-2.5146171483030217,0.3902679469019219,-6.599728015041942
114,5.75,12.0,-4.34,2.69,1.4,1.96,0.9620000000000001,16.6,-0.53,-5.08,,,,,140,5750000000.0,1.4686266071377245,-4.211433209867037,2.038988228739801,1.1464300023129406,1.3617143513259025,1.0422086429519017,4.661445721277971,-0.15150615669086331,-5.9647173523954224
115,5.8,5.01,-27.3,-6.24,-2.75,-1.16,-3.12,9.01,-23.2,-14.2,,,,,140,5800000000.0,2.8017746896368854,-16.986606493041485,-1.2452751783192237,-1.4052540093289605,0.5331126665312748,-1.4163156516218123,6.293992147580237,-13.720464996029119,-9.405788291224493
116,5.85,0.532,-15.9,-1.84,-0.111,-0.324,-2.55,4.13,-10.6,-9.31,,,,,140,5850000000.0,1.947319302715119,-16.385374216588296,-1.4812017286142,-0.5576762889547906,0.2514768780193708,-2.085957832339576,5.481580240572817,-11.88340549874252,-9.365763815681834
117,5.9,-5.01,-23.0,-6.51,-2.36,-0.0599,-2.4,-2.41,-17.1,-13.9,,,,,140,5900000000.0,-0.6717596715938599,-20.045323928792648,-3.476119331609355,-1.737977314987566,0.14916258949367095,-2.27145563426088,2.5189012084439786,-14.954485083525386,-11.260371211687378
118,5.95,-9.06,-15.6,7.69,-1.54,1.09,-1.73,-6.79,-8.64,1.22,,,,,140,5950000000.0,-3.8295081226766663,-17.585674483697638,0.9534652152235674,-1.6083264175351004,0.4583092226283509,-1.951629807358404,-0.9758723563798206,-11.237062970056407,-6.045511490031855
119,6.0,-7.24,-5.88,4.46,-0.972,0.297,-1.5,-5.72,1.82,-1.42,,,,,140,6000000000.0,-5.113385760885301,-11.108788119791837,2.3445028643544896,-1.1916106193440847,0.40530516098721386,-1.6848620935501042,-2.756925870702604,-3.5501943158653777,-4.112764993891229
120,6.05,-8.39,1.21,5.58,0.0315,-0.45,0.735,-7.08,9.14,-0.0326,,,,,140,6050000000.0,-6.346865453862161,-4.292658734752022,3.628020197132087,-0.3906230971019625,0.12426329891509064,-0.2555031988844516,-4.379906353879235,3.9206939974664348,-2.407888778908231
121,6.1,0.294,2.52,3.8,1.25,-0.147,2.62,2.2,10.1,-2.11,,,,,140,6100000000.0,-3.8469154369325094,-0.5231350878778329,3.696244334758101,0.6837839174011741,0.035129797627688655,1.4429927183191886,-1.9096595942970391,7.558534794126074,-2.283417422102246
122,6.15,3.89,-4.52,1.35,2.23,0.0672,1.02,6.46,2.33,-5.17,,,,,140,6150000000.0,-0.9343579886795044,-2.734647121063204,2.7654923715356836,1.696365922682538,0.04566763751813857,1.193140286807266,1.2325013004141216,4.4804259779632964,-3.4895613201274163
123,6.2,-12.2,-20.1,1.17,1.99,-1.12,2.67,-9.18,-14.1,-5.97,,,,,140,6200000000.0,-5.175302434365925,-12.343099926834865,2.1325626761294743,1.888660254738851,-0.3373551995395557,2.065488619972342,-2.6765890088710007,-6.4581209768626255,-4.525999934053965
124,6.25,-5.29,-31.3,1.11,2.19,2.14,5.16,-0.909,-26.9,-6.45,,,,,140,6250000000.0,-5.21848025324896,-22.832173753013095,1.7269134431903477,2.0860008859338706,0.4766707051743187,3.8933477914621237,-2.012995819908698,-18.492529931811816,-5.329933507865647
125,6.3,-7.46,-14.9,-3.03,-0.0834,-0.943,1.97,-2.52,-11.9,-10.9,,,,,140,6300000000.0,-6.062299099352242,-18.443209147719678,-0.1601477119075594,0.6653092370629692,0.01018584398362471,2.7572689118253497,-2.203336731984811,-14.611418649005714,-7.657357335906417
126,6.35,1.52,-7.85,-2.49,-1.18,-1.75,-0.21600000000000003,6.03,-4.88,-10.7,,,,,140,6350000000.0,-3.2079469299727044,-12.58186273296302,-1.0843969855008049,-0.543142073524534,-0.5681877431813607,1.0010248847118988,0.8876455190973456,-8.882401643787297,-8.92871003657643
127,6.4,6.1,-2.29,-4.86,-1.08,0.133,-2.51,9.89,1.42,-13.1,,,,,140,6400000000.0,0.29602435347714495,-6.887254841215834,-2.5821736773876225,-0.8947182332922939,-0.33778680430065944,-1.0728596636816456,4.267334602192765,-2.8172392261660892,-10.6716625167621
128,6.45,4.34,2.8,8.75,-1.0,1.99,-3.88,8.09,7.67,1.11,,,,,140,6450000000.0,1.8183767393297143,-1.5271836059612935,1.9132843824284071,-0.9636648846285163,0.4270928896681869,-2.730975288883451,5.702450333715486,3.3567396329474244,-5.748754679772518
129,6.5,-17.3,-4.23,2.78,0.5710000000000001,-4.36,0.9620000000000001,-15.3,0.887,-5.34,,,,,140,6500000000.0,-5.378725005859813,-3.0226834992612233,2.2571092911252495,0.04135247636791295,-1.145882017143044,-0.5496166579383956,-2.1823480486726465,1.9027707006649082,-5.5779586770881755
130,6.55,-0.639,-4.83,0.915,-0.35200000000000004,5.27,3.61,2.99,-0.136,-6.89,,,,,140,6550000000.0,-3.5944582269339405,-4.022692788387981,1.7246963485386,-0.21624517569435775,0.9622912185038082,1.9073766141896833,-0.2405307566838053,0.7025189578478774,-6.1261884228227625
131,6.6,4.07,-4.99,-9.93,0.235,-2.6,-0.163,9.23,-0.9990000000000001,-17.3,,,,,140,6600000000.0,-0.7091772289776483,-4.557915041162283,-2.898706142300148,0.07926509856834257,-0.20823012301059296,0.684451050467815,3.314922065088169,-0.29918815025224443,-10.795108507861677
132,6.65,3.81,-35.3,-9.38,-1.17,2.44,-3.09,7.71,-30.7,-17.1,,,,,140,6650000000.0,0.992064442900769,-21.567869328751154,-5.469826745864177,-0.7388503730095977,0.661942986388109,-1.5450334483680237,4.964934460170371,-18.196555508559225,-13.429575547985381
133,6.7,-1.77,-19.0,-4.59,-0.33399999999999996,-1.32,-2.6,1.79,-13.4,-11.8,,,,,140,6700000000.0,-0.047713135989933875,-20.147037233561377,-5.120800719385544,-0.47372300123494604,0.010702943270627485,-2.1681787436890616,3.772991721518162,-15.372758529439228,-12.748665763307734
134,6.75,-11.1,-21.9,-1.93,-2.7,1.24,-1.85,-8.43,-15.5,-8.86,,,,,140,6750000000.0,-4.208340373418986,-21.11697179773,-3.855014343763087,-1.9316615607718954,0.4146335602210615,-1.9802376284368277,-0.808289480899516,-15.447667294900548,-11.123806385330548
135,6.8,-9.21,-10.9,5.38,-1.94,0.156,-2.03,-6.54,-3.6,-0.612,,,,,140,6800000000.0,-6.091212304921535,-15.463801745292812,-0.19149652621572555,-1.9371222537796748,0.32965002360416573,-2.009631141103644,-2.9601041691868057,-8.472786119054334,-6.731501483102836
136,6.85,-6.19,-3.9,3.07,-0.733,0.299,-1.05,-4.2,4.03,-2.34,,,,,140,6850000000.0,-6.128400897998266,-9.06541521422541,1.1023347336237581,-1.148569770841657,0.31957883307901747,-1.4427982745369126,-3.425589238457101,-1.1122276109344291,-4.896534861639389
137,6.9,-7.98,2.35,5.14,0.695,-0.23399999999999999,1.3,-6.09,10.4,-0.2,,,,,140,6900000000.0,-6.825434332330692,-2.7491326841185932,2.7040710625136843,0.058742432267207434,0.13768021422348967,0.17731182557973368,-4.425869793399894,5.6651754296687695,-2.934111629653165
138,6.95,2.08,2.52,3.43,1.29,0.16899999999999998,2.35,4.77,10.1,-2.25,,,,,140,6950000000.0,-3.472988679784522,0.1663399688259033,2.9920461223640773,0.8650651817052484,0.14797147794022747,1.4606705016989785,-0.9735307895846064,8.2760165391937,-2.648259060534449
139,7.0,-0.373,-3.91,-1.35,2.09,-0.069,1.34,2.9,2.85,-7.66,,,,,140,7000000000.0,-2.30599970571748,-2.0891465996360865,1.2695622547717498,1.667247274102135,0.07667754529216642,1.389393131530942,0.48068094729077937,5.081647551816781,-4.742389488360027
140,7.05,-21.9,-39.2,-1.34,2.02,-0.524,5.0,-18.2,-33.4,-8.38,,,,,140,7050000000.0,-9.682149810825642,-22.623015704561375,0.23435240405564128,1.8982570552435538,-0.12069707935011079,3.5220985554616187,-6.532472530169237,-17.57301694256421,-6.262346609167839
141,7.1,-8.77,-19.7,-5.79,2.34,-1.21,2.63,-3.54,-15.8,-13.1,,,,,140,7100000000.0,-9.33877170648755,-21.005677393271405,-2.1555000787505603,2.1875444772449075,-0.478627500130517,2.9951557856851716,-5.409030156693249,-16.52921812888779,-9.119425502195444
142,7.15,-3.21,-10.6,-2.06,-0.257,-0.895,1.99,2.14,-7.71,-9.75,,,,,140,7150000000.0,-7.031599103304423,-15.24809475267162,-2.1176153032267693,0.5866675070938971,-0.6154419428428543,2.4014325547215196,-2.5749522225041774,-11.337225796513648,-9.382907852743353
143,7.2,1.92,-5.42,-2.45,-0.9259999999999999,-1.78,-0.898,6.82,-2.5,-10.4,,,,,140,7200000000.0,-3.6617747364584186,-9.810095165070951,-2.2494718844059354,-0.40394428063410204,-0.9981001756281473,0.45253089753293074,0.9521269320874142,-6.134632085498655,-9.807894480184672
144,7.25,9.66,-0.948,-5.5,-1.2,1.66,-3.5,13.9,2.77,-13.5,,,,,140,7250000000.0,1.353199716654038,-4.906594398684601,-3.5389520169831616,-0.9252632243723573,-0.1246839283770812,-1.8821414693305145,5.813053303254474,-0.8923553965899655,-11.350622015501791
145,7.3,-2.82,5.43,10.7,1.52,-2.57,-4.19,1.12,10.2,3.14,,,,,140,7300000000.0,-0.21779891421229225,0.8127639301329141,2.109621025836306,0.6760844250178626,-0.9281821466591349,-3.2453423680605553,4.051174182849645,5.637863335299042,-5.295789175799048
146,7.35,-10.1,-10.8,2.79,0.159,2.79,3.08,-8.21,-6.1,-5.64,,,,,140,7350000000.0,-3.9379480269896927,-5.612714108043451,2.379526434870817,0.337457509225568,0.2935628930384202,0.49089708012636724,-0.5519499407541799,-1.2723746600811126,-5.439615864289582
147,7.4,6.59,-4.57,9.29,1.69,3.38,2.73,11.2,-0.521,1.62,,,,,140,7400000000.0,0.02529206777953874,-5.035768306975825,5.120901990736723,1.2232070781220388,1.3077249904122132,1.813485541455154,3.8599997158339985,-0.830030305950162,-2.4897912367144346
148,7.45,4.36,-15.1,-10.2,-1.16,-1.76,-0.972,9.24,-11.5,-17.9,,,,,140,7450000000.0,1.6570904497819565,-10.604425475303668,-0.9568791518080078,-0.33750139319512873,0.29971148565124217,0.1681609893633058,5.879774298031846,-7.111585004810971,-8.928868524188891
149,7.5,3.96,-23.1,-4.85,0.115,0.987,-3.34,8.3,-18.3,-12.3,,,,,140,7500000000.0,2.5240194524285995,-17.518373033204977,-2.5012749195012507,-0.04116844870503844,0.5255453191642915,-1.904031874480097,6.7883822331669785,-13.69835497779232,-10.337478765485594
150,7.55,-3.27,-22.3,-7.67,-1.47,-0.907,-2.28,0.16699999999999998,-16.8,-15.0,,,,,140,7550000000.0,0.3428641374081902,-20.16410266655145,-4.5517012389850935,-0.9768779816900719,0.054830035953061185,-2.1261078934746935,4.30256449993117,-15.524334678734288,-12.28568957741437
151,7.6,-14.4,-16.3,7.6,-1.83,1.92,-1.91,-11.6,-9.69,0.87,,,,,140,7600000000.0,-5.207078524980543,-18.026049101955287,0.2688622646925882,-1.5355683527002768,0.6676999903640508,-1.9984577325614783,-1.6676206318809008,-12.089583118735714,-6.788651517263526
152,7.65,-8.9,-6.34,5.8,-1.23,-0.35,-1.96,-6.54,1.03,-0.217,,,,,140,7650000000.0,-6.597276566909219,-11.560021712121149,2.4630572424131314,-1.3354585519553135,0.33329735177384534,-1.9757416251430981,-3.4968228297206703,-4.365908059674425,-4.042720312156361
153,7.7,-6.87,0.271,4.43,0.000305,-0.6990000000000001,0.273,-4.99,7.98,-1.34,,,,,140,7700000000.0,-6.699943104853276,-5.013779200398287,3.2433407213663528,-0.46069716863261057,-0.005901787316315521,-0.6474598044577278,-4.057395469491635,2.902294112165814,-2.9134023736650034
154,7.75,-2.37,1.49,2.78,0.98,-0.379,2.3,-0.18899999999999997,8.92,-3.24,,,,,140,7750000000.0,-5.069938446579069,-1.4151621921107909,3.0595340688898083,0.48278288292866123,-0.12849688547638516,1.0935393236901385,-2.605111682913769,6.444998567681882,-3.0498695366766415
155,7.8,3.11,-1.55,3.15,1.94,0.38,1.5,6.08,5.17,-3.34,,,,,140,7800000000.0,-1.9906053177027796,-1.4897694998886524,3.095421819946772,1.4370815006179651,0.03858840609242689,1.3336266332642581,0.6554770691946503,5.694389803620951,-3.171099041030645
156,7.85,-4.99,-6.56,-0.56,1.61,-0.254,2.14,-1.41,-0.759,-7.61,,,,,140,7850000000.0,-3.119725651032655,-4.29518722991434,1.6453208983543566,1.5503219300445075,-0.0575522436357884,1.809933564295345,-0.11995006355363325,1.8951924087034748,-5.025871312616875
157,7.9,-13.2,-62.3,1.08,1.74,2.24,6.58,-8.69,-58.0,-6.47,,,,,140,7900000000.0,-6.914439115491984,-36.38992727468291,1.4210588751701816,1.6745378206192068,0.6973927770325826,4.62750600234314,-3.33734188593257,-33.3659131147614,-5.6292930607043
158,7.95,-7.14,-16.7,-4.24,0.284,-0.302,2.39,-1.78,-13.9,-12.0,,,,,140,7950000000.0,-6.999351331708839,-25.495260935325625,-0.824675477571831,0.7639060118545732,0.3690056471071257,3.3058608780241032,-2.752680253504624,-21.906067970303624,-8.291260591680746
159,8.0,0.213,-8.2,-2.58,-1.07,-1.71,0.46399999999999997,5.58,-5.78,-10.4,,,,,140,8000000000.0,-4.284265781710642,-15.925590926242313,-1.5210103250258538,-0.4370776527734649,-0.3141278867903312,1.6272366583612832,0.37559771128529107,-12.412434940438924,-9.172386481517533
160,8.05,4.58,-3.84,-3.37,-1.17,-0.7440000000000001,-1.88,9.27,-0.8170000000000001,-11.4,,,,,140,8050000000.0,-0.9473180065929938,-9.238492246014076,-2.254501997413543,-0.9170519175687915,-0.45537813442373537,-0.44441027153492296,3.7147591251449565,-5.586046384453757,-10.103183314397757
161,8.1,4.95,1.61,6.27,-0.45899999999999996,1.4,-3.97,9.39,5.74,-1.44,,,,,140,8100000000.0,1.2727239256749172,-3.2358947558311506,1.1271564747747038,-0.6170840557646089,0.15427436166497682,-2.5268979727387686,5.845373965763506,1.0817493533093652,-6.483316199924239
162,8.15,-14.7,2.55,-4.7,0.531,-3.22,-0.361,-11.6,7.04,-12.9,,,,,140,8150000000.0,-4.740198825197374,-0.03449162807829875,-1.184468587517261,0.13477027592172508,-0.9544671896053165,-1.247550062716048,-0.7040169861677992,4.589451641157391,-9.164494769216985
163,8.2,-4.09,-5.52,1.65,0.46799999999999997,3.76,3.18,-0.0958,-1.3,-6.25,,,,,140,8200000000.0,-4.495431905290761,-3.0696874765947966,-0.0600387197244836,0.35299489313428134,0.5946438339993141,1.3677056324730479,-0.4756784728496207,1.1222522590140431,-7.946687935723871
164,8.25,3.24,-7.23,-6.17,0.157,-0.486,0.39,8.46,-4.01,-13.8,,,,,140,8250000000.0,-1.5834329675801873,-5.371637003461525,-2.4838521740102095,0.22464226739912851,0.23955868564318922,0.7901965843125178,2.8789788033107873,-1.899173823298113,-10.392464726270816
165,8.3,4.57,-35.1,-4.75,-1.64,1.26,-3.54,9.44,-31.4,-12.4,,,,,140,8300000000.0,0.7330234322747722,-21.820686665758238,-3.382829969365429,-0.9964698331204668,0.5748620855525861,-1.7675545077106665,5.3421354692270455,-19.266706834910543,-11.23130298259277
166,8.35,-3.53,-19.4,-4.42,-0.498,-1.72,-2.72,0.735,-14.6,-11.9,,,,,140,8350000000.0,-0.8717892995277139,-20.48129224618925,-3.7942739561352203,-0.6700331941851994,-0.17919899132408812,-2.3301429595745127,3.612511864585218,-16.51935396593638,-11.510714474896574
167,8.4,-8.96,-21.6,-3.87,-2.45,-0.121,-2.8,-5.76,-15.8,-11.1,,,,,140,8400000000.0,-3.9165916244879684,-21.100286525204776,-3.8243143305114833,-1.835693287816704,-0.1600755789436502,-2.607677067661174,0.0938573100869271,-16.095860721219836,-11.339099677412644
168,8.45,-12.2,-11.1,5.94,-1.52,1.04,-2.51,-9.53,-4.24,-0.539,,,,,140,8450000000.0,-7.034875916856675,-15.567011387325946,0.04917605734729147,-1.6289528707436705,0.234253234557472,-2.5499813838267213,-3.5191578643613974,-9.116155886473969,-6.826332881859146
169,8.5,-6.97,-4.03,2.38,-0.33299999999999996,0.6559999999999999,-0.5920000000000001,-4.74,3.4,-3.62,,,,,140,8500000000.0,-7.010453335931465,-9.183448337584515,0.9738108266133882,-0.780262606269668,0.37283360146474875,-1.3934451966727097,-3.9774897280808728,-1.7477264837874724,-5.486582927736664
170,8.55,-6.49,1.42,4.35,0.369,-0.797,1.35,-4.23,8.88,-1.61,,,,,140,8550000000.0,-6.814528887943119,-3.316436535983904,2.313140494012468,-0.027636488303062312,-0.011558111227371215,0.22704706825476206,-4.072287843740618,4.508959136279269,-3.866772450654242
171,8.6,0.888,3.94,4.73,1.15,0.0684,2.25,3.68,11.0,-1.5,,,,,140,8600000000.0,-3.914916271651256,0.6986345943483094,3.271905417732147,0.7435710365615943,0.014715058458632503,1.421960512741416,-1.1619023577545735,8.330322214821114,-2.877828605507339
172,8.65,1.64,-2.96,-0.95,1.93,0.0641,1.07,5.02,3.3,-7.7,,,,,140,8650000000.0,-1.8237712110300515,-1.325730684764343,1.597081220305076,1.5205365360871665,0.030942290552811558,1.2140652724084622,1.158924609716152,5.368903827434103,-4.892748346052173
173,8.7,-24.9,-27.5,4.53,2.17,-0.902,3.89,-21.2,-22.0,-2.78,,,,,140,8700000000.0,-10.51080424924996,-15.808259641685295,2.760566239640699,1.9458555411010503,-0.27561010380990436,2.7946806479529243,-7.235125332456759,-10.743538041614496,-4.009947170599526
174,8.75,-7.52,-23.6,-1.66,1.8,0.473,3.02,-2.05,-20.1,-9.02,,,,,140,8750000000.0,-9.384917686204393,-20.119520809272647,1.0069335698074509,1.8503380100046936,-0.029626813569942567,2.9277717822289113,-5.288511142735619,-16.25181329083165,-6.103372485242421
175,8.8,-3.62,-10.7,-2.32,-0.455,-1.2,1.57,1.92,-8.14,-10.0,,,,,140,8800000000.0,-7.214717664239327,-14.90758980940605,-0.31285647723381604,0.3406242023582726,-0.41419584532870823,2.125766125550317,-2.5822718592233778,-11.476279882792108,-7.731558497161037
176,8.85,1.59,-5.72,-1.86,-0.9740000000000001,-0.87,-0.752,6.74,-3.05,-9.77,,,,,140,8850000000.0,-3.900186702734944,-9.82398893042608,-0.9266062379966422,-0.5202934833387445,-0.5639670116182899,0.4259334953498426,0.9175212808927529,-6.515615531447821,-8.583311114980257
177,8.9,8.48,-2.41,-5.22,-1.25,1.32,-2.78,13.2,0.9990000000000001,-13.1,,,,,140,8900000000.0,0.7603273565914148,-5.721742299012333,-2.6297896869663884,-0.9981618014273921,0.055079433205411865,-1.4677403224744603,5.528643526817531,-2.091660268585711,-10.470586779905757
178,8.95,-4.71,6.06,11.2,1.19,-2.39,-3.06,-0.171,10.5,3.73,,,,,140,8950000000.0,-1.298974274888649,0.7972333073251754,2.8564692097226407,0.43481598241113595,-0.7483410852550829,-2.4082527770941224,3.388867502196037,5.321219523444191,-4.536943725862752
179,9.0,-10.5,-6.01,3.29,-0.57,2.32,3.08,-7.25,-1.58,-4.82,,,,,140,9000000000.0,-4.762695167579021,-2.9692885243752425,3.028450276138129,-0.22321530704811055,0.2598748412505696,0.8335364094039681,-0.6052057215023354,1.258378724645067,-4.655217423794435
180,9.05,6.16,-1.29,21.0,1.68,1.68,1.78,11.2,2.45,13.4,,,,,140,9050000000.0,-0.6508528514929086,-2.0401185467591865,10.15773988583848,1.023157381023498,0.726509006477893,1.392591450767624,3.8267373683953045,1.959902228050174,2.8890632956565225
181,9.1,2.51,-19.6,-9.69,-1.2,0.0904,-0.7959999999999999,11.4,2.1,13.4,,,,,140,9100000000.0,0.5390484002255038,-11.756206285005032,2.2841683281949905,-0.43273821130787127,0.5174920736996447,0.09983900332790152,6.669912543108783,2.0423796149471936,7.281004641924781
182,9.15,2.65,-19.0,-0.47600000000000003,0.614,0.647,-3.24,7.66,-14.7,-7.68,,,,,140,9150000000.0,1.3337149633205403,-15.764281963141,1.1892132595574991,0.25274701844606384,0.5600466554821024,-1.8729298516795394,7.041613872261096,-7.814084382407836,1.0296249269072346
183,9.2,-3.15,-22.5,-7.44,-1.56,-0.927,-2.86,0.898,-17.4,-14.8,,,,,140,9200000000.0,-0.3541770162945932,-19.491233433670978,-2.233984059787148,-0.9343800274308192,0.07142296648090368,-2.4559702413096636,4.735161268047652,-13.457441638420025,-5.584703512967754
184,9.25,-13.7,-18.5,4.56,-1.46,0.985,-2.45,-10.6,-12.2,-2.24,,,,,140,9250000000.0,-5.378204404023261,-18.942772396103372,0.46118025838277754,-1.2785967018603102,0.3716121971281887,-2.452443780304128,-1.0220077645378716,-12.71716871760032,-4.187136145371839
185,9.3,-11.0,-6.17,5.04,-1.01,0.23,-1.95,-8.3,0.978,-1.09,,,,,140,9300000000.0,-7.49452615357295,-11.875448271256719,2.2775918777601936,-1.1026987815474563,0.32508031965278683,-2.155661407474409,-3.7543319208216746,-4.654638665162254,-2.8930135546296434
186,9.35,-7.04,-0.848,2.78,-0.525,-0.312,-0.18,-4.67,6.71,-3.01,,,,,140,9350000000.0,-7.323420027628907,-5.773832324274651,2.4768964929313007,-0.7243768806326436,0.115744223255689,-0.9886820220661421,-4.0980946061648424,2.035877024628049,-2.941895742543967
187,9.4,-4.17,1.16,1.07,0.564,-1.13,1.69,-1.78,8.68,-4.75,,,,,140,9400000000.0,-6.136316883350569,-1.9372619227894448,1.918782566800867,0.11935204869397553,-0.29359070850692204,0.59355609124658,-3.227829071901648,5.9473617813288175,-3.697402921233989
188,9.45,3.91,2.05,3.84,1.38,0.513,1.68,6.82,9.08,-2.35,,,,,140,9450000000.0,-2.3543865833652573,0.26893664839407894,2.6809269051037417,0.9449219184413672,-0.028555757983597607,1.2352943888620378,0.5443549251003543,7.791587998208682,-3.1343974156426073
189,9.5,-2.84,-4.16,-1.21,1.67,-0.00489,1.6,0.684,2.12,-7.86,,,,,140,9500000000.0,-2.537195445108181,-2.181645649677596,1.1374014187184993,1.4197591508054743,-0.020779505609358317,1.45071792130254,0.59678087319188,4.452647778079994,-5.108966504934205
190,9.55,-26.8,-64.6,-0.879,2.29,0.956,7.21,-22.8,-59.5,-8.26,,,,,140,9550000000.0,-11.670914110851346,-36.71844938376009,0.3374976840862368,1.9896602044648946,0.30017719982066227,4.852598174676443,-8.186903380778627,-33.197136305094205,-6.4256099390281465
191,9.6,-8.41,-17.7,-7.23,0.997,-0.307,2.09,-2.99,-14.6,-14.8,,,,,140,9600000000.0,-10.443344794017397,-26.195319605064743,-2.664518478990348,1.3395894410329485,0.10066686812105113,3.2207926336807233,-6.23586746488434,-22.248752205039906,-9.924806363253154
192,9.65,-3.0,-9.94,-2.63,-0.5820000000000001,-1.44,1.62,2.61,-7.61,-10.3,,,,,140,9650000000.0,-7.64130188654317,-17.20106115505206,-2.650825090189306,0.08118390198422554,-0.4055757307965367,2.27523992006801,-2.9149273407977034,-13.630721929693568,-10.081579198057183
193,9.7,2.49,-5.66,-3.46,-1.17,-1.84,-1.26,7.4,-3.09,-11.6,,,,,140,9700000000.0,-3.8273790592400334,-10.81525712100387,-2.9718237039730013,-0.7381881506165704,-0.8769084211693944,0.18705208717798705,0.9575314024543209,-7.4252570779118905,-10.71604377586711
194,9.75,8.11,-0.304,-2.97,-1.26,2.08,-4.11,12.5,3.3,-11.0,,,,,140,9750000000.0,0.6664403580271281,-4.999255767279792,-2.9711002544088263,-1.0799109399472782,0.09469221531408101,-2.3511213866540777,5.290837062226886,-1.1111539804785728,-10.834693441604832
195,9.8,-6.44,7.85,12.4,1.24,-3.65,-3.84,-2.6,12.5,4.66,,,,,140,9800000000.0,-2.00877508798277,2.110387489696686,3.1265943961703995,0.43934634806185,-1.1357637231658748,-3.230568921896828,2.3284371042053116,6.901915474692631,-4.360314564845253
196,9.85,-9.59,-8.8,1.62,-0.0974,4.53,3.69,-7.12,-4.25,-6.71,,,,,140,9850000000.0,-4.8627229447738,-3.926457459442285,2.528930426969462,0.08784328515293816,0.7259307229887457,0.857257733323614,-1.2187213860033062,0.3366328112921382,-5.342118703308368
197,9.9,9.38,-7.26,5.83,2.09,0.9390000000000001,2.67,14.5,-3.49,-1.65,,,,,140,9900000000.0,0.49894203724731323,-5.7709456132888866,3.8384602574845856,1.3990104448430323,0.7959424484825317,1.9280044437459758,4.68244470950936,-1.9161574088991262,-3.7993856493734564
198,9.95,2.78,-22.6,-9.06,-1.59,-0.746,-1.31,7.93,-19.0,-16.6,,,,,140,9950000000.0,1.3576449971100573,-15.082658198744618,-1.2783417489829074,-0.5584250136101734,0.2892807323400919,0.015387044670789551,5.901650883467549,-11.973645366205304,-9.14805748721915
199,10.0,1.21,-18.6,-5.91,0.138,0.9840000000000001,-3.37,6.16,-14.1,-13.0,,,,,140,10000000000.0,1.3020641364169785,-17.02884471494526,-3.1157142885904765,-0.10235200250504528,0.5175562249549852,-1.9842859552497625,5.998640969963898,-13.225459168922004,-10.757572098064525
200,10.0,-5.02,-22.5,-8.71,-1.84,-0.307,-2.15,-1.09,-17.0,-15.8,,,,,140,10000000000.0,-1.0778732990808189,-20.05609884339171,-5.334959922986297,-1.2402984549266423,0.24661804546810628,-2.0821696236539093,3.337403651422571,-15.447582133968659,-12.864525060722052
201,10.1,-12.3,-15.2,7.12,-1.43,2.16,-2.44,-8.77,-8.58,0.782,,,,,140,10100000000.0,-5.302436574559996,-17.369162523130164,-0.3940941147138064,-1.3645296782307847,0.8753298591008154,-2.293532127054461,-1.2079916691803563,-11.404544099217286,-7.162393887148233
202,10.1,-8.49,-6.59,4.7,-0.9059999999999999,0.213,-1.71,-5.64,0.858,-1.0,,,,,140,10100000000.0,-6.502392924052304,-11.404926070811623,1.6267260950670015,-1.0642489592459106,0.6576971028326246,-1.9488526600322642,-2.8718685117497946,-4.185419435107438,-4.587468906767665
203,10.2,-7.69,-0.5529999999999999,3.59,-0.192,-0.5529999999999999,0.155,-5.12,7.18,-1.87,,,,,140,10200000000.0,-6.94946695279195,-5.400428598397464,2.4055541791547377,-0.49303281577629676,0.2598781945140814,-0.7061535390264164,-3.715868244017769,2.5055557809360662,-3.4519883309871604
204,10.2,-2.94,2.73,2.89,0.65,-0.111,2.11,-0.0132,10.2,-2.73,,,,,140,10200000000.0,-5.440105424018123,-0.9017674718321551,2.5977332264809334,0.2555135454390127,0.1380125669026892,0.9572858556147774,-2.325802234933373,7.0353784915127555,-3.150309182601916
205,10.3,4.78,-0.4,2.55,1.91,-0.19899999999999998,1.38,8.31,6.43,-3.54,,,,,140,10300000000.0,-1.592752480228921,-0.6241336717589789,2.578797500805191,1.338999337793472,0.027274732908052574,1.2069737255975057,1.6671203751386021,6.678983928520496,-3.313139495057326
206,10.3,-4.14,-5.57,-0.0958,1.54,-0.244,1.5,-0.174,0.43700000000000006,-6.76,,,,,140,10300000000.0,-2.5516623077005107,-3.360739379418897,1.5177882696916423,1.4706301070972598,-0.061862526376999336,1.380057848997897,0.9759218457433249,3.0042440220106763,-4.753392742407748
207,10.4,-16.7,-65.5,0.122,1.84,2.42,8.15,-11.9,-61.0,-7.14,,,,,140,10400000000.0,-7.87779625932281,-37.74311813699458,0.9640809405196805,1.7125221299781956,0.7536444164062397,5.378912351177072,-3.85799239750511,-34.675915464074656,-5.750624405083265
208,10.4,-9.49,-15.7,-5.39,-0.0932,-0.6659999999999999,2.08,-3.71,-12.8,-12.8,,,,,140,10400000000.0,-8.484709352917793,-25.54640327793444,-1.5565743714944849,0.5299954886544889,0.2871681966443689,3.4303179227498815,-3.802432694397399,-21.797269852385753,-8.69617026582736
209,10.5,-0.706,-8.92,-2.55,-1.05,-1.79,0.852,4.98,-6.35,-10.1,,,,,140,10500000000.0,-5.556418637162577,-16.346820171442907,-1.9506649635795765,-0.5047078430617256,-0.3953615504737442,1.9073626903333105,-0.5053073817110536,-12.70325422655026,-9.282753548099645
210,10.5,5.27,-4.83,-3.9,-1.05,-0.985,-1.68,10.3,-1.77,-11.7,,,,,140,10500000000.0,-1.4808195158446775,-9.974428999001852,-2.7239635891525658,-0.8618073305498613,-0.5891088838148558,-0.21161288195312133,3.551251236019936,-6.266700370288019,-10.292787618558412
211,10.6,5.74,1.02,5.74,-0.7020000000000001,1.49,-4.0,10.5,5.21,-1.76,,,,,140,10600000000.0,1.2374537912644716,-3.891083017154723,0.633679294651881,-0.7571531332217282,0.09405856288662695,-2.449329157619959,6.159969821028264,0.4897875528430822,-6.727405655278536
212,10.6,-15.7,5.35,-3.0,0.601,-3.76,-0.331,-12.4,9.99,-11.0,,,,,140,10600000000.0,-5.1386409679334974,1.222116109675885,-0.8077963954467111,0.1322706884126964,-1.1723336639705297,-1.1980790913025194,-0.8078655200829221,6.082690289310964,-8.512687497161457
213,10.7,-4.82,-4.78,-0.718,0.0602,4.72,3.03,-0.762,-0.397,-8.5,,,,,140,10700000000.0,-5.018688821696249,-2.098924961340374,-0.7721742840385122,0.08507322111300455,0.763808504371857,1.2993534673507032,-0.790646568114046,2.268009437917764,-8.507386090925857
214,10.7,0.6659999999999999,-4.01,-7.88,-0.44299999999999995,-1.14,0.263,5.91,-0.371,-15.3,,,,,140,10700000000.0,-2.878690949921602,-3.156345230372075,-3.591839233298016,-0.2607499980638026,0.13824243165362882,0.6872024586593307,1.7249287432806304,0.7143890847676602,-11.345645385606797
215,10.8,0.723,-43.8,-4.82,-0.8290000000000001,0.632,-1.59,5.61,-39.8,-12.3,,,,,140,10800000000.0,-1.522836447360469,-25.644953755703987,-4.07904902607888,-0.6328840884905389,0.3004845913628731,-0.657890563948531,3.1834730487423077,-23.13697634847916,-11.74441769274468
216,10.8,-2.08,-14.9,-4.24,-0.5760000000000001,-0.251,-3.68,2.56,-10.1,-11.4,,,,,140,10800000000.0,-1.7325803206326902,-19.699645118498776,-4.142897970210757,-0.5956319673688115,0.1192741157664122,-2.442983641967675,2.9494070414621225,-15.461933214085695,-11.600504350100552
217,10.9,-11.6,-23.2,-4.9,-2.36,-0.69,-2.42,-8.07,-17.2,-11.9,,,,,140,10900000000.0,-5.447164981383622,-21.63643278464484,-4.443239365209922,-1.751076676798289,-0.14664256204149992,-2.4294077593088095,-1.1875292797541999,-16.485156961809004,-11.725646926558344
218,10.9,-13.2,-8.66,7.33,-1.4,1.11,-2.76,-9.96,-1.73,1.19,,,,,140,10900000000.0,-8.365715235799499,-14.456420861193603,0.22718882961289033,-1.521164474256044,0.2662734247277938,-2.6246812604616467,-4.480914647561548,-7.798597572820729,-6.328909446718473
219,11.0,-5.69,-4.03,2.92,-0.7440000000000001,0.299,-1.03,-3.28,3.58,-2.77,,,,,140,11000000000.0,-7.358443781092115,-8.687360522503266,1.2954234302359748,-1.0122170230818233,0.2770269391391912,-1.6827383797939395,-4.030063920164669,-1.0998641536796976,-4.841837205930346
220,11.0,-7.74,0.883,4.4,0.48200000000000004,-0.41100000000000003,0.833,-5.44,8.6,-1.19,,,,,140,11000000000.0,-7.502080316177271,-3.391968243894542,2.527004818670831,-0.03368804439532336,0.05095046094323222,-0.19674749449862294,-4.55938606568221,4.610576587596187,-3.3159356049136743
221,11.1,-0.479,4.27,5.21,1.18,0.036,1.98,2.3,11.6,-0.713,,,,,140,11100000000.0,-4.8582457327826045,0.8474882752751549,3.5913454145010175,0.7611288116305659,0.04603793840967114,1.089008999586614,-1.98421629128248,8.725344401718417,-2.228312185284506
222,11.1,1.19,-3.65,-0.802,2.14,0.373,1.56,4.62,2.85,-7.29,,,,,140,11100000000.0,-2.5813870506266356,-1.6410245759062287,1.84851120164214,1.6641204812023773,0.15347330878889204,1.3672129070631693,0.4951569117387744,5.266450056997214,-4.3433127090184325
223,11.2,-27.6,-30.1,5.82,2.15,-1.9,4.1,-23.6,-24.6,-1.29,,,,,140,11200000000.0,-11.999629786724881,-17.38770832185802,3.4239955357173306,1.9823120674266255,-0.5212706189740741,2.981409596007798,-8.55071404640029,-12.316331100728647,-3.0675014886439853
224,11.2,-8.37,-22.9,-4.64,1.64,0.8220000000000001,2.32,-2.91,-19.5,-12.0,,,,,140,11200000000.0,-10.633257678114184,-20.43772348604716,0.22501940305453827,1.7581396158675728,-0.07988980425549252,2.5907295727857784,-6.43306152485115,-16.545453621521013,-6.799900613936961
225,11.3,-5.24,-13.2,-2.55,-0.573,-1.05,2.33,0.441,-10.6,-10.1,,,,,140,11300000000.0,-8.602968811390731,-16.433006430959264,-0.8758270437432196,0.23152891877593662,-0.3986550574796828,2.436722349892624,-3.852382225397157,-13.045285316663694,-8.178830537077692
226,11.3,1.48,-6.57,-1.91,-1.25,-1.45,-0.488,6.68,-3.95,-9.8,,,,,140,11300000000.0,-4.807240939104833,-10.975689856722425,-1.2860820516304579,-0.7386909113202309,-0.744112996146016,0.7091537006236874,0.10171393511090576,-7.690768522609357,-8.856228041210382
227,11.4,9.06,-2.09,-3.39,-1.29,0.833,-3.21,13.7,1.4,-11.3,,,,,140,11400000000.0,0.4130741706654426,-6.059133816690402,-2.120703514294285,-1.0997307577650406,-0.22589470314849258,-1.6058035185870667,5.206820233966891,-2.3389108119418918,-9.877345819366704
228,11.4,-2.38,5.06,7.83,1.17,-2.57,-3.74,1.65,9.59,0.11800000000000001,,,,,140,11400000000.0,-0.6383770528384507,0.09321277636867276,1.826727159174697,0.3866646278511696,-0.9961364110090062,-2.866426067037525,3.871508881486049,4.683799549018228,-5.700841345456492
229,11.5,-8.86,-6.97,-0.67,-1.23,1.57,2.84,-6.08,-2.41,-8.89,,,,,140,11500000000.0,-3.7334021984601606,-3.814945242948202,0.8362788457768966,-0.6720525387078584,-0.15293820179725792,0.5042332389253641,0.13548577131836215,0.507584273176211,-7.033415231578447
230,11.5,3.39,-2.04,10.1,1.01,3.42,1.85,8.12,2.18,2.67,,,,,140,11500000000.0,-1.0518014593313536,-2.832847285568045,4.511184722362605,0.42948567521616066,1.021081652800505,1.2991478408449364,3.1330542645200885,1.4921579493766295,-2.9788924391688916
231,11.6,-2.04,-15.6,-3.63,-1.07,-1.1,-0.0928,2.73,-11.7,-11.2,,,,,140,11600000000.0,-1.4238082226608015,-9.897062228187709,1.2815876447878667,-0.5524936634874811,0.32412250943349474,0.47695511379781785,2.9817385188259222,-6.27424279336593,-6.414040390000036
232,11.6,5.06,-18.9,-6.43,0.41600000000000004,2.43,-2.96,9.97,-14.6,-13.8,,,,,140,11600000000.0,1.0170176676026839,-14.878492650663233,-1.7775887362817295,0.08175096991586683,1.0160857820178417,-1.5531780913348567,5.6052911782543156,-11.175728289458208,-9.50022617157783
233,11.7,-4.35,-21.5,-8.25,-1.06,-1.76,-2.89,0.168,-16.5,-15.3,,,,,140,11700000000.0,-1.0033930400483508,-18.542250013678323,-4.345185581358841,-0.6659559175357282,0.10390103062035816,-2.342809215140394,3.564008202497668,-14.310198671320311,-11.923632282250942
234,11.7,-14.3,-17.6,2.23,-1.43,1.54,-2.21,-10.9,-11.4,-4.6,,,,,140,11700000000.0,-6.00889322727576,-18.02089228564555,-1.736818295104555,-1.1663110976403996,0.5757839816279835,-2.264361778894936,-1.8661098371721376,-12.596925338888282,-8.863489697794968
235,11.8,-10.8,-7.95,5.07,-1.21,-0.44799999999999995,-2.61,-7.76,-0.847,-0.986,,,,,140,11800000000.0,-7.812502714330725,-12.448549839152943,0.9634374377551258,-1.1949219981082693,0.23938221816757504,-2.468522550751933,-4.078810558567685,-5.679586225268776,-5.5719206463323765
236,11.8,-6.64,-2.68,1.61,-0.0877,0.284,-0.48700000000000004,-4.26,4.88,-4.17,,,,,140,11800000000.0,-7.371114685196507,-7.043497142476694,1.2199279424609375,-0.4698273182609637,0.2540430291244832,-1.2980811069764848,-4.146833288474144,0.5369843079370904,-4.98613525799008
237,11.9,-6.68,1.08,2.52,0.5529999999999999,-0.618,1.31,-4.28,8.59,-3.33,,,,,140,11900000000.0,-7.110944891038216,-2.548671258247543,1.735664771955844,0.19999917547573387,-0.032498667491074995,0.2424545435370149,-4.196827184410296,5.277903070543887,-4.294127521835405
238,11.9,3.06,5.56,5.1,1.3,0.282,2.51,6.12,12.6,-1.04,,,,,140,11900000000.0,-3.2820985024069715,1.9379512356483648,3.0702919951771843,0.9203648418399545,0.07084140090615922,1.5818433637104594,-0.32365527535271976,9.588520259514084,-2.9344068520777795
239,12.0,0.857,-5.28,-1.4,1.87,-0.8009999999999999,1.78,4.59,0.825,-8.11,,,,,140,12000000000.0,-1.723937231599947,-2.055825612885416,1.2969331812039977,1.5422594635061948,-0.21563405261086865,1.6988900783987748,1.5210429099726201,4.429317982651701,-5.097002013129439
240,12.0,-27.8,-50.7,-5.67,2.15,0.7979999999999999,6.15,-23.8,-45.7,-13.1,,,,,140,12000000000.0,-11.540255918863528,-28.971215941895235,-1.4668398738379445,1.9402550781136494,0.11743256782506006,4.328062076768769,-7.985053149098271,-25.08248633790409,-8.441014225584862
241,12.1,-11.3,-18.0,-7.03,0.943,-1.26,2.03,-5.87,-14.8,-14.6,,,,,140,12100000000.0,-11.449811786875436,-22.90071400514614,-3.6737380985174886,1.28717526161804,-0.3351733956520943,2.9706477430533225,-7.191013971069784,-19.029048415794435,-11.01451530276853
242,12.1,-2.08,-11.1,-2.82,-0.865,-1.67,1.3,3.15,-8.36,-10.7,,,,,140,12100000000.0,-7.922551448665141,-16.371241311604912,-3.335061316346832,-0.1222357187914247,-0.7737795969334378,1.983833134158104,-3.308761712535731,-12.748035883717545,-10.88309660156743
243,12.2,4.69,-5.75,-2.93,-0.914,-0.946,-1.15,9.33,-2.77,-11.0,,,,,140,12200000000.0,-3.174563619238582,-10.494384425891376,-3.1743740633072517,-0.6407442488208833,-0.8303689173520112,0.13274739828597704,1.4361173285463784,-6.873831916153202,-10.931944092725564
244,12.2,8.66,-0.735,-1.38,-1.07,2.63,-4.22,13.0,3.19,-9.26,,,,,140,12200000000.0,1.2805510560127056,-5.094403030412698,-2.462548283337826,-0.9218541803171629,0.3066621846043587,-2.438323858164992,5.777462319496662,-0.9491186476474844,-10.233330842802731
245,12.3,-11.4,7.36,10.2,1.26,-3.21,-3.27,-7.56,12.2,2.61,,,,,140,12300000000.0,-3.493035021717988,1.7967637215757035,2.5606675180831253,0.5069928411896412,-0.848866108940536,-2.9295765042109494,0.770275146346048,6.7919442791720215,-4.866810338932658
246,12.3,-9.01,-9.05,1.53,-0.6759999999999999,3.7,4.2,-5.75,-4.26,-6.38,,,,,140,12300000000.0,-5.569893431117558,-4.204877453465008,2.1518030882148422,-0.26772245320165766,0.6458306275051211,1.2817061493683797,-1.677584681571834,0.28551586871187506,-5.499088999525675
247,12.4,9.88,-1.65,7.09,2.17,-0.0367,2.03,15.3,2.22,-0.0798,,,,,140,12400000000.0,0.246210192801545,-2.7912339014387424,4.110779223419405,1.3286869779034265,0.42156016866542734,1.7237067190940762,4.696187444789331,1.4243727176922143,-3.2346666223681115
248,12.4,1.61,-19.8,-7.15,-1.4,-0.132,-1.7,6.71,-16.0,-14.6,,,,,140,12400000000.0,0.7596080941994591,-12.2023824430804,-0.35635679034135403,-0.4582684837169857,0.23966768206048958,-0.29860095865960634,5.452218568874302,-8.833589906190227,-7.98361359696928
249,12.5,0.5579999999999999,-18.6,-6.74,0.006409999999999999,1.1,-3.49,5.54,-13.8,-13.7,,,,,140,12500000000.0,0.6837128525785054,-15.742259179739024,-2.8887393769393976,-0.15396103907341796,0.5223614125952134,-2.1836896192865787,5.485173703540929,-11.757382452362972,-10.372176536160966
250,12.5,-8.52,-22.7,-9.24,-1.81,-1.4,-1.63,-4.52,-17.1,-16.2,,,,,140,12500000000.0,-2.781019780040981,-19.592058871943575,-5.408275834977804,-1.2384635171714478,-0.10930089513272256,-1.8566374345947494,1.7290035751570274,-14.902653499900568,-12.80730328359181
251,12.6,-13.4,-11.8,7.24,-0.9590000000000001,3.82,-3.04,-9.76,-5.27,0.929,,,,,140,12600000000.0,-6.778528690949723,-15.280621783652254,-0.3907219097624308,-1.055449165551741,1.181814939553561,-2.5556234422932698,-2.5842301831549683,-9.231780788017216,-7.067658729494548
252,12.6,-7.96,-5.67,4.47,-0.772,0.13699999999999998,-1.45,-5.0,1.74,-1.24,,,,,140,12600000000.0,-7.223292906555981,-9.962952530138018,1.5375198525557179,-0.8698247181207831,0.8385026866171787,-1.9025562166420178,-3.4911652058994287,-2.7725458323472525,-4.63260113824794
253,12.7,-7.53,0.0168,4.14,0.00702,-0.778,0.713,-4.72,7.6,-1.4,,,,,140,12700000000.0,-7.33875269614407,-4.4410388808494945,2.5699201746118674,-0.295598914925291,0.3073414691460016,-0.3576051510677396,-3.9524977028464,3.333911381829152,-3.281875164494219
254,12.7,-2.13,3.99,4.47,0.845,-0.225,2.16,1.02,11.3,-1.32,,,,,140,12700000000.0,-5.37792075402038,0.2239534211847456,3.3236792031373974,0.45135357393953535,0.13242116586571884,1.129488442792898,-2.08570879419987,8.023655029088891,-2.4621156153814026
255,12.8,4.21,-3.13,2.31,1.96,0.35100000000000003,1.24,8.08,3.4,-3.9,,,,,140,12800000000.0,-1.7685534337384254,-1.6318282480132567,2.921554003614813,1.4393320721168585,0.2042432584884175,1.1947651750397434,1.730729842875376,5.301647168932982,-3.0629283407962866
256,12.8,-8.42,-9.51,1.87,1.73,-0.9390000000000001,2.09,-4.08,-3.88,-4.9,,,,,140,12800000000.0,-4.272486733213682,-5.990912830906234,2.50440394626273,1.6296839461414736,-0.17141122864519476,1.7235604865720535,-0.45075048537002926,-0.10371210479791415,-3.8305394409990763
257,12.9,-7.47,-43.2,1.76,2.2,1.95,5.4,-2.17,-39.5,-5.62,,,,,140,12900000000.0,-5.47618870199291,-26.579135827550267,2.209099897972753,2.0031710810376286,0.5256562167819011,3.895151850590053,-1.0961959479200771,-23.296836775412743,-4.578256397182283
258,12.9,-6.18,-17.8,-4.57,0.0333,-0.754,2.23,-0.561,-15.5,-12.3,,,,,140,12900000000.0,-5.74113799956724,-21.721537001877493,-0.4801599840167645,0.7131469983518111,0.10517825210771303,2.9115835829516357,-0.895271192867182,-18.706734077168292,-7.804747814354313
259,13.0,0.498,-8.92,-2.92,-0.721,-1.31,0.68,6.0,-7.06,-10.8,,,,,140,13000000000.0,-3.392418055391769,-14.638297084653185,-1.4480412678498773,-0.22604349243554922,-0.35983042402286514,1.5934366427173707,1.6933706936761737,-11.850145012154353,-9.056298803746792
260,13.0,4.81,-3.94,-3.94,-1.28,0.17800000000000002,-1.84,9.92,-1.59,-12.0,,,,,140,13000000000.0,-0.30462247263333975,-8.718804371274995,-2.436597968737633,-0.9162557879772273,-0.18310652041663966,-0.4346182767419797,4.781834774239404,-5.8098596364271256,-10.28630939440643
261,13.1,0.5579999999999999,2.34,7.32,-0.281,0.738,-3.44,5.71,5.93,-0.209,,,,,140,13100000000.0,0.02011127637206117,-2.5998387809101775,1.4338313941799528,-0.5002411113803614,0.1195567864893185,-2.209830660062636,5.130289158785027,1.1015535633675144,-6.075556859985044
262,13.1,-11.1,-0.11,-4.68,-0.721,-0.8079999999999999,0.922,-6.78,3.84,-12.6,,,,,140,13100000000.0,-4.166048422453282,-1.2221818989952673,-0.9915172307241038,-0.644811132229326,-0.18522600903557013,-0.3599277325090864,0.6588952022592167,2.7137137696003286,-8.801762440837257
263,13.2,-3.36,-2.18,3.34,0.856,2.68,1.96,1.7,1.64,-4.14,,,,,140,13200000000.0,-3.8626119135094337,-1.752153879607644,0.726789796205551,0.3380361880479724,0.7562490568838538,1.0104021648866597,1.049749678575826,2.0816040206584914,-6.853868631203439
264,13.2,-3.85,-6.36,-7.27,-0.8540000000000001,-0.677,0.47100000000000003,2.14,-3.25,-14.4,,,,,140,13200000000.0,-3.8578641299523926,-4.301729036702858,-2.4455259553608384,-0.4426013724790261,0.2853025411132452,0.6917892572394682,1.4590545255461398,-1.0571829908087311,-10.006981129418591
265,13.3,6.28,-38.7,-6.85,0.5920000000000001,1.65,-1.17,12.3,-35.6,-13.9,,,,,140,13300000000.0,-0.0414708744640202,-23.33469459319604,-4.19277484848474,0.23493570594358104,0.7337239129812458,-0.40792835263931004,5.528992495161937,-21.393003160202845,-11.633659128305156
266,13.3,-3.36,-16.2,-0.9670000000000001,-0.623,-1.45,-3.53,2.68,-12.3,-7.61,,,,,140,13300000000.0,-1.2907292338218401,-19.38698515569475,-2.913114306711444,-0.3269070291439923,0.016181350742759282,-2.25206683621573,4.459415834820794,-16.039829986574325,-9.952393657782912
267,13.4,-10.3,-22.0,-2.73,-1.59,0.27899999999999997,-3.09,-5.45,-16.9,-9.58,,,,,140,13400000000.0,-4.682264153260463,-20.832796791990827,-2.840473115033265,-1.1540781119580013,0.10254005746690341,-2.7470153269663355,0.7391954562540302,-16.546223420516633,-9.796790827783441
268,13.4,-14.1,-10.8,7.73,-1.7,0.6809999999999999,-3.17,-10.0,-4.28,1.61,,,,,140,13400000000.0,-8.227565591389055,-15.281533238207095,1.3528193634970735,-1.5115900585781126,0.292614275952523,-2.996863040105333,-3.2925431669625485,-9.324932802468489,-5.030521221660875
269,13.5,-7.81,-3.86,3.52,-0.44,0.7559999999999999,-1.25,-4.24,3.35,-2.08,,,,,140,13500000000.0,-8.070373240843695,-8.961865423153215,2.2125370002943736,-0.8098299284156979,0.44487663743566985,-1.9650297732295205,-3.648239960112102,-1.8630294056449035,-3.79766088615178
270,13.5,-7.85,1.74,4.28,-0.155,-0.9940000000000001,0.384,-4.49,9.16,-1.18,,,,,140,13500000000.0,-7.9874138239666035,-3.0403982694632266,3.032696875458349,-0.3809965977388381,-0.027919036572451095,-0.5775099661827536,-3.964255769241291,4.626376205210153,-2.7038845608450672
271,13.6,-4.21,7.09,4.48,0.413,-0.38,1.94,-0.6990000000000001,14.3,-1.17,,,,,140,13600000000.0,-6.5654085561656865,2.564869511865121,3.6068400863892305,0.1389738344029987,-0.14360814277008604,0.9095273871773049,-2.73840436823905,10.321368781915549,-2.06295867139797
272,13.6,1.71,-2.0,0.146,1.55,-0.0519,2.19,5.94,4.52,-5.84,,,,,140,13600000000.0,-3.4501357050702364,0.03907388815806012,2.233929476945973,1.063022972447619,-0.11347407025382408,1.665874203122391,0.5196663552659131,6.906024924659889,-3.6411762666952185
273,13.7,-19.5,-22.5,4.97,1.33,-2.15,2.56,-14.8,-17.0,-1.6,,,,,140,13700000000.0,-9.492097975806162,-12.432058975804033,3.31932489110619,1.2378602264937841,-0.7826493545147536,2.194014453254742,-5.231685462466496,-7.167773549231027,-2.7882811429278656
274,13.7,-7.28,-28.5,-1.35,2.28,1.1,2.76,-1.43,-24.8,-8.29,,,,,140,13700000000.0,-8.659355031957084,-21.322638436051367,1.4670099760349324,1.9203340097695358,-0.16403588363845156,2.5283295612251466,-3.8044461142065424,-17.54810201281836,-5.0871464023240165
275,13.8,-7.23,-13.6,-3.64,-0.298,-0.594,2.31,-1.1,-11.0,-10.8,,,,,140,13800000000.0,-8.121275151614535,-17.04961259138353,-0.5589340558440381,0.46759716041603205,-0.30531635052905154,2.3993670963470217,-2.789135442066705,-13.693146268175834,-7.474233336140296
276,13.8,-0.366,-7.89,-2.83,-0.8909999999999999,-1.58,0.0569,5.49,-5.6,-10.4,,,,,140,13800000000.0,-5.201806237463,-11.981491876155012,-1.4598628317968396,-0.42211741961845284,-0.7241604073575347,1.015723718018398,0.31904052342345013,-8.928602129232939,-8.69674991415272
277,13.9,9.77,-2.91,-6.1,-0.9390000000000001,0.0214,-1.92,15.1,-0.105,-13.9,,,,,140,13900000000.0,0.4343218639993651,-6.962129503377353,-3.300598969150078,-0.7606121551176447,-0.4791792031023036,-0.7183431668952562,5.868149578254435,-3.734028852491347,-10.870901370277792
278,13.9,4.61,4.12,14.3,-0.0345,0.0727,-4.98,9.99,8.33,7.27,,,,,140,13900000000.0,2.0062535698089787,-0.8302578607869897,3.6815350506257256,-0.28509770266295187,-0.297839058695069,-3.2356093813213187,7.415586040266465,3.368227181897802,-3.290817897643392
279,14.0,-21.1,0.163,-0.12,-0.13,-2.43,1.74,-18.2,4.77,-8.27,,,,,140,14000000000.0,-6.692082567261756,-0.2806766826633582,2.173471208906488,-0.1835277167887296,-0.9984387225665162,-0.29662723183496054,-2.2010887927350336,4.193469686324445,-5.371344035816321
280,14.0,-1.45,-4.89,5.84,0.755,3.87,2.93,3.69,-0.841,-1.46,,,,,140,14000000000.0,-4.718703589012056,-2.8310690423330023,3.6279783106032415,0.4310928861282025,0.6012652582935333,1.6092699736473164,0.010560166064238263,1.2296096426697707,-3.7370088162737183
281,14.1,2.22,-6.92,-7.79,-1.01,-1.44,0.17,8.06,-3.64,-14.9,,,,,140,14100000000.0,-2.106632564913955,-5.09352234672084,-0.9015183166978851,-0.5126462931478654,-0.06946729357005099,0.7591251123248367,3.032503411041904,-1.637195125159089,-8.401407814272645
282,14.1,6.71,-35.9,-9.78,-0.0272,1.8,-2.69,11.9,-32.0,-17.1,,,,,140,14100000000.0,1.2123837559569077,-22.139107130752937,-4.423599955929669,-0.19473847930781796,0.5448147044283287,-1.2781966523745387,6.3615634972085395,-19.512186816889,-12.036070529056317
283,14.2,-4.85,-21.8,-5.66,-0.941,-1.48,-3.03,-0.0879,-16.9,-12.7,,,,,140,14200000000.0,-1.069797119527427,-21.951474772012677,-4.914078130334221,-0.6834482856659068,-0.12051240235365135,-2.312948032468072,3.940287976347141,-17.974357072226777,-12.31349000598737
284,14.2,-15.2,-21.5,0.977,-2.02,1.49,-2.32,-11.5,-15.4,-5.79,,,,,140,14200000000.0,-6.389103872558149,-21.701668506926723,-2.577095358327536,-1.5587258062436933,0.4086804916936465,-2.31711343390311,-1.856347874206541,-16.458798207159667,-9.587682830802269
285,14.3,-11.5,-7.87,5.71,-1.34,0.23,-2.93,-7.92,-0.9420000000000001,-0.263,,,,,140,14300000000.0,-8.31309780822084,-14.048444689332324,0.710384242067521,-1.4154872372914546,0.3499684671211682,-2.6791319791945725,-4.132781046551045,-7.323850343105784,-5.691411484732546
286,14.3,-6.31,-1.9,2.04,-0.445,0.426,-0.955,-3.42,5.64,-3.52,,,,,140,14300000000.0,-7.559032757875755,-7.326568322083129,1.2378410102156212,-0.7799370583635125,0.3749514142386611,-1.6607254361545987,-3.8651868324979066,0.3081426741562998,-4.78409821877977
287,14.4,-10.7,2.89,4.3,0.31,-0.11800000000000001,1.09,-7.9,10.5,-1.18,,,,,140,14400000000.0,-8.741448015063597,-1.6736216704613538,2.4525954395422174,-0.06616189238980064,0.2129741553375808,-0.0359328895472808,-5.3799476482072635,6.308226189948656,-3.278144065200671
288,14.4,1.57,4.57,5.13,0.96,-0.406,2.75,5.08,11.7,-0.573,,,,,140,14400000000.0,-4.8597092641469315,1.781047227285963,3.5147182738559555,0.6058483420709065,0.009587508949184698,1.6096558994541788,-1.453045042300745,9.482435853589806,-2.147813365643569
289,14.5,0.991,-4.16,-0.6579999999999999,1.74,-0.24100000000000002,1.93,5.17,2.14,-6.91,,,,,140,14500000000.0,-2.6572130958758473,-1.5062035172328887,1.8594065485617788,1.34857865544281,-0.07275220251624624,1.7988760260926409,1.033396974395576,5.15984515270338,-4.137668794831506
290,14.5,-31.4,-37.9,0.294,2.53,-1.82,4.43,-26.9,-32.6,-6.65,,,,,140,14500000000.0,-13.477418708490038,-21.643317075766724,1.2384118756037736,2.122264794068502,-0.6468745374320939,3.353022519605079,-9.453436455546381,-17.069882762512645,-5.187433665952986
291,14.6,-8.71,-20.6,-7.1,1.6,-0.48,2.38,-2.94,-17.5,-14.4,,,,,140,14600000000.0,-11.682726665884148,-21.066037761703882,-2.069424865226138,1.780245390860928,-0.5920417870402715,2.778279758430535,-7.008144049428345,-17.32309856646253,-9.036857548799336
292,14.6,-4.71,-14.2,-1.9,-0.256,-0.887,2.88,1.22,-12.1,-9.41,,,,,140,14600000000.0,-9.057847699010109,-17.266978759600956,-2.002214239552976,0.4467542629356549,-0.6889611290186688,2.838363717413167,-3.919111317697963,-14.24819040014889,-9.19277316268738
293,14.7,1.08,-7.01,-2.21,-1.04,-1.31,-0.198,6.5,-5.04,-10.1,,,,,140,14700000000.0,-5.241460691767376,-11.591672725549065,-2.084642586452441,-0.5268875020600858,-0.8930261984607933,1.0448509915009732,-0.007539571912037246,-8.827204814038154,-9.571853447281928
294,14.7,12.0,-2.25,-6.4,-1.13,0.9,-2.8,17.0,0.424,-14.4,,,,,140,14700000000.0,1.249077363744009,-6.4228160852954215,-3.7965391075187895,-0.9218522531614224,-0.3038617167444452,-1.2262172141497074,6.377478231077108,-3.380896089215712,-11.589269797639462
295,14.8,-0.584,5.24,10.8,0.818,-1.11,-4.3,4.38,9.27,3.41,,,,,140,14800000000.0,0.5590164376387601,0.030356162818808485,1.993888404609014,0.21753770683492557,-0.5687480073056914,-3.041832667440125,5.627579441668061,4.06685689679283,-5.3219010741042805
296,14.8,-13.5,-4.73,-1.9,-1.14,-0.618,2.49,-10.3,-0.483,-10.1,,,,,140,14800000000.0,-4.733492291341825,-2.60360451891769,0.44918811994314756,-0.6714830694072514,-0.5849315455177535,0.22569824474359956,-0.3519967975296465,1.3882949277246674,-7.318405596629689
297,14.9,-0.654,-4.96,16.8,1.2,3.28,2.73,4.61,-1.23,9.37,,,,,140,14900000000.0,-3.1977697362977993,-3.9074256850479054,6.935532903702208,0.5541089584500557,0.6850333921173255,1.7049337782253136,1.5108498893254783,-0.15313053060959425,-0.34524014408934
298,14.9,0.153,-14.4,-6.51,-0.636,-0.551,-0.006640000000000001,5.54,-11.2,-14.1,,,,,140,14900000000.0,-1.9363743789710428,-9.713089407467056,1.601707989775159,-0.22526650637273837,0.27888930866924094,0.6939450960355515,3.0234846143676726,-6.656571085247379,-6.092596834196378
299,15.0,6.39,-21.1,-5.28,0.0632,1.89,-3.44,11.8,-17.5,-12.6,,,,,140,15000000000.0,1.1980844624640694,-16.013600261265072,-1.1282563993914776,-0.036356308067763465,0.8082787846590267,-1.7478846494219835,6.31838849898736,-13.040243560831952,-8.811682348388569
300,15.0,-9.8,-22.3,-7.03,-1.13,-2.28,-2.49,-5.03,-17.6,-14.2,,,,,140,15000000000.0,-2.9421382399783234,-19.491938246758384,-3.4694702331018012,-0.7525588599710693,-0.20648841643316573,-2.1862357386864053,2.0579448507733185,-15.724633742212916,-11.063163426410437
301,15.1,-14.9,-18.3,4.07,-1.45,1.34,-2.68,-10.8,-12.5,-2.74,,,,,140,15100000000.0,-7.443668343925993,-18.832424469509043,-0.47857246161173306,-1.2092973428106144,0.3016670577652566,-2.477891379685776,-2.7692206338492182,-13.826248478119957,-7.585371874884734
302,15.1,-9.76,-7.23,4.37,-1.54,-0.19699999999999998,-2.85,-6.21,-0.376,-1.68,,,,,140,15100000000.0,-8.315650162478004,-12.412667491761763,1.444849668794132,-1.4258670194422272,0.13781171590241834,-2.697687635095151,-4.0609676064026194,-5.907906249222362,-5.117842214722984
303,15.2,-6.44,-2.0,2.29,-0.774,-0.128,-1.03,-3.58,5.52,-3.31,,,,,140,15200000000.0,-7.609562748851212,-6.65121693694342,1.7801196536046138,-0.9989740229749529,0.05046953003109811,-1.712621507606499,-3.880401381423685,0.8198558847379296,-4.362444505348495
304,15.2,-8.15,2.33,2.7,0.49,-0.7759999999999999,1.03,-5.55,9.99,-2.85,,,,,140,15200000000.0,-7.813009900572428,-1.6818047372672122,2.145034969002687,-0.02387855603348954,-0.22109733981870489,-0.09261580853014029,-4.507206809464966,6.218442953906828,-3.730477212256917
305,15.3,4.2,2.13,5.15,1.47,0.48100000000000004,2.04,7.34,9.31,-0.755,,,,,140,15300000000.0,-3.2907192387285154,0.42731141333573897,3.3371005939531697,0.954428791334959,0.009602481988853079,1.1670730433289354,-0.05949542543081776,8.038484423786315,-2.4871891727419295
306,15.3,-1.56,-5.21,-1.96,1.89,0.153,1.86,2.36,1.09,-8.37,,,,,140,15300000000.0,-2.6391909457035236,-2.691878862885555,1.2357478960371688,1.5671132376059915,0.05672099252079786,1.576369641719156,0.8488382362661854,3.947818187230209,-4.945291744029082
307,15.4,-31.9,-55.8,-4.33,2.84,0.701,6.92,-27.5,-50.9,-11.6,,,,,140,15400000000.0,-13.654405701649562,-32.07722222828479,-0.9721767799757477,2.4006979752480353,0.2684224714432862,4.732733662078677,-9.79396145073578,-28.341831129513377,-7.725927941828178
308,15.4,-7.88,-18.7,-7.73,0.863,-1.26,1.98,-2.43,-15.8,-15.3,,,,,140,15400000000.0,-11.480634007837615,-24.67544933056965,-3.6529961719017376,1.3936942826630223,-0.23379676013272316,3.106754931926064,-7.029362589247329,-20.958286534280333,-10.890715554251033
309,15.5,-2.32,-11.2,-1.64,-0.268,-1.16,2.11,3.29,-8.97,-9.38,,,,,140,15500000000.0,-8.03211852897437,-17.21932570207851,-2.8544432916436717,0.30548822023527067,-0.5381347780821225,2.5179938314190373,-3.155238802812547,-13.900621133849386,-10.259470782259697
310,15.5,1.52,-6.71,-3.45,-1.37,-1.51,-0.445,6.58,-4.51,-11.6,,,,,140,15500000000.0,-4.436228957456223,-11.404393051522849,-3.0906998559390484,-0.7917511791375433,-0.8574767220291313,0.7678190740199755,0.49959159298599554,-8.37223627782545,-10.819604265311497
311,15.6,10.1,-1.6,-3.7,-1.62,2.37,-3.85,14.9,1.62,-11.6,,,,,140,15600000000.0,1.035926296361116,-5.979507863007877,-3.3324084226981006,-1.3341526298934463,0.2030290361567293,-1.959824211796451,5.905832820568278,-2.4896723556376594,-11.14568881798486
312,15.6,-6.48,7.88,9.7,1.24,-5.11,-3.56,-2.37,12.3,1.96,,,,,140,15600000000.0,-1.793439883503265,1.6891197955011048,1.8375303986682292,0.351601799073779,-1.5427614723161276,-2.9050125374800224,2.798896691461718,6.217206833540016,-5.669543307207427
313,15.7,-7.77,-5.42,4.02,-0.0559,4.78,2.69,-4.8,-0.9520000000000001,-4.19,,,,,140,15700000000.0,-4.043312527524591,-2.244439272050921,2.70331314725456,0.08473807384686927,0.5348136697514687,0.39983735129717957,-0.05390230810863672,1.9965983124844753,-5.05132367637693
314,15.7,5.92,-3.24,9.97,0.835,1.42,1.47,11.2,0.628,2.69,,,,,140,15700000000.0,-0.2926291735951647,-2.7952946573670396,5.585998156392289,0.5760676513367731,0.8256740752388075,1.0319587174655924,4.171068921192491,1.190886086924764,-1.8166508807245538
315,15.8,-3.06,-24.8,-6.11,-0.905,-1.58,0.845,2.2,-21.1,-13.5,,,,,140,15800000000.0,-1.3344043231726916,-14.970754740923265,0.9462113620130124,-0.39385008639454466,0.03520165210089954,0.9215263651497432,3.4310847632807886,-11.932058649778648,-6.698478958035512
316,15.8,3.27,-15.1,-5.27,0.262,2.44,-3.42,8.81,-11.3,-12.4,,,,,140,15800000000.0,0.39892105412472745,-15.04226786357156,-1.519751318994833,0.0356513198930119,0.8253863276177962,-1.6429170448112582,5.450452237409836,-11.559957332042453,-9.080830401925086
317,15.9,-7.24,-25.8,-9.24,-1.48,-1.74,-2.76,-2.5,-20.9,-16.3,,,,,140,15900000000.0,-2.476746338890976,-20.994646294882454,-4.582363498786341,-0.9569145125661129,-0.017565400096426265,-2.3027531731856126,2.4656713487319055,-17.058565874948044,-12.097323425836208
318,15.9,-16.5,-13.0,5.65,-2.1,2.12,-2.72,-12.7,-6.8,-0.9540000000000001,,,,,140,15900000000.0,-7.755792191019843,-16.57111511349507,-0.5231986201104997,-1.7054953204199603,0.6848100372982541,-2.549211639614945,-3.2278670921846166,-11.01921025117559,-7.441142339569012
319,16.0,-8.38,-8.09,5.68,-1.15,-0.326,-1.8,-4.91,-0.9209999999999999,-0.0471,,,,,140,16000000000.0,-7.990774908200572,-11.878415136696963,1.9376018631510168,-1.341713964755162,0.3526713417686712,-2.1066689072205937,-3.859378049057919,-5.074258030292749,-4.351579310234047
320,16.0,-6.53,-1.23,1.38,0.0461,-0.191,-0.111,-3.38,6.28,-4.09,,,,,140,16000000000.0,-7.440867105147083,-5.986522666692845,1.7164019519364064,-0.4328659404240306,0.17402819164592206,-0.9278715319325503,-3.679408651724004,1.610146541161602,-4.242279788050844
321,16.1,-4.71,3.37,3.3,0.62,-0.16699999999999998,1.5,-3.28,6.12,-4.25,,,,,140,16100000000.0,-6.4128337534618405,-0.8094494438618884,2.34461314927462,0.2566321891856179,0.06197087865325783,0.5062183519530747,-3.5294615342224116,4.265157874743071,-4.245505639394617
322,16.1,4.07,1.79,2.18,1.47,-0.139,1.95,8.02,8.53,-3.76,,,,,140,16100000000.0,-2.4665768940818187,0.6288562768026305,2.2793113607897935,1.0512393845573762,-0.004065470617651903,1.3590281885338626,0.8064696051391627,6.775927650348956,-4.042639570389125
323,16.2,-3.42,-4.07,-1.97,1.48,-0.385,1.72,1.02,1.8,-8.45,,,,,140,16200000000.0,-2.825492507891117,-1.9710758840421825,0.5936152465249742,1.332025040983067,-0.12923547210990544,1.5722462511094566,0.8866337726318461,3.846532074820831,-5.884232656524959
324,16.2,-24.8,-62.6,-3.14,2.26,1.87,7.27,-19.9,-58.1,-10.4,,,,,140,16200000000.0,-11.097783047918728,-35.51776696690007,-0.8875049429164101,1.9397348780357548,0.5276866354629279,4.9377830504549145,-6.917141941403293,-32.62222380785293,-7.771122941207122
325,16.3,-10.1,-17.7,-5.14,0.0541,-1.16,2.19,-4.09,-14.9,-12.4,,,,,140,16300000000.0,-10.722168331538628,-25.658988794769694,-2.574463960905342,0.7048751811249461,-0.02686466796573339,3.314728559357578,-5.855768508942037,-22.188912015713136,-9.705275545830085
326,16.3,-1.57,-9.88,-2.45,-0.769,-1.51,1.34,4.36,-7.71,-9.95,,,,,140,16300000000.0,-7.2768397965717835,-16.928290041671303,-2.52508929389288,-0.2603323849758894,-0.514203149669811,2.1483002021402418,-2.0205362357785224,-13.664981753962575,-9.807532336091144
327,16.4,4.2,-5.99,-3.36,-0.885,-1.29,-1.32,9.57,-3.53,-11.2,,,,,140,16400000000.0,-2.956390064940086,-10.87600626348453,-2.8562972067130854,-0.6694130923327691,-0.7691196328964205,0.09965213984771903,2.3308149958425664,-7.698381635623801,-10.389367795930987
328,16.4,7.31,0.486,2.66,-0.977,1.65,-3.86,12.3,3.99,-4.98,,,,,140,16400000000.0,0.9083866050344778,-4.589275476139614,-0.6679894883456825,-0.8708448103803142,0.025770799186307314,-2.2392265249964893,6.073474225388432,-0.8172741207467586,-8.12909095031347
329,16.5,-12.9,8.85,1.28,1.05,-3.02,-1.57,-8.76,13.1,-6.53,,,,,140,16500000000.0,-4.289772522633902,2.846832841680053,0.10477531093360004,0.38707304440201284,-0.9750288480766988,-1.8439292855496987,0.504649994803235,7.376012603721173,-7.460919007879039
330,16.5,-6.63,-5.02,1.42,0.358,3.71,2.83,-2.52,-0.917,-6.49,,,,,140,16500000000.0,-5.170749866417422,-1.5059776524924766,0.62652315952212,0.36803377092180845,0.5644091448821683,0.9168570694251281,-0.6308725104472976,2.4938045229701036,-7.055225337131784
331,16.6,-0.0622,-5.97,-7.07,-0.141,0.0684,0.6409999999999999,5.64,-2.86,-14.4,,,,,140,16600000000.0,-3.2476391788714425,-3.975973246063161,-2.42667729669495,0.03467904863294591,0.4014271577082994,0.7539143986800354,1.7233558362040229,-0.6580521611063141,-10.124201958680024
332,16.6,2.18,-41.6,-6.1,-0.631,-0.0238,-0.0671,7.77,-38.4,-13.5,,,,,140,16600000000.0,-1.2044074768056783,-24.793785895530338,-3.883879435866926,-0.40125911508463247,0.261703186105238,0.26895939467483543,3.993403796354249,-22.877245483526135,-11.534762020970556
333,16.7,-1.52,-14.6,-0.737,-0.655,-1.32,-3.69,4.03,-10.7,-7.84,,,,,140,16700000000.0,-1.3232120951990891,-19.15344529576086,-2.635516590624607,-0.5674282714020323,-0.2580233979039137,-2.069510176718512,4.00714292366552,-15.708337138173214,-9.990924543899
334,16.7,-8.44,-23.2,-6.0,-2.18,-0.597,-2.65,-4.29,-18.1,-13.3,,,,,140,16700000000.0,-4.002322689792238,-21.39245170405391,-3.9702026350129267,-1.6234651219010563,-0.36940658828927814,-2.4123927012190434,0.8922064677496473,-17.116341463846204,-11.373604992608476
335,16.8,-12.2,-11.7,7.35,-1.31,1.88,-3.49,-8.68,-5.34,0.774,,,,,140,16800000000.0,-7.088333571465377,-16.029504851966095,0.5205064905579984,-1.418183855383749,0.36971840760270364,-3.0489114458618154,-2.7014180186492975,-10.183450910241808,-6.2977899616581485
336,16.8,-7.98,-6.06,3.21,-0.415,1.09,-1.21,-4.99,1.02,-2.89,,,,,140,16800000000.0,-7.424000897713814,-10.513261330722266,1.587424964412456,-0.7612213989060529,0.6063933411575658,-1.962707249107391,-3.56060374456362,-3.587828653871229,-4.873862281809037
337,16.9,-7.88,1.35,3.84,-0.14400000000000002,-0.257,0.35100000000000003,-5.0,8.61,-2.1,,,,,140,16900000000.0,-7.5956615430826755,-3.9491802470532704,2.4810184180170736,-0.35701704001483364,0.3226938072970811,-0.5960516693928228,-4.100985889650346,3.5931969663562997,-3.714817978908296
338,16.9,-4.74,4.67,3.77,0.474,-0.7040000000000001,2.18,-1.52,11.7,-2.26,,,,,140,16900000000.0,-6.520649295805105,0.8199129075410809,2.992355670771861,0.1871972563517869,-0.014664080263394719,1.0437005413787963,-3.1320249822371466,8.365780858418319,-3.106929673007146
339,17.0,2.07,-1.39,1.89,1.77,0.415,2.13,5.95,4.92,-4.54,,,,,140,17000000000.0,-3.2867042873460015,-0.4028577105457869,2.5550526528034925,1.2237390147006115,0.12651780197987048,1.6853536140838563,0.27757402153054356,6.337203356903203,-3.705730813110525
340,17.0,-16.5,-15.9,0.474,1.59,-1.27,2.49,-11.9,-10.6,-6.42,,,,,140,17000000000.0,-8.260841931185912,-8.977607352219895,1.7295018665026758,1.4635950842035998,-0.33235931170675226,2.160640399503471,-4.294164539490385,-3.6339563351125435,-4.839874436066191
341,17.1,-4.44,-37.4,-1.68,2.29,2.06,3.65,1.03,-34.0,-9.09,,,,,140,17100000000.0,-6.822488184342083,-24.704050053924476,0.3769570815144838,2.004788975070156,0.45373802485236403,3.0403721502214966,-2.2953518926478425,-21.51085474611335,-6.615767875797942
342,17.1,-7.59,-13.4,-2.54,-0.204,0.6759999999999999,2.62,-1.52,-11.2,-9.93,,,,,140,17100000000.0,-7.111417627561386,-18.449386904042484,-0.7801958552525896,0.5583029610270751,0.5267703445612872,2.792067573851017,-2.004267121744335,-15.440715735882666,-8.00060305989579
343,17.2,-2.41,-8.71,-2.0,-1.29,-2.01,0.16,3.57,-6.9,-9.56,,,,,140,17200000000.0,-5.341571672222907,-13.060470384188244,-1.2640905192431136,-0.652108881142434,-0.30677854659518355,1.237363613264072,0.08843971772635406,-10.412681542568127,-8.652189324814511
344,17.2,6.09,-4.17,-5.09,-1.14,-0.496,-2.29,11.3,-1.63,-13.0,,,,,140,17200000000.0,-1.0381629709708982,-8.141269312172916,-2.7818237262153227,-0.9716177469939422,-0.36895418927516394,-0.8461718429285077,4.297514929150414,-5.242198764811512,-10.468899928277942
345,17.3,5.16,3.03,7.38,-0.0907,0.501,-4.19,10.3,6.85,-0.0618,,,,,140,17300000000.0,1.2951318911158012,-1.9600755246319732,1.2493581271005487,-0.3947246094543696,-0.08309885224142644,-2.821297030771702,6.55098463858987,1.8766412646932702,-6.120346091714429
346,17.3,-14.1,2.11,-6.27,-0.48100000000000004,-2.09,0.42,-10.5,6.5,-14.3,,,,,140,17300000000.0,-4.500356882788368,0.29194474814595806,-1.7335611233186503,-0.4512244183410572,-0.7425397688013984,-0.9067347474893692,0.14965656785052417,4.5984747488577575,-9.538173003811876
347,17.4,-4.76,-4.84,3.52,0.6829999999999999,4.07,3.26,-0.0816,-0.653,-4.01,,,,,140,17400000000.0,-4.598099472514808,-2.5476203122982755,0.35051950244346086,0.29155355635994784,0.8387966555620481,1.554463078647788,0.06283758293263386,1.5068609193395477,-7.228254093286915
348,17.4,0.354,-8.94,-5.02,-0.976,-1.23,0.365,5.92,-5.71,-12.4,,,,,140,17400000000.0,-2.7338844463302934,-6.084598431483989,-1.7799583550473521,-0.5385386484861614,0.15901766636397419,0.8518736161361914,2.261749814592246,-2.741802212647116,-9.389241688204056
349,17.5,6.88,-29.4,-7.01,0.375,1.31,-1.89,12.3,-25.8,-14.4,,,,,140,17500000000.0,0.8852569198518614,-18.985282258293875,-3.854708933731087,0.059717181074579795,0.5372150881016673,-0.7676903284803923,6.030337686549048,-16.3164729960828,-11.482961434412589
350,17.5,-5.1,-18.5,-3.2,-0.6920000000000001,-1.82,-3.45,0.0411,-14.1,-10.3,,,,,140,17500000000.0,-1.3678896021174012,-18.716769916139206,-3.59498679900174,-0.43256540562616363,-0.23733436144746423,-2.3520712082609965,3.781841418232167,-15.011605750303909,-10.988667088262403
351,17.6,-11.1,-21.3,-2.55,-2.07,0.557,-2.51,-7.18,-15.9,-9.75,,,,,140,17600000000.0,-5.03153716093475,-20.14610087441867,-3.180441922081285,-1.5048842979839283,0.02367330706281684,-2.4453562383590923,-0.33348350674912197,-15.534615171830986,-10.471096337941846
352,17.6,-13.2,-11.9,6.03,-1.19,1.02,-3.48,-9.77,-5.31,-0.32299999999999995,,,,,140,17600000000.0,-8.106550271588832,-15.583436725830929,0.4733280866587699,-1.2986737200453562,0.35105296093308497,-3.0564973798208186,-3.876166942861392,-9.515246637737762,-6.230765841904586
353,17.7,-6.63,-4.69,0.611,0.0235,0.8440000000000001,-1.02,-3.76,2.56,-5.33,,,,,140,17700000000.0,-7.550703806073534,-9.555970969539377,0.5279423501257947,-0.4328120112511782,0.513028776022143,-1.8535835188930043,-3.832555222539068,-2.406386531035655,-5.854385378935156
354,17.7,-8.38,2.22,3.43,0.149,-0.34600000000000003,0.44799999999999995,-5.63,9.55,-2.48,,,,,140,17700000000.0,-7.862891928935058,-3.0401886597237304,1.6791847440112937,-0.05179646213373745,0.23076338442824823,-0.49408915612248383,-4.507356982438485,4.632499177835391,-4.444415598415464
355,17.8,-2.42,7.93,3.64,0.78,-0.39299999999999996,2.58,0.6759999999999999,15.0,-2.47,,,,,140,17800000000.0,-5.813918391648369,3.0297447748178206,2.457037561033158,0.49292823691199794,0.02580305521749121,1.3217071055669718,-2.561406689858459,10.735986382792321,-3.6194160827326813
356,17.8,0.551,-1.75,0.158,1.5,0.29600000000000004,2.4,4.45,4.46,-6.36,,,,,140,17800000000.0,-3.4178484893602095,0.38505615813513305,1.5450124548966864,1.1524367908760809,0.11458616805489515,1.9586308670588894,0.07083503632468968,7.041228792695541,-4.764555206005455
357,17.9,-28.3,-28.1,2.58,2.38,-2.27,4.55,-23.8,-23.0,-4.46,,,,,140,17900000000.0,-12.784719963772702,-15.37605836261395,1.955590592059534,1.9563402882208316,-0.6689570297298191,3.4892952715041945,-8.890819949884062,-10.64444673340665,-4.637298376275976
358,17.9,-5.97,-23.0,-2.98,1.79,0.46399999999999997,2.46,-0.198,-20.0,-10.3,,,,,140,17900000000.0,-10.21932243655455,-19.594474326762697,-0.0023515666495215193,1.8474077651081189,-0.2966824679804189,2.8813133983799895,-5.627337309708178,-16.152186798965037,-7.003429562551739
359,18.0,-6.51,-12.1,-2.21,-0.354,-0.6459999999999999,1.85,-0.684,-9.9,-9.79,,,,,140,18000000000.0,-8.822950204557463,-15.447694348976798,-0.8781227467398005,0.40575553486875093,-0.41146355813642255,2.2721394540058313,-3.7714958755147014,-12.471440097002205,-8.167783847939752
360,18.0,0.35,-7.54,-1.34,-1.13,-0.7859999999999999,-0.188,5.96,-5.39,-9.08,,,,,140,18000000000.0,-5.369798327829696,-11.07227467384803,-1.0613488452781181,-0.5999760783314281,-0.5345312409422973,0.8189896277884148,-0.11807061692743481,-8.30250096875806,-8.548948701081326
361,18.1,10.9,-2.68,-4.97,-1.13,0.985,-2.96,16.1,0.172,-12.8,,,,,140,18100000000.0,0.7549578406980189,-6.4287311025714144,-2.6119054192901143,-0.9470767714631496,-0.03523354126432238,-1.4131757812736065,5.970562698730117,-3.313448240034707,-10.325228970413226
362,18.1,-2.29,4.94,9.68,1.09,-1.33,-3.83,2.74,9.04,2.33,,,,,140,18100000000.0,-0.3913147894580049,-0.13827935233683686,2.264277053081543,0.38695882273865045,-0.46067654130922403,-2.840740217120871,4.757735869960715,3.959192903733011,-5.037305866396645
363,18.2,-13.5,-4.87,-2.91,-1.49,1.27,2.98,-9.49,-0.7390000000000001,-10.9,,,,,140,18200000000.0,-5.326071869371083,-2.756395595167726,0.21164826975644901,-0.8422191273295296,0.10800067638860072,0.5974419847223591,-0.591188666473232,1.193303524699986,-7.487002667857665
364,18.2,0.182,-3.76,20.3,1.57,1.45,2.15,5.61,-0.18,13.0,,,,,140,18200000000.0,-3.252561353308516,-3.311701630308895,8.18067008633687,0.7374887360148454,0.5489637673043186,1.514503637835615,1.7368788779356383,0.38482126084865664,1.073387321592083
365,18.3,-1.64,-17.9,-8.2,-1.61,-0.0305,0.11699999999999999,3.9,-14.8,-15.7,,,,,140,18300000000.0,-2.645513545094601,-11.383577314862482,1.682480365303089,-0.7998286309454095,0.3585597033972593,0.68902922321588,2.5489638608884557,-8.55468740464909,-5.93528728113204
366,18.3,6.0,-19.6,-5.97,0.654,1.11,-3.31,11.5,-16.1,-13.2,,,,,140,18300000000.0,0.6090851038858505,-15.929820174646448,-1.3532482223416702,0.1522508959282125,0.6054729652245096,-1.6731086398829351,5.909386740504379,-12.996714658986456,-8.970810505797283
367,18.4,-8.87,-23.6,-8.32,-1.44,-1.7,-2.46,-4.12,-19.2,-15.7,,,,,140,18400000000.0,-2.9593110404614973,-20.173820479383128,-4.116949163512446,-0.8904782939351426,-0.1520747114287756,-2.1379079421214775,2.144126522251827,-16.648672639372627,-11.78256807152919
368,18.4,-14.5,-14.4,3.54,-1.33,1.31,-3.17,-10.6,-8.73,-3.39,,,,,140,18400000000.0,-7.3037968249212355,-16.979097952374435,-1.0794477415292443,-1.1783111611946406,0.32834351562824,-2.747541882545217,-2.640309040561744,-11.986843259501207,-8.275776181469553
369,18.5,-10.8,-6.55,5.08,-1.17,0.20600000000000002,-2.07,-7.27,0.21100000000000002,-1.07,,,,,140,18500000000.0,-8.619940590307404,-11.208556337308735,1.3639968648615968,-1.172868341323027,0.2881430685537185,-2.3473328753456792,-4.378400488273914,-4.805808841290945,-5.264879231774011
370,18.5,-7.66,-0.972,1.88,-0.3,-0.35600000000000004,-0.529,-4.45,6.23,-3.94,,,,,140,18500000000.0,-8.258571444491771,-5.544550143007956,1.5686946128268404,-0.6012465852330207,0.07648624716434516,-1.2732839521060924,-4.405280504473664,1.6911202963062983,-4.7112851991597395
371,18.6,-5.46,4.12,3.28,0.40399999999999997,-0.5329999999999999,1.53,-2.4,11.3,-2.65,,,,,140,18600000000.0,-7.205050832829201,-0.19704171942569548,2.2475671474323597,0.057066710185565195,-0.12378280050037765,0.3825537079469632,-3.652452556727827,7.34799715560012,-3.849987690003377
372,18.6,4.78,2.1,3.13,1.23,-0.45799999999999996,1.82,8.4,8.76,-3.09,,,,,140,18600000000.0,-2.693285195325582,1.0739382431863773,2.5976271188658795,0.8251942446812206,-0.23360211515380275,1.2316213930243132,0.8723125560219116,8.179262360104387,-3.532430658658761
373,18.7,-3.51,-4.29,-2.01,1.45,0.0226,1.92,0.525,1.6,-8.74,,,,,140,18700000000.0,-3.0007370146990646,-1.893991422471927,0.7697876403206205,1.2343654544697085,-0.14941751765456496,1.6382313482952398,0.7419235014349318,4.305962113859583,-5.708386957507958
374,18.7,-30.0,-60.3,-2.1,2.49,1.58,7.28,-25.4,-55.8,-9.51,,,,,140,18700000000.0,-13.164594184905695,-34.210717793915066,-0.3686532198527743,2.0566521673652938,0.4188460220346238,4.970699127212977,-9.072349975312658,-31.079225921301013,-7.296871750507271
375,18.8,-8.96,-17.1,-5.34,0.359,-1.35,2.02,-3.15,-14.6,-12.8,,,,,140,18800000000.0,-11.581777113580142,-24.743157977252423,-2.340779863261024,0.9448981009722424,-0.16237319194383987,3.2277865635028613,-6.848964913699675,-21.37768415581315,-9.596326013003674
376,18.8,-3.55,-10.4,-2.62,-0.7020000000000001,-1.16,1.3,2.39,-8.43,-10.2,,,,,140,18800000000.0,-8.558219176666938,-16.806920913206376,-2.451546070648624,-0.13361828621543292,-0.4901800415979849,2.0890857545715815,-3.380446973432576,-13.75520849154858,-9.848568042069127
377,18.9,1.77,-6.5,-2.95,-1.07,-1.63,-1.24,7.12,-4.14,-10.8,,,,,140,18900000000.0,-4.670166958444447,-11.103981175541286,-2.64928209308367,-0.7468335577026006,-0.8647096729767558,0.12266860518674783,0.5616599874548731,-8.094605823391717,-10.246119132051511
378,18.9,10.8,-1.46,-0.907,-1.2,2.1,-4.02,15.6,1.93,-8.71,,,,,140,18900000000.0,1.1535686520085005,-5.7678537597125965,-1.958121131627943,-1.0436020576911245,0.1094543445133459,-2.3243138786462727,6.207395558858325,-2.1929855479575133,-9.604259572249047
379,19.0,-10.7,8.63,8.95,1.61,-4.02,-3.82,-6.52,13.1,1.27,,,,,140,19000000000.0,-3.3087004426420625,2.1986469719265456,2.3691157778305585,0.6941820103797081,-1.2474292592277805,-3.207782469201528,1.4292413312227508,6.810201000751836,-5.060505459904969
380,19.0,-8.98,-7.58,1.87,-0.701,3.65,4.22,-5.43,-3.18,-6.14,,,,,140,19000000000.0,-5.443657757928019,-3.2119925809823746,2.171117221801459,-0.2194911632260469,0.3618006941808687,1.1796438248997685,-1.1458740600196733,0.928835237063609,-5.511566713792438
381,19.1,6.08,-5.89,-4.86,2.38,-0.254,1.69,11.7,-2.48,-12.1,,,,,140,19100000000.0,-1.1055833883332324,-4.693765294177845,-0.6181175785385933,1.482856967675302,0.15945679829175888,1.4810999358689123,3.676759631557592,-1.0779919362854686,-8.2645102521571
382,19.1,2.78,-33.8,-2.31,-1.62,-0.354,-1.28,8.17,-30.3,-9.74,,,,,140,19100000000.0,0.3571422539428888,-20.798584528208828,-1.2892850374140479,-0.5491339887376823,-0.009258256734027775,-0.1498205610839798,5.363624454740663,-18.281380749347562,-8.881036052071643
383,19.2,-0.7490000000000001,-14.9,-6.6,0.0418,0.713,-3.71,4.44,-10.6,-13.7,,,,,140,19200000000.0,-0.059264372266958965,-17.534828595600953,-3.396038484094892,-0.16214466529938482,0.22806617122841233,-2.2527396429718323,5.016874814882049,-13.75924879142011,-10.894615577363622
384,19.2,-8.99,-26.2,-9.62,-2.05,-0.242,-1.77,-4.78,-20.9,-16.7,,,,,140,19200000000.0,-3.421234625612386,-22.329369574711965,-5.865075602898221,-1.3984584574925296,0.0736086985535021,-1.9675960277581797,1.3389047486171672,-17.963104865766944,-13.320366285419734
385,19.3,-13.4,-11.2,6.66,-0.925,2.77,-3.47,-9.52,-4.8,0.28800000000000003,,,,,140,19300000000.0,-7.177735022615536,-16.171359279977857,-0.8963950138197871,-1.088401214060789,0.9596069036390453,-2.855032760218319,-2.7377756418973322,-10.213808064188022,-7.634179569628939
386,19.3,-8.46,-5.05,4.85,-0.501,0.8590000000000001,-1.49,-5.21,2.11,-1.01,,,,,140,19300000000.0,-7.660442957247295,-10.017781385961008,1.3831921233407916,-0.7037254163946832,0.9265488261467536,-2.048738179480428,-3.665904999838519,-2.958616529982705,-4.866299783740422
387,19.4,-7.4,0.35700000000000004,0.9620000000000001,-0.0461,-0.263,0.0447,-4.32,7.73,-4.72,,,,,140,19400000000.0,-7.562399390258525,-4.277293659728155,1.2161057792929615,-0.2730613841600471,0.5356789468911195,-0.8121906616769947,-3.9114672282419463,3.3339158232710178,-4.805169074649611
388,19.4,-5.75,5.1,3.72,0.337,-0.318,1.88,-2.47,12.3,-2.05,,,,,140,19400000000.0,-6.88012267226122,0.9112724067312987,2.2093972610923447,0.12645404683510653,0.25517143684198645,0.7780266689289936,-3.3703076035262414,8.612370308500964,-3.653935653322118
389,19.5,2.69,0.012,1.11,1.33,-0.602,2.02,6.55,6.65,-4.99,,,,,140,19500000000.0,-3.277455422538305,0.4136944796349936,1.7732678516154032,0.9146291388168865,-0.026483661869917796,1.5116327676725454,0.35400193634967314,7.457096564838178,-4.212203257650022
390,19.5,-6.75,-10.4,2.57,1.49,-1.08,2.19,-2.38,-4.58,-4.04,,,,,140,19500000000.0,-4.584692850527039,-5.569648780946632,2.0893303970573953,1.2914265278906867,-0.37265509060002266,1.9123292850559044,-0.6724047166465326,0.3706959305026185,-4.140248985305262
391,19.6,-8.31,-46.1,3.02,2.04,1.85,5.15,-3.1,-42.0,-4.21,,,,,140,19600000000.0,-5.98708276272319,-27.995564706089873,2.458525769537297,1.7816503640298502,0.3576797294215789,3.8247496480574377,-1.583779253110365,-24.573502764332787,-4.169394108395257
392,19.6,-8.85,-16.8,-3.81,0.0663,0.39,2.58,-2.96,-14.2,-11.2,,,,,140,19600000000.0,-7.064826469388432,-21.80092755532356,-0.0281899514571049,0.6583061482665284,0.3682997344754644,3.089503584094227,-2.1004438874125833,-18.466482022990903,-7.107096984566571
393,19.7,-2.89,-9.14,-2.96,-0.833,-1.58,0.92,3.08,-7.11,-10.5,,,,,140,19700000000.0,-5.493215462742354,-14.79548863510363,-1.1912350705377552,-0.31831657142476244,-0.27188558173637745,1.8080259283993803,-0.1555872653527708,-11.78076835923515,-8.52480427339602
394,19.7,4.28,-4.03,-3.88,-0.8759999999999999,-0.698,-1.7,9.74,-1.55,-11.6,,,,,140,19700000000.0,-1.814093990296608,-8.838818136417256,-2.2578645479596466,-0.6835308456594937,-0.41190109968531946,-0.2640872367911604,3.55944153888668,-5.757777366554479,-9.809759344957095
395,19.8,7.59,1.34,2.17,-1.2,1.94,-4.02,12.9,4.92,-5.26,,,,,140,19800000000.0,1.7260718925829335,-3.206759143064822,-0.5013366055231168,-1.0217548621382617,0.36090224572650115,-2.4826216198003714,7.066099828653256,0.5283738590594123,-7.908665611379173
396,19.8,-15.1,8.3,2.68,1.19,-5.01,-1.65,-11.1,12.8,-5.04,,,,,140,19800000000.0,-4.60809342971314,3.160065208172048,0.7606953745310197,0.4266734843347513,-1.403904658709335,-1.9908104755339806,0.24613196898241263,7.752845367107531,-6.710008242733948
397,19.9,-7.19,-7.61,3.4,0.452,5.24,3.59,-3.29,-3.38,-4.54,,,,,140,19900000000.0,-5.580050708809282,-2.7991377518170744,1.807704008300011,0.4432592423181049,0.7791937061565153,1.3056504856383382,-1.0814125142531685,1.1987894652140438,-5.803281306351965
398,19.9,6.16,-6.88,-8.72,-0.321,-0.11900000000000001,0.615,11.7,-3.79,-16.2,,,,,140,19900000000.0,-1.1605153648481465,-5.05712656610297,-2.3686221214630083,-0.05723688186689735,0.48405923546400925,0.8976985622967846,3.717020844548915,-1.7381779832217017,-10.147497715271665
399,20.0,8.84,-40.2,1.26,-1.18,0.21100000000000002,-1.87,14.4,-36.6,-6.0,,,,,140,20000000000.0,2.6041730047192875,-24.50208936737046,-0.9291526089514397,-0.792509057129805,0.3943356118570682,-0.7371196167003191,7.727654444571615,-22.261800692063133,-8.414486864505278
400,20.0,-5.37,-14.7,-3.42,-0.488,-0.809,-2.91,-0.32299999999999995,-10.2,-10.6,,,,,140,20000000000.0,-0.39769983719672597,-19.07847871547881,-1.9172684498850163,-0.5930929562311485,-0.0010644225184499034,-2.02059193337275,4.705255359433499,-15.160856248489411,-9.327692585017148
401,20.1,-8.96,-23.3,-7.79,-2.17,0.40299999999999997,-1.88,-4.76,-17.9,-14.9,,,,,140,20100000000.0,-3.620972870177995,-21.41429533216105,-4.246973143812566,-1.6257738163312876,0.13170575549530886,-1.9375473926743514,1.1517827841854187,-16.77342679932506,-11.656052771286129
402,20.1,-14.6,-9.88,6.17,-1.35,1.99,-3.12,-10.5,-3.49,-0.0751,,,,,140,20100000000.0,-7.754021522405662,-15.032235054701012,-0.11457387475980507,-1.445175787698047,0.742316457422999,-2.6359958632454217,-3.2225619115313417,-8.953294750131011,-6.8170104866417605
403,20.2,-6.83,-3.5,4.68,-0.69,0.36200000000000004,-1.67,-3.53,3.75,-1.04,,,,,140,20200000000.0,-7.406174117960517,-8.651314689504465,1.787427066152756,-0.9506282176434034,0.6173495392373838,-2.065403499242791,-3.337981162929375,-1.4746942370294436,-4.403115986450402
404,20.2,-7.62,1.87,5.72,0.009470000000000001,-0.858,0.47200000000000003,-4.61,9.36,0.141,,,,,140,20200000000.0,-7.486668706363349,-2.8297483684156512,3.3474733777769488,-0.32188157778636506,0.13256936847293715,-0.5666155090864282,-3.8155260622714646,4.903835814155711,-2.5043802048229162
405,20.3,-2.36,4.92,4.86,0.7020000000000001,-0.15,2.23,0.98,12.1,-0.9490000000000001,,,,,140,20300000000.0,-5.556737152859673,1.458277971789725,3.947490707932694,0.34863535855567673,0.03972084155595053,1.0852832776913097,-2.0151763247553784,9.140314702825354,-1.8544724880694003
406,20.3,0.9390000000000001,-3.02,-0.0575,1.84,0.31,1.91,4.99,3.36,-6.31,,,,,140,20300000000.0,-3.1114205981286287,-1.0196055307537986,2.3587162790621385,1.3252964031565604,0.128530968235746,1.5724251404754837,0.6147263661132745,5.737365614634763,-3.716192000648916
407,20.4,-28.4,-28.4,7.98,1.75,-2.03,3.17,-23.8,-23.1,1.18,,,,,140,20400000000.0,-12.63129176427044,-16.16949741321072,4.588671979968083,1.6034251972344515,-0.5807335033682142,2.5160772341193463,-8.55111781565242,-11.239579687901065,-1.6703430680704598
408,20.4,-6.62,-25.0,-5.35,2.08,-0.19899999999999998,2.63,-0.9740000000000001,-21.6,-12.6,,,,,140,20400000000.0,-10.36834436096878,-21.055517644648447,0.6460142075543205,1.9155232226495977,-0.4553009668623672,2.583368953661951,-5.706495165217548,-17.338898725906667,-6.2372448530997655
409,20.5,-6.76,-15.2,-2.99,-0.10099999999999999,-0.276,2.7,-0.905,-12.8,-10.5,,,,,140,20500000000.0,-9.009985268002001,-17.81559122731983,-0.7963877431362014,0.5949477029408878,-0.3963850587838237,2.6522603549915718,-3.9039044868934316,-14.666788097779918,-8.018415436156854
410,20.5,-0.601,-8.06,-2.54,-1.17,-1.83,0.18,4.92,-6.05,-10.4,,,,,140,20500000000.0,-5.844427558319141,-12.417708877183234,-1.488076365722792,-0.5608766600782382,-0.8674518179102737,1.1919509817252831,-0.5912096970559055,-9.593969137781375,-9.013548288158049
411,20.6,9.34,-3.62,-4.85,-1.04,0.0544,-2.26,14.3,-0.943,-12.9,,,,,140,20600000000.0,-0.1282583966272446,-7.549833725016318,-2.8217469129395756,-0.8746436899024832,-0.5645436079625175,-0.8470399219426228,4.999289730540181,-4.501027238366385,-10.637482233126928
412,20.6,3.99,3.47,8.49,0.00458,0.467,-4.6,8.87,7.42,0.958,,,,,140,20600000000.0,1.422057634334111,-1.4524309851257557,1.6656077860899998,-0.2988599517829552,-0.22559213684014018,-3.063830174233757,6.452442501139796,2.5170419118591587,-5.792368886030399
413,20.7,-18.2,1.27,-5.31,-0.00519,-3.11,0.5670000000000001,-15.0,5.64,-13.5,,,,,140,20700000000.0,-5.964655071265295,0.05392186943588029,-1.1016064200807771,-0.10654213255418143,-1.173370047730085,-0.9191793085906093,-1.6012931205365817,4.355569271985399,-9.012963391732017
414,20.7,-2.54,-5.13,3.94,0.8340000000000001,4.4,3.2,1.86,-1.15,-3.87,,,,,140,20700000000.0,-4.675445606242682,-2.814402718261933,0.8983920901811389,0.5093976632558732,0.6579650316193697,1.5139286079725895,-0.3018448262149742,1.114366590794532,-6.8640022172689115
415,20.8,2.33,-7.88,-5.03,-0.655,-0.568,0.314,7.66,-4.78,-12.7,,,,,140,20800000000.0,-2.038249627270005,-5.617256929422746,-1.4533931635092885,-0.25314005094795766,0.2551292706933565,0.8051573898906702,2.687213042549287,-2.35572643990862,-9.302544163834758
416,20.8,7.09,-33.2,-4.13,-0.501,1.86,-2.57,12.3,-29.6,-11.6,,,,,140,20800000000.0,1.3980748022878147,-20.87911128986956,-2.515199541797963,-0.4154579254882732,0.7824683878050751,-1.1884732079257638,6.296072326279878,-18.394797018534472,-10.262524573145559
417,20.9,-9.56,-20.2,-5.25,-0.8370000000000001,-2.13,-2.93,-4.87,-15.6,-12.5,,,,,140,20900000000.0,-2.727086372535877,-20.503351502547048,-3.6000912061699006,-0.69151631810988,-0.174529909225155,-2.21715451083527,2.1040744443640946,-16.749462640714782,-11.19744231373506
418,20.9,-12.9,-19.4,0.395,-2.11,1.4,-2.64,-9.18,-13.7,-6.71,,,,,140,20900000000.0,-6.5566737688096755,-19.892854016733953,-2.015243892494783,-1.6204491776821255,0.3428396066247196,-2.4669200280482584,-2.132224278413031,-14.954202848311061,-9.322387355381073
419,21.0,-12.9,-9.48,5.08,-1.62,0.31,-3.03,-9.44,-2.74,-1.17,,,,,140,21000000000.0,-8.94461517134871,-14.13130000218369,0.7994297886495825,-1.6201550244850174,0.33204895075699026,-2.7995188661433654,-4.87572960474395,-7.763537323035251,-5.915953695664532
420,21.0,-7.25,-2.87,1.98,-0.35200000000000004,0.40399999999999997,-0.8109999999999999,-4.43,4.51,-3.82,,,,,140,21000000000.0,-8.306678255462131,-7.90029110304855,1.267760411584534,-0.7896689376804683,0.35569111032156675,-1.624944854549683,-4.708392492539281,-0.5379406539197955,-5.040170063618919
421,21.1,-7.72,2.67,3.77,0.449,-0.688,1.09,-5.03,10.1,-2.0,,,,,140,21100000000.0,-8.08582348142287,-2.0516255206704574,2.2603954840627147,0.02150737616425158,0.012748126803164062,-0.021287104180249372,-4.829131356127346,5.724758342715532,-3.769850446798678
422,21.1,2.26,4.55,5.09,1.24,0.105,2.27,5.51,11.5,-0.9840000000000001,,,,,140,21100000000.0,-4.191144129113512,1.6011310998373514,3.382895851189718,0.8194706833542647,0.04306086060332487,1.33212537527407,-0.947585824006068,9.124720798991511,-2.6057970012633813
423,21.2,-0.0311,-3.78,-0.8,1.78,0.33799999999999997,1.83,3.92,2.35,-7.36,,,,,140,21200000000.0,-2.625097886297115,-1.3763115795145633,1.7235466868971063,1.4484996215205022,0.13997392711586615,1.626208902724527,0.879816811135969,5.1363514701486785,-4.592316628411362
424,21.2,-32.4,-38.7,-2.66,2.47,-0.657,5.69,-28.0,-33.7,-9.83,,,,,140,21200000000.0,-13.833843399614757,-22.027944787224666,-0.015400423431906507,2.1174571685851977,-0.12190107529492905,4.026600236547542,-9.962324329061758,-17.72713154352939,-6.780855985576265
425,21.3,-9.83,-19.5,-5.63,1.16,-1.02,2.07,-4.05,-16.6,-13.0,,,,,140,21300000000.0,-12.326598803969507,-20.629203407224885,-2.2427045710864464,1.49044007020741,-0.4170043948986741,2.870879818530452,-7.742703159248088,-17.063574265459838,-9.379493718344541
426,21.3,-3.26,-12.5,-2.89,-0.386,-1.15,1.89,2.39,-10.2,-10.6,,,,,140,21300000000.0,-8.913482845574196,-16.131220203800552,-2.4994858389547865,0.26160184086166005,-0.6578569646191847,2.291495849042898,-3.9386555214071413,-13.022895649443381,-9.88947622727766
427,21.4,1.92,-6.3,-2.78,-0.815,-1.12,-0.363,7.16,-4.07,-10.8,,,,,140,21400000000.0,-4.835224415999248,-10.69149133090297,-2.6107654180935573,-0.4434403892095915,-0.8097110025482068,0.7235440024463557,0.2280325418201672,-7.752205640995401,-10.269934039886918
428,21.4,14.1,-2.09,-4.72,-1.54,2.54,-3.89,19.0,0.958,-12.6,,,,,140,21400000000.0,2.292930172220686,-5.9321856549641545,-3.4474958572863343,-1.1615524886611872,0.2909593346600319,-2.0015742116731134,7.275456768635368,-2.6243904017724233,-11.24354042382776
429,21.5,-7.4,7.57,11.3,1.48,-3.38,-4.17,-2.78,12.0,3.82,,,,,140,21500000000.0,-1.3559679052629021,1.5387314835711168,2.4028159944876455,0.5683405919017888,-0.9152689691130254,-3.282415292227893,3.500409235699969,5.985184965386946,-4.949316609396861
430,21.5,-10.0,-9.68,-0.591,-0.7609999999999999,2.16,4.29,-6.65,-5.39,-8.73,,,,,140,21500000000.0,-4.610008863100205,-4.668723862503506,1.2151732070270265,-0.30221452526499204,0.09522341774758458,1.1904425050768186,-0.3102856630217219,-0.711539372162556,-6.52905576676706
431,21.6,5.73,-6.1,16.6,1.6,0.634,1.83,10.9,-2.51,9.09,,,,,140,21600000000.0,-0.7175184097757086,-5.460665615521826,7.318313459654077,0.9435028233816632,0.2722582164044754,1.5682149626034172,3.898310812479506,-1.770317332319536,-0.0027125966910466204
432,21.6,0.632,-19.6,-8.8,-1.5,0.128,-0.40399999999999997,5.91,-16.4,-16.4,,,,,140,21600000000.0,-0.20949296224297487,-13.284124704797875,0.9242001083144489,-0.6566919916473967,0.22485689291994643,0.4032713032331783,4.653544704355066,-10.38300810303791,-6.854235679475173
433,21.7,3.01,-19.7,-4.93,0.0687,0.706,-3.78,8.15,-15.8,-12.3,,,,,140,21700000000.0,1.002483325761919,-16.83410387239072,-1.3981531346044687,-0.18164915812964127,0.3829540896641358,-2.0676942884720924,5.966193531656765,-13.572064218271304,-9.129720715664853
434,21.7,-7.14,-23.8,-8.98,-1.93,-0.96,-1.82,-2.98,-18.9,-16.4,,,,,140,21700000000.0,-2.0627498334494248,-20.688415147127593,-4.405861409450916,-1.3266046054113545,-0.05832270192083783,-1.921386795056112,2.607588670037881,-16.708691463556455,-12.16756982173445
435,21.8,-14.3,-13.6,4.69,-0.878,1.94,-2.65,-10.6,-7.56,-2.03,,,,,140,21800000000.0,-6.669455759282419,-16.766312456660117,-0.7975453965300687,-1.0328235943419606,0.5982994987794283,-2.351762516958193,-2.3508411411567245,-11.322733690610615,-7.931637759286343
436,21.8,-8.47,-7.13,5.3,-0.8490000000000001,0.17,-1.86,-5.07,-0.192,-0.742,,,,,140,21800000000.0,-7.347269713511375,-11.43442827478194,1.6213427387676291,-0.9124416588856831,0.4575659976536715,-2.061289309849206,-3.3716753861996738,-4.769921029434057,-4.927484138624681
437,21.9,-6.84,-0.563,1.53,-0.087,-0.39799999999999996,-0.252,-3.73,6.71,-4.27,,,,,140,21900000000.0,-7.156308376276848,-5.41914003280656,1.5851071857744672,-0.37187855659477875,0.17643842358876666,-0.9925822319259816,-3.5061986163515133,1.9884629390629005,-4.65275772339306
438,21.9,-5.82,5.1,3.61,0.41100000000000003,-0.0635,1.67,-2.68,12.2,-2.33,,,,,140,21900000000.0,-6.653255913901067,0.401222969922566,2.3883794007551913,0.14081093835393665,0.09759785774954649,0.5801460331625841,-3.1960248592564167,8.000132067362268,-3.682205176555509
439,22.0,4.1,2.21,3.15,1.41,-0.40399999999999997,1.89,7.92,8.78,-3.06,,,,,140,22000000000.0,-2.6051988867973304,1.4020404503145187,2.6905133061814066,0.9719741696346149,-0.06722051153134045,1.3538477212411775,0.9771841350167625,8.459250653437275,-3.422219880465536
440,22.0,-4.44,-5.17,-1.42,1.35,-0.331,2.23,-0.0735,0.505,-8.12,,,,,140,22000000000.0,-3.295908742176028,-2.234346341857072,1.0598782219166247,1.2195347642289747,-0.15389493265881649,1.8713714577892635,0.5827333751843985,3.776476284749834,-5.385163390563944
441,22.1,-19.0,-60.3,1.47,1.86,1.65,6.29,-14.0,-56.2,-5.89,,,,,140,22100000000.0,-9.207704950069234,-34.36275036067749,1.222572991154586,1.6389609922534512,0.43884087012430417,4.481357346656533,-4.891956942195152,-31.532482599184405,-5.5961067474254635
442,22.1,-8.62,-17.7,-5.07,0.256,-0.526,2.25,-2.86,-15.2,-12.6,,,,,140,22100000000.0,-8.98646371333102,-25.14305636865854,-1.2736823211169979,0.7332910791442775,0.12180702381625946,3.163344034960886,-4.129113976827888,-21.917330264656933,-8.522648122172741
443,22.2,-1.41,-9.85,-2.83,-0.755,-1.3,1.03,4.41,-7.87,-10.5,,,,,140,22200000000.0,-6.134308251949381,-16.68122985091297,-1.8910714213346527,-0.24135713393796532,-0.3453797814024912,1.9032249964631838,-0.9233361181911883,-13.647477895865364,-9.348874559245889
444,22.2,4.53,-5.18,-3.87,-1.12,-0.6629999999999999,-1.44,9.83,-2.81,-11.8,,,,,140,22200000000.0,-2.119735406633491,-10.317464932165631,-2.6761096820920436,-0.8167605067972787,-0.4497455440540493,-0.07154391778177516,3.113711203011648,-7.2673088314705785,-10.373064952484905
445,22.3,5.26,1.77,7.46,-0.654,1.06,-4.01,10.5,5.32,-0.0619,,,,,140,22300000000.0,0.6583618693587199,-3.6293294006142363,1.3448714142312523,-0.7101723163698457,0.04633668266690044,-2.397902738496761,5.886692283983365,0.1430093120504008,-6.0645970589078715
446,22.3,-14.3,7.4,-0.6609999999999999,0.48,-2.02,-0.0329,-10.4,11.5,-8.65,,,,,140,22300000000.0,-4.97270500686677,2.4733274444423277,0.5491449161389605,0.06924464777435757,-0.6326339797196838,-1.0009480580808903,-0.22770288232803004,6.829022512311983,-7.144894384431856
447,22.4,-6.11,-5.19,3.3,0.457,3.08,2.79,-1.66,-1.34,-4.54,,,,,140,22400000000.0,-5.400839109412894,-1.7668811784817757,1.640405410005628,0.32317686261508743,0.5872879938004387,1.238280885551086,-0.7654198368418962,2.019809044198932,-6.056452482991468
448,22.4,3.73,-5.35,-10.2,-0.413,0.506,0.34299999999999997,9.21,-2.48,-17.8,,,,,140,22400000000.0,-1.9635399210389504,-3.7494626245036,-3.0566674190730962,-0.15892873079358472,0.5605778376355464,0.7094583132525011,2.979580033644079,-0.6292890859614446,-10.96343383619302
449,22.5,1.93,-33.5,-6.94,-1.49,0.9440000000000001,-1.6,7.71,-30.2,-14.2,,,,,140,22500000000.0,-0.49781905553359573,-20.210782473985955,-4.597180254835653,-1.0306172503636768,0.686565247154122,-0.6546875218634359,4.7554874667361995,-18.03796485631193,-12.315816486074205
450,22.5,-4.51,-17.3,-7.02,-0.488,-1.19,-2.86,0.94,-13.2,-14.1,,,,,140,22500000000.0,-2.008202372630244,-18.600212107784586,-5.558309582289382,-0.6752694711453404,0.0699509218257699,-1.9573166452186461,3.3230665504474355,-15.189789749390282,-13.061328662994248
451,22.6,-9.97,-23.1,-5.78,-2.32,-0.366,-3.02,-5.61,-17.9,-12.8,,,,,140,22600000000.0,-5.0054166543969405,-21.08999752218486,-5.646253956126014,-1.7523663062234034,-0.07329673433255804,-2.585020130130558,-0.03061018634425805,-16.78532675901168,-12.95213388842641
452,22.6,-11.7,-11.1,7.13,-1.41,0.772,-2.99,-8.04,-4.49,0.845,,,,,140,22600000000.0,-7.525588669358823,-15.562415409864036,-0.5779311461434684,-1.528158322410473,0.20445650102910987,-2.824232765805453,-3.0375175694768908,-9.546902355810008,-7.187071571536072
453,22.7,-6.09,-5.11,2.84,-0.599,1.16,-1.26,-3.09,2.18,-2.98,,,,,140,22700000000.0,-6.985162190028913,-9.778971941534554,0.7779575095024029,-0.9196735061620512,0.5184353367160849,-1.9002751471027102,-3.0572206372714317,-2.643117141064937,-5.429168095538451
454,22.7,-7.72,1.32,4.1,0.129,-0.161,0.0935,-4.8,8.85,-1.47,,,,,140,22700000000.0,-7.2617913859968795,-3.6377810888294073,2.095807260608686,-0.23292091464129228,0.2951819493592951,-0.722596371182272,-3.711499783793416,4.123035757991264,-3.7748498316054304
455,22.8,-4.66,6.59,4.22,0.722,0.044,2.04,-1.48,13.8,-1.57,,,,,140,22800000000.0,-6.282348443453424,2.021369743994722,2.938471580761966,0.39243522832205135,0.21264691152991705,0.9092080312985718,-2.8737439364612305,9.819994900912477,-2.853564552167408
456,22.8,0.555,-1.91,-0.18,1.57,0.255,1.97,4.51,4.63,-6.32,,,,,140,22800000000.0,-3.708432514239839,-0.15390303969357788,1.7013780951431159,1.1635958375517492,0.226563569837212,1.5357943445540205,-0.1017181681782473,6.764575150638606,-4.301997066053112
