,Time (s),Acceleration x (m/s^2),Acceleration y (m/s^2),Acceleration z (m/s^2),Gyroscope x (rad/s),Gyroscope y (rad/s),Gyroscope z (rad/s),Linear Acceleration x (m/s^2),Linear Acceleration y (m/s^2),Linear Acceleration z (m/s^2),Still,Walk,Run,Cycle,SPM/RPM,Timestamps,Acceleration x (m/s^2)_kalman,Acceleration y (m/s^2)_kalman,Acceleration z (m/s^2)_kalman,Gyroscope x (rad/s)_kalman,Gyroscope y (rad/s)_kalman,Gyroscope z (rad/s)_kalman,Linear Acceleration x (m/s^2)_kalman,Linear Acceleration y (m/s^2)_kalman,Linear Acceleration z (m/s^2)_kalman
0,0.0521,2.09,3.53,7.91,-0.0504,-0.0886,-0.132,-0.0514,-1.53,-0.221,0.0,0.0,0.0,1,60,52100000.0,1.7085963927368901,3.0683123892076725,7.440501924539442,-0.1504839622774596,0.2008246150839345,-0.01878271721405076,0.027722976365039533,-1.3957715611316108,-0.26314611122655884
1,0.102,1.62,3.84,7.7,-0.675,1.08,0.28800000000000003,0.0103,-0.903,-0.726,0.0,0.0,0.0,1,60,102000000.0,1.6564823837342741,3.5985821541126777,7.552232103068173,-0.5507878935083903,0.8577875049059684,0.20679505721755395,0.019031120322145365,-1.1933340865943276,-0.5236529930442703
2,0.152,1.34,2.37,8.27,-0.512,2.34,0.8440000000000001,0.426,-2.16,-0.375,0.0,0.0,0.0,1,60,152000000.0,1.4488967435969882,2.695982884822474,7.924496839443662,-0.5202991835287387,2.0045087111836244,0.6917767279601581,0.2558708745990742,-1.6822345232277285,-0.42950968344995494
3,0.20199999999999999,1.05,1.38,9.96,-0.11800000000000001,1.74,1.06,0.569,-3.15,1.28,0.0,0.0,0.0,1,60,202000000.0,1.184129842640858,1.7248262528741662,9.02004578195259,-0.20365825231612206,1.7995144897390873,0.9725732878099116,0.4424936522558831,-2.4570863646524352,0.6689315944765177
4,0.252,0.795,0.804,8.49,-0.115,0.456,0.376,0.617,-3.6,-0.26899999999999996,0.0,0.0,0.0,1,60,252000000.0,0.9255020414714878,1.0450749405945847,8.732571254074193,-0.13387308990619354,0.758199433967782,0.517594233007362,0.5468956505740153,-3.0660291234719854,0.06516243358766816
5,0.302,-0.0023899999999999998,1.53,10.8,-0.0883,2.28,-0.256,0.773,-2.85,2.05,0.0,0.0,0.0,1,60,302000000.0,0.30870394134839063,1.403052753489842,9.855645352360552,-0.09800125270956192,1.9377035361930581,-0.07239415982704978,0.6822502556886629,-2.950699178409882,1.3431464539433298
6,0.35200000000000004,-2.06,2.48,9.43,0.218,0.332,-0.8140000000000001,-1.01,-1.93,0.7290000000000001,0.0,0.0,0.0,1,60,352000000.0,-1.2658721140503846,2.198070040892647,9.624348567332985,0.15073206804931574,0.6931683281113998,-0.6379865189305595,-0.33089475491920095,-2.405550037832572,0.947702263214301
7,0.402,-1.27,2.19,11.0,-0.37,0.32299999999999995,-0.28600000000000003,-0.726,-1.64,0.628,0.0,0.0,0.0,1,60,402000000.0,-1.2686160841407634,2.192112667335549,10.37193337884422,-0.25915054937505555,0.40626137967980863,-0.3695408456206909,-0.5674468183546898,-1.9966360955131335,0.7418476835606902
8,0.452,-2.49,2.76,9.2,0.165,0.203,-0.633,-1.25,-1.71,0.5589999999999999,0.0,0.0,0.0,1,60,452000000.0,-2.0805225171070107,2.6113349461587965,9.73504793489013,0.07471008484795294,0.24871925184989058,-0.5704703511420078,-0.9760968545562505,-1.8435280544651125,0.6241129831963887
9,0.502,-1.03,1.69,8.65,0.9690000000000001,-0.425,-0.256,0.33,-2.91,0.0916,0.0,0.0,0.0,1,60,502000000.0,-1.3821949761536043,1.9311927838860945,9.145378371554736,0.778630398119928,-0.273461417663213,-0.33063671933159827,-0.19412591541767288,-2.4131917846797823,0.28123051301293467
10,0.552,-0.615,-0.0431,7.88,-0.29600000000000004,1.54,-0.177,1.61,-4.36,-0.644,0.0,0.0,0.0,1,60,552000000.0,-0.87220746747099,0.4737425355919851,8.4577080617208,-0.06724091463016535,1.1321010001207452,-0.21346429461659433,0.8860191919188194,-3.4530945085208575,-0.3145208293949412
11,0.602,-0.33299999999999996,-2.88,5.61,-1.13,2.05,-0.7759999999999999,3.46,-6.24,-2.79,0.0,0.0,0.0,1,60,602000000.0,-0.513773063103828,-2.002036689924502,6.910119869748864,-0.9037679820080252,1.8435384120790768,-0.6424872262273895,2.4270828180065482,-4.941741800871229,-1.908469587920782
12,0.652,-4.34,-4.71,6.25,-2.63,4.13,-2.57,1.55,-6.47,-1.39,0.0,0.0,0.0,1,60,652000000.0,-3.0572308627276388,-4.001092700058281,6.551377411154887,-2.2625330395978147,3.615709948149887,-2.112522124849106,1.9019660496788087,-5.758072822655673,-1.5746295776914134
13,0.7020000000000001,-9.97,-3.68,5.62,-1.3,4.14,-3.56,-2.67,-3.83,-0.93,0.0,0.0,0.0,1,60,702000000.0,-7.6524461615687756,-3.764057675625049,6.045219847022494,-1.5048966237300838,4.022072175412942,-3.216454098731311,-0.8353078973516979,-4.728177513022269,-1.159555788404114
14,0.752,-12.7,-1.52,3.6,-1.31,1.77,-2.43,-5.2,-0.53,-2.68,0.0,0.0,0.0,1,60,752000000.0,-11.007772281545206,-2.107463237366217,4.716363891989399,-1.3514880554730462,2.276554970325824,-2.6166578592793557,-3.4484850576018182,-2.4856879418586377,-2.1385623324103205
15,0.802,-12.4,-2.03,6.4,-2.72,-0.341,-0.696,-4.81,0.152,0.524,0.0,0.0,0.0,1,60,802000000.0,-11.933245703875924,-2.050278782666542,5.631336797589494,-2.428681681437687,0.24776245163102661,-1.1518508566499366,-4.26363528426532,-1.076746172551396,-0.4241516344127254
16,0.852,-12.3,-2.22,5.64,-2.22,1.44,-0.602,-4.37,0.67,0.629,0.0,0.0,0.0,1,60,852000000.0,-12.177043193762543,-2.1755693546286157,5.636044746553637,-2.2644225805354186,1.171831963347013,-0.7325021549918771,-4.3273166510998555,-0.14370794913204155,0.2539674946710685
17,0.902,-12.3,-3.74,5.83,-2.28,1.6,-0.303,-3.99,1.16,1.67,0.0,0.0,0.0,1,60,902000000.0,-12.258778000833567,-3.3304537090215556,5.741449780996522,-2.2766839757346156,1.5036928682026711,-0.4049384766736937,-4.125362386903897,0.5526778939237059,1.1657437872755791
18,0.9520000000000001,-12.5,-3.64,3.3,-1.42,1.91,0.425,-3.89,-0.267,0.0842,0.0,0.0,0.0,1,60,952000000.0,-12.419128644136883,-3.558965141242598,4.414642695661741,-1.602364289484414,1.8186099621462988,0.228021574641654,-3.9844490413290283,0.11484050169794613,0.46934309818652886
19,1.0,-8.61,-3.16,1.4,-2.22,0.475,1.34,0.316,-0.12300000000000001,-1.31,0.0,0.0,0.0,1,60,1000000000.0,-9.887036688696963,-3.2644436173903406,2.7763336577265543,-2.088522463043627,0.7772160308155409,1.076081945351228,-1.4097346105010384,-0.01220387584493593,-0.6763670774110059
20,1.05,-5.38,-1.72,6.0,-2.92,-0.659,1.78,3.74,1.06,3.7,0.0,0.0,0.0,1,60,1050000000.0,-6.891015527397772,-2.1243139917474707,4.528236684133681,-2.743001490415463,-0.33595421406289594,1.6129313576945816,1.6734541144158546,0.5605222318533043,2.141554049618687
21,1.1,-2.94,-2.86,2.87,0.723,1.81,-0.0616,6.35,-0.146,1.28,0.0,0.0,0.0,1,60,1100000000.0,-4.2646055211231655,-2.667407504303543,3.627067097248395,-0.01481585845924549,1.3273139135163357,0.3358349602506572,4.473340771846749,0.18312782269906902,1.586803643694433
22,1.15,-3.61,-5.13,1.87,0.21100000000000002,0.31,-0.6729999999999999,5.5,-1.83,0.35700000000000004,0.0,0.0,0.0,1,60,1150000000.0,-3.8294609919915943,-4.485327440715389,2.672188139537985,0.16293004604809672,0.5388227900066022,-0.4335620771208688,5.088010146120401,-0.8922002695394154,0.7949391612554085
23,1.2,-12.8,-5.55,-4.03,0.825,1.92,-2.31,-4.14,-0.91,-4.3,0.0,0.0,0.0,1,60,1200000000.0,-9.792564424791006,-5.271283595236156,-0.9701193470644087,0.6840636097272315,1.6093339904514936,-1.864644288705712,-0.4368757991825962,-0.9017081496532797,-2.485667065444008
24,1.25,-11.4,-3.3,2.23,-0.971,-3.15,0.9840000000000001,-2.97,1.7,1.97,0.0,0.0,0.0,1,60,1250000000.0,-10.861095770502317,-3.8160547360109613,0.7689870638203513,-0.6186827475644521,-2.079490707039601,0.3078999144378969,-1.9534782339169465,0.48801475875709155,0.3833149190312275
25,1.3,-6.42,-4.34,-0.23199999999999998,1.67,0.591,-1.38,1.81,0.9640000000000001,-0.841,0.0,0.0,0.0,1,60,1300000000.0,-7.9089083497913375,-4.202838491661749,0.2250001654835455,1.1828027123339682,-0.009669178953123136,-0.9793921296372305,0.29974728875596157,0.7422660141218465,-0.4050154096725652
26,1.35,-4.04,-6.94,0.335,0.529,-1.55,-0.682,3.55,-0.94,-1.24,0.0,0.0,0.0,1,60,1350000000.0,-5.33707845437842,-6.22344902980994,0.2847796330685119,0.6681765014281303,-1.2035358200905668,-0.7525833335713318,2.2457004503864084,-0.15632961506706178,-0.9426578600076192
27,1.4,-7.49,-14.1,0.879,-1.65,-3.87,-3.26,-0.963,-7.12,-1.32,0.0,0.0,0.0,1,60,1400000000.0,-6.768217899841894,-12.038028214937611,0.6077089820926491,-1.1565243229224778,-3.270236396749138,-2.6648871941897,0.32462494286358146,-3.8760288924205266,-1.185626629723427
28,1.45,-6.35,-10.2,1.48,-0.687,-1.15,-0.0854,0.259,-3.24,-0.6559999999999999,0.0,0.0,0.0,1,60,1450000000.0,-6.490210401336052,-10.681170215523379,1.0817559662842133,-0.7869487233048276,-1.6269013562231034,-0.6976180903907765,0.2853347486015764,-3.536289059237474,-0.8446026763816072
29,1.5,-5.68,-8.06,1.35,0.664,-0.255,0.265,0.855,-1.13,-0.988,0.0,0.0,0.0,1,60,1500000000.0,-5.951628567837325,-8.74618640655568,1.227533328565311,0.3551331289564559,-0.563579569667702,0.03653124140852182,0.6263980593324969,-2.2509508187963916,-0.9369354875250216
30,1.55,-5.4,-8.4,1.2,0.0565,-0.325,-0.0427,0.8340000000000001,-1.14,-1.06,0.0,0.0,0.0,1,60,1550000000.0,-5.584937384070361,-8.49062652991061,1.2125703538086345,0.12007073243556043,-0.37866331100379674,-0.02389517739818739,0.7506910537293605,-1.6575276883857488,-1.0161760810436937
31,1.6,-5.37,-8.04,1.33,0.0541,0.0825,-0.0097,1.06,-1.02,-1.02,0.0,0.0,0.0,1,60,1600000000.0,-5.442059179448115,-8.157967762651891,1.276387574914406,0.06814334374236572,-0.021228721915107218,-0.013069097927514137,0.93587684476515,-1.3169872462603385,-1.018638271248363
32,1.65,-5.34,-5.46,1.01,-0.23800000000000002,-0.0849,-0.205,0.971,1.66,-1.4,0.0,0.0,0.0,1,60,1650000000.0,-5.374216152408711,-6.166290660242496,1.131619113837215,-0.17283055410503673,-0.07057852084473829,-0.1594469249140622,0.9569053778274432,0.2731939016566929,-1.2641951851423432
33,1.7,-5.33,-5.89,1.13,-0.155,-0.0599,-1.01,0.589,1.58,-1.17,0.0,0.0,0.0,1,60,1700000000.0,-5.344823722442049,-5.962328973624057,1.1307392030511505,-0.15879563272892466,-0.06230190311546167,-0.8081288687146052,0.7366373761511644,0.9712346862525186,-1.2035433441011525
34,1.75,-4.08,-8.08,1.75,-0.8079999999999999,-0.922,-0.7290000000000001,1.25,-0.299,-0.9259999999999999,0.0,0.0,0.0,1,60,1750000000.0,-4.504040914516118,-7.525622968362197,1.467276781423764,-0.6698023688079662,-0.7286294778496273,-0.7477805043527731,1.043991826511729,0.2927288348309799,-1.024834558174158
35,1.8,-3.35,-10.6,1.21,0.7090000000000001,-2.21,-1.59,0.83,-2.26,-1.96,0.0,0.0,0.0,1,60,1800000000.0,-3.7369001936337005,-9.795170910776708,1.3274596113710702,0.41549110545700296,-1.8767977321529608,-1.3901068015867848,0.915873139460481,-1.0708313565471554,-1.6269829812745673
36,1.85,-3.19,-9.51,1.8,-0.309,-0.9990000000000001,-3.11,-0.35700000000000004,-0.584,-1.11,0.0,0.0,0.0,1,60,1850000000.0,-3.3733521383171206,-9.584653967875653,1.5842618872597003,-0.15477587102485157,-1.196441647060397,-2.701798735006834,0.15379346335809851,-0.8107865516198899,-1.294100208121439
37,1.9,-1.08,-9.4,1.7,-1.09,-0.63,-2.19,0.841,-0.115,-0.7929999999999999,0.0,0.0,0.0,1,60,1900000000.0,-1.848862311147765,-9.44833957237302,1.6471598462881265,-0.8909166767396679,-0.7574088081639703,-2.311470871187253,0.5652297149344272,-0.4391266905176493,-0.9714442537111609
38,1.95,-0.5529999999999999,-10.4,1.51,-1.2,-0.997,-1.68,0.9129999999999999,-1.0,-0.894,0.0,0.0,0.0,1,60,1950000000.0,-0.9874468505971634,-10.150868185296689,1.5726202565762153,-1.1342047469999184,-0.943109120941945,-1.8298738929488627,0.7734426545640791,-0.7387215827124717,-0.9215782781360501
39,2.0,-1.71,-12.3,1.62,0.171,0.561,-0.327,-0.408,-2.87,-0.8079999999999999,0.0,0.0,0.0,1,60,2000000000.0,-1.4677590478463598,-11.737387166383407,1.598368803551989,-0.1068419867507362,0.22268313787156047,-0.6836935983197561,0.0661031668181522,-1.8771606608133826,-0.8484458052184307
40,2.05,0.5,-12.1,1.06,0.17,0.11699999999999999,-0.297,1.63,-2.67,-1.43,0.0,0.0,0.0,1,60,2050000000.0,-0.1597049305666982,-12.005073258755399,1.3057919868565382,0.11106799964845421,0.14077113781093586,-0.38877824141804734,1.0024211373667673,-2.30066207404328,-1.2229056385319832
41,2.1,-0.0958,-8.84,1.2,0.24600000000000002,0.434,-0.391,1.22,0.528,-1.37,0.0,0.0,0.0,1,60,2100000000.0,-0.11722457151528029,-9.668572500888711,1.2482993065577315,0.2172767145810699,0.3680444907017673,-0.3904726875792661,1.132687419759556,-0.7897099678473647,-1.3176189727739296
42,2.15,-1.64,-8.87,1.74,0.245,0.665,0.951,-0.2,0.45899999999999996,-0.903,0.0,0.0,0.0,1,60,2150000000.0,-1.129478918606153,-9.07905514746853,1.5155142904223349,0.23909848309075313,0.5982062898435632,0.6326135015087355,0.33479643336932463,-0.12270171606646951,-1.0506478668971906
43,2.2,-1.72,-9.28,1.84,0.0449,0.0623,-0.0402,-0.303,0.0603,-0.7979999999999999,0.0,0.0,0.0,1,60,2200000000.0,-1.5220237122010742,-9.22739522068873,1.6918562237224661,0.0862394857557971,0.18284054316214743,0.11948623543771719,-0.047057570147898686,-0.024949909244757804,-0.887969141989511
44,2.25,-0.759,-9.76,1.62,0.0394,-0.0409,0.0447,0.684,-0.423,-1.0,0.0,0.0,0.0,1,60,2250000000.0,-1.0148090178751183,-9.620571606681795,1.652805926921875,0.049370831074530094,0.009425602227653318,0.06244984081877731,0.3906326548630228,-0.23757150198051497,-0.9601052568636003
45,2.3,-1.02,-9.93,1.75,0.168,-0.142,0.107,0.45299999999999996,-0.61,-0.92,0.0,0.0,0.0,1,60,2300000000.0,-1.0182596743970413,-9.848996153062126,1.7056260927503035,0.14274712933755662,-0.10794008557815679,0.09642642091407956,0.42797250583602653,-0.43650712275937753,-0.9342816912528168
46,2.35,-1.57,-9.94,1.44,0.0596,-0.0904,0.102,-0.0606,-0.614,-1.18,0.0,0.0,0.0,1,60,2350000000.0,-1.385025246622066,-9.916176142203627,1.5612714958012002,0.07729972353442227,-0.09434526558351373,0.10067715966814404,0.13546010342112969,-0.5313163519338875,-1.0924984600747105
47,2.4,-0.747,-9.83,1.65,-0.0706,-0.0715,0.132,0.789,-0.485,-0.89,0.0,0.0,0.0,1,60,2400000000.0,-0.9609023952344224,-9.852559665403357,1.609491031187797,-0.0391162420080373,-0.07663855156158193,0.12456580496357822,0.5267398316338154,-0.5065761156913072,-0.9621106948723476
48,2.45,-0.23,-9.58,1.41,-0.11900000000000001,-0.272,0.133,1.3,-0.217,-1.06,0.0,0.0,0.0,1,60,2450000000.0,-0.4750401231210261,-9.651352293036902,1.5010775160630931,-0.10199495960028919,-0.22805767395784,0.1309982206503107,0.9896970636898962,-0.35189675071780474,-1.0251410970077162
49,2.5,-0.0718,-10.2,1.82,-0.133,-0.155,0.074,1.42,-0.85,-0.578,0.0,0.0,0.0,1,60,2500000000.0,-0.2069890613738825,-10.05637148042028,1.674396122074688,-0.1263998855048162,-0.1714327464406664,0.08752801585819596,1.2473229662075886,-0.6179625340071141,-0.7372291640105718
50,2.55,-0.555,-10.2,2.26,0.0272,0.0263,-0.0421,0.903,-0.77,-0.145,0.0,0.0,0.0,1,60,2550000000.0,-0.43832691291744585,-10.162399899967115,1.9926428264101508,-0.005497166894443087,-0.018175709737702855,-0.011333956938722883,1.0411739557650928,-0.6991745327763779,-0.3558957343957777
51,2.6,-1.69,-9.34,1.98,0.0553,0.147,0.0233,-0.223,0.0448,-0.439,0.0,0.0,0.0,1,60,2600000000.0,-1.2703679149323284,-9.555293028003685,1.9857720866735549,0.042357965597904716,0.10984729223684228,0.015079941402147745,0.28430254599344507,-0.30177468205078034,-0.4094061663727398
52,2.65,-1.65,-9.82,1.64,0.0675,-0.0122,0.0624,-0.17,-0.43700000000000006,-0.804,0.0,0.0,0.0,1,60,2650000000.0,-1.5227256826586555,-9.75070315184359,1.7978620718534435,0.06214795839489455,0.015251902024974104,0.05116900831312278,0.012307851825899219,-0.37400635326184295,-0.6634831953388115
53,2.7,-0.6659999999999999,-9.78,1.07,0.0608,-0.129,0.0428,0.784,-0.391,-1.38,0.0,0.0,0.0,1,60,2700000000.0,-0.9532232597983628,-9.772330293369691,1.4023051068305703,0.061086943865822835,-0.09655364559775091,0.04478631023999615,0.4743263134922081,-0.38308364480372925,-1.1248448157366833
54,2.75,-0.10800000000000001,-9.85,0.8740000000000001,0.0125,-0.0727,-0.0873,1.29,-0.451,-1.56,0.0,0.0,0.0,1,60,2750000000.0,-0.3913669885514258,-9.829667427022521,1.115197449058811,0.022842816620999122,-0.07806536328212668,-0.055950503977353926,0.9626768754905766,-0.4193617030912239,-1.4050390478425692
55,2.8,-0.47600000000000003,-10.1,1.22,0.138,0.308,-0.0329,0.9129999999999999,-0.674,-1.23,0.0,0.0,0.0,1,60,2800000000.0,-0.44762620054692337,-10.029230954231869,1.1721524613948346,0.11348621808982437,0.2211629352750115,-0.03837083125758914,0.9329349116949402,-0.5553787665704647,-1.2923322837334037
56,2.85,-1.31,-9.71,2.04,0.157,0.371,-0.0628,0.0454,-0.311,-0.41600000000000004,0.0,0.0,0.0,1,60,2850000000.0,-1.0208831373633664,-9.79357027520572,1.6437846035229111,0.14773712351516072,0.33729738288640165,-0.05700195466219535,0.40156041743610627,-0.42484191960259987,-0.7280662699696067
57,2.9,-1.46,-9.62,2.46,0.217,0.321,-0.0726,-0.106,-0.23,-0.0287,0.0,0.0,0.0,1,60,2900000000.0,-1.3127830377427996,-9.665438212106663,2.087357274604528,0.20225584362639887,0.32466575178992135,-0.06889794390008903,0.09767979681056926,-0.32076557711762604,-0.27774779067794053
58,2.95,-1.25,-9.71,2.29,0.133,-0.0421,0.0196,0.155,-0.33399999999999996,-0.237,0.0,0.0,0.0,1,60,2950000000.0,-1.2710484508254254,-9.698334368632153,2.1974835405938182,0.14774265458091573,0.040396031876086314,-0.0014041910145058956,0.1319978774299836,-0.3278348436671813,-0.25151049220474214
59,3.0,-0.912,-9.51,1.81,0.0699,0.0941,0.134,0.5589999999999999,-0.149,-0.7,0.0,0.0,0.0,1,60,3000000000.0,-1.032373495019544,-9.559303500940246,1.9869053927277975,0.0864705469990418,0.08202045133643612,0.10186303539249726,0.38764759028053114,-0.23230880663750383,-0.5402906583905976
60,3.05,-0.47200000000000003,-9.96,1.97,0.0162,0.0898,0.0868,1.02,-0.601,-0.5489999999999999,0.0,0.0,0.0,1,60,3050000000.0,-0.6598691203428904,-9.855103228609641,1.9777181644555328,0.031158656161694935,0.08805015873491094,0.09037507719129602,0.7662421985206801,-0.4292481149392242,-0.5458985763037861
61,3.1,-1.14,-9.52,1.99,0.165,0.17800000000000002,0.0606,1.05,-0.618,-0.593,0.0,0.0,0.0,1,60,3100000000.0,-0.9790327679165541,-9.60772572680119,1.9843927390805427,0.13650888499841665,0.15776772876556516,0.06766684786832743,0.9361303134744429,-0.5300714042382053,-0.5762269464729778
62,3.15,-1.67,-9.74,2.05,0.127,0.309,0.147,-0.0633,-0.401,-0.478,0.0,0.0,0.0,1,60,3150000000.0,-1.4383483928075644,-9.705372256415457,2.0200470107136232,0.1290241817985946,0.27498355633290417,0.12817098963171064,0.3377631165193614,-0.4611268942109601,-0.5129790923848219
63,3.2,-0.919,-10.1,1.7,-0.0174,0.145,0.128,0.725,-0.792,-0.785,0.0,0.0,0.0,1,60,3200000000.0,-1.0931151867466742,-9.996692198273385,1.8461173345024373,0.013769658140900295,0.17423698977263424,0.12804058748822816,0.569605056856017,-0.6378653652656805,-0.6881320250695849
64,3.25,-1.57,-9.78,2.11,0.0388,0.195,0.0496,0.0467,-0.392,-0.231,0.0,0.0,0.0,1,60,3250000000.0,-1.4101210786708105,-9.836726822302767,1.989524439157568,0.03347173343753025,0.1903298038418651,0.0682171691718352,0.2565374733586009,-0.5065344400329537,-0.3937869811104115
65,3.3,-2.03,-8.74,2.63,-0.0907,0.184,-0.028,-0.449,0.685,0.414,0.0,0.0,0.0,1,60,3300000000.0,-1.822181253783827,-9.027107739169303,2.337591253379342,-0.06426727285137593,0.1854237529108131,-0.005163720762064422,-0.16587364999167187,0.12993305946679545,0.12634306006531554
66,3.35,-2.02,-9.55,2.47,-0.285,-0.00855,-0.0751,-0.43799999999999994,-0.11199999999999999,0.309,0.0,0.0,0.0,1,60,3350000000.0,-1.9536798744087525,-9.413114181480227,2.4095488660540667,-0.23801210485958704,0.03508020507600987,-0.05850125088687237,-0.3287979434079594,0.0007026099523863572,0.24395495009770646
67,3.4,-1.3,-9.38,1.68,-0.0131,-0.0959,0.18100000000000002,0.34700000000000003,0.0368,-0.524,0.0,0.0,0.0,1,60,3400000000.0,-1.5191507005183205,-9.388668919036643,2.0130751549001857,-0.060977566319373344,-0.06643883172376827,0.12415652738573353,0.07580787844373682,0.019984315360074074,-0.2505274335153148
68,3.45,-1.17,-10.2,1.56,0.132,-0.179,0.106,0.484,-0.802,-0.659,0.0,0.0,0.0,1,60,3450000000.0,-1.287055176424804,-9.987604607506395,1.7668512126467664,0.0909204131673512,-0.1536818007899507,0.11030928755291465,0.3201958773513308,-0.4190850681171659,-0.5135408837650294
69,3.5,-1.92,-9.69,1.47,-0.0266,-0.217,0.0215,0.467,-0.797,-0.654,0.0,0.0,0.0,1,60,3500000000.0,-1.707800809513838,-9.767908458920422,1.6055272937019167,-0.0015831541739958904,-0.20275793329310293,0.04257808636498074,0.4080887247775611,-0.6209512982404101,-0.6039818032461899
70,3.55,-0.991,-9.71,1.61,-0.0565,0.014,-0.0708,0.619,-0.276,-0.5379999999999999,0.0,0.0,0.0,1,60,3550000000.0,-1.2313124632672503,-9.725159661503904,1.607957995868038,-0.04480972170401909,-0.03475501421136573,-0.043890729912703236,0.5343630608550031,-0.43669284391028407,-0.5614964387901954
71,3.6,-1.52,-10.0,2.19,-0.141,0.00367,-0.0586,0.6,-0.263,-0.49,0.0,0.0,0.0,1,60,3600000000.0,-1.423215479286785,-9.928050601980804,1.9242690344541402,-0.12052375235858434,-0.004972876860047409,-0.055108887804727814,0.5736604536626685,-0.34391345052864963,-0.5154602419306538
72,3.65,-2.2,-8.86,2.48,0.029,0.11199999999999999,0.0263,-0.596,0.583,0.371,0.0,0.0,0.0,1,60,3650000000.0,-1.9395776091130807,-9.139600616961745,2.2262813057167614,-0.00282947183075416,0.08568948095512259,0.006978332546552904,-0.1266249469087819,0.15120466594417903,0.055327114285823376
73,3.7,-0.733,-8.98,3.27,-0.0296,-0.16399999999999998,0.0825,0.902,0.457,1.18,0.0,0.0,0.0,1,60,3700000000.0,-1.1375135369300287,-9.021780895412306,2.7934907224730035,-0.02390129501045435,-0.10783774872720102,0.0645756138374895,0.48922132544299324,0.31454764341435204,0.7794983840297873
74,3.75,-2.16,-9.67,0.97,-0.146,-0.36,0.016,-0.589,-0.212,-1.09,0.0,0.0,0.0,1,60,3750000000.0,-1.8172043464406695,-9.500305263283105,1.8025138265978016,-0.12000856116784336,-0.303281560039107,0.02752898572135943,-0.15631869509914975,0.033288077221498236,-0.42426239215273
75,3.8,1.32,-10.8,1.54,-0.247,-0.365,0.008020000000000001,2.83,-1.32,-0.381,0.0,0.0,0.0,1,60,3800000000.0,0.2682304201842445,-10.459758040872694,1.6598505403608408,-0.21996703036523285,-0.3511177776049438,0.012650282027550853,1.6316149701975768,-0.6895814272879668,-0.3964059598415809
76,3.85,-1.12,-9.49,1.03,-0.397,-0.40700000000000003,-0.142,0.254,0.0552,-0.757,0.0,0.0,0.0,1,60,3850000000.0,-0.6545860827202034,-9.743869068888541,1.3175579452821229,-0.3593145889854388,-0.3944305053423073,-0.10529514975569304,0.8068254942758666,-0.29175056699634644,-0.6285906959396681
77,3.9,-2.84,-10.1,3.04,-0.22,0.249,-0.22699999999999998,-1.54,-0.564,1.4,0.0,0.0,0.0,1,60,3900000000.0,-2.10732470095479,-10.006770131149805,2.2536198888123433,-0.24965622173045973,0.10427420606310345,-0.19811444673652578,-0.5982383234847981,-0.43717474977478055,0.6776087954652175
78,3.95,-1.32,-9.65,1.38,-0.27699999999999997,-0.16399999999999998,-0.0836,-0.0776,-0.0421,-0.161,0.0,0.0,0.0,1,60,3950000000.0,-1.5839561263130573,-9.743397202576475,1.7788507368615236,-0.2711792737946535,-0.10365751629366257,-0.11077897384844797,-0.2865278529247971,-0.22614246364333573,0.13763274452177177
79,4.0,-1.68,-9.31,2.02,-0.298,-0.248,-0.17,-0.516,0.326,0.6,0.0,0.0,0.0,1,60,4000000000.0,-1.647800587322154,-9.423457701062507,1.909903409699655,-0.2922906154229405,-0.21553327333043543,-0.15594442333510716,-0.42391470971380696,0.06878878121138648,0.4353487467676095
80,4.05,-2.05,-10.1,1.23,-0.301,0.147,-0.155,-0.94,-0.45399999999999996,-0.0652,0.0,0.0,0.0,1,60,4050000000.0,-1.915159812997489,-9.922890868157564,1.5404095845842254,-0.2991460121672486,0.06545597175504553,-0.15522415129528658,-0.7328992415697968,-0.21046295845399104,0.11304788600152332
81,4.1,-1.8,-10.1,1.4,-0.21,0.0305,-0.289,-0.792,-0.376,0.19699999999999998,0.0,0.0,0.0,1,60,4100000000.0,-1.8386080979517536,-10.053635561312644,1.4641039152559212,-0.22897671512469198,0.0383625909699547,-0.2572495087064762,-0.7682833520607355,-0.2988858650544728,0.1671042346119043
82,4.15,-1.45,-9.64,1.36,-0.188,-0.0507,-0.132,-0.502,0.0525,0.223,0.0,0.0,0.0,1,60,4150000000.0,-1.5802836040471435,-9.748284320473854,1.407528600141923,-0.1967228042010477,-0.030667295249709098,-0.16172684407497206,-0.6088572905891687,-0.11119034079095358,0.20309524438534013
83,4.2,-2.11,-10.3,1.52,-0.17,0.147,-0.21100000000000002,-1.23,-0.5770000000000001,0.474,0.0,0.0,0.0,1,60,4200000000.0,-1.9324088178809666,-10.155568609256946,1.4686512262018392,-0.17568854729125313,0.10703757992739393,-0.19930545606139488,-0.9807405813465695,-0.360006247781264,0.3775294798875414
84,4.25,-1.75,-10.0,1.2,-0.195,0.122,-0.344,-1.0,-0.309,0.22,0.0,0.0,0.0,1,60,4250000000.0,-1.8111538270738077,-10.040725709508177,1.3226526138386772,-0.19088912022712853,0.11863452789529513,-0.30965806003097307,-0.9922713546430535,-0.33276085135374983,0.2760970268561431
85,4.3,-2.52,-11.5,1.98,-0.0675,0.0367,-0.257,-1.84,-1.78,0.966,0.0,0.0,0.0,1,60,4300000000.0,-2.282354369172537,-11.117982180780682,1.679888377828944,-0.0937661329666689,0.05512940136717147,-0.2694979164900465,-1.4998135285438439,-1.1058150167364673,0.7203221491621803
86,4.35,-1.89,-9.89,2.94,0.326,0.009770000000000001,-0.0372,-1.18,-0.18899999999999997,1.67,0.0,0.0,0.0,1,60,4350000000.0,-2.021539526368299,-10.211468998422887,2.3646966769347824,0.23664340461614725,0.019972617727762994,-0.09233382170972407,-1.3083384915263603,-0.6160910580822434,1.3318149883873787
87,4.4,-1.3,-9.84,1.76,0.8340000000000001,-0.304,0.134,-0.47700000000000004,-0.22899999999999998,-0.0328,0.0,0.0,0.0,1,60,4400000000.0,-1.5419011216297107,-9.937245556908675,2.0360739714159637,0.7068392964757613,-0.23112935073607122,0.08028170520614145,-0.8106092571749786,-0.40932332424248963,0.45314615266705693
88,4.45,0.0383,-9.85,1.94,1.36,0.187,0.604,1.3,-0.433,-0.495,0.0,0.0,0.0,1,60,4450000000.0,-0.49147343552075795,-9.87283996130455,1.9838625564718266,1.2209601633640337,0.09295084024758304,0.4797001510277664,0.45302993931656355,-0.42197040603649927,-0.15736046439183238
89,4.5,0.256,-10.6,4.17,1.42,0.308,0.977,1.93,-1.38,1.19,0.0,0.0,0.0,1,60,4500000000.0,0.005404331025548437,-10.409639844219063,3.171920044585703,1.3776298902774704,0.25962933585408254,0.8589703512209421,1.337304103406576,-0.9337094505620197,0.7101983054851002
90,4.55,-3.07,-9.08,3.93,1.21,0.413,0.601,-1.22,-0.0879,0.493,0.0,0.0,0.0,1,60,4550000000.0,-2.038949226681855,-9.428081258442742,3.5838989977686966,1.2456837971626047,0.3785025727055649,0.6622269515006683,-0.19377503906771176,-0.4819136750733166,0.5703453922648155
91,4.6,-6.4,-7.73,3.7,0.539,0.456,0.20800000000000002,-0.978,-0.19699999999999998,0.348,0.0,0.0,0.0,1,60,4600000000.0,-4.937927407315083,-8.174534193455772,3.646994169265797,0.6894334142344798,0.4385686280654982,0.31580668570343035,-0.6632970028522331,-0.3297247916768536,0.427178288439026
92,4.65,-4.27,-8.74,4.64,0.26,0.0189,0.8220000000000001,-1.72,-0.0314,0.937,0.0,0.0,0.0,1,60,4650000000.0,-4.493927304209069,-8.591968706478923,4.186643593707181,0.35141448861112085,0.11329539158269192,0.7018595890180477,-1.29595384732837,-0.17037225582643536,0.755449949641176
93,4.7,-2.56,-10.9,5.16,0.23199999999999998,-0.9840000000000001,1.27,0.304,-2.39,1.13,0.0,0.0,0.0,1,60,4700000000.0,-3.208362564762778,-10.295789058899661,4.7156145186061345,0.25742003646475636,-0.7371871272292079,1.1351569677498747,-0.33804824707913317,-1.3560039393358756,0.9966208698199595
94,4.75,-4.38,-8.88,6.74,0.688,-1.02,1.16,-1.18,-0.762,2.27,0.0,0.0,0.0,1,60,4750000000.0,-3.9872004628749895,-9.250634071717492,5.815767659141371,0.5963414536399709,-0.9563873389972894,1.1541037042329294,-0.8421316962940174,-1.0387120734649171,1.8165433757106841
95,4.8,-3.27,-8.15,4.66,0.84,-0.72,1.26,0.25,-0.473,-0.331,0.0,0.0,0.0,1,60,4800000000.0,-3.5104464393808943,-8.43813049036419,5.187665085174448,0.7881318142304045,-0.7731702474870517,1.2348664591690874,-0.18826341363805188,-0.7365325120600932,0.43375082716080215
96,4.85,-1.28,-7.15,6.28,0.986,-1.45,1.29,2.18,0.063,0.61,0.0,0.0,0.0,1,60,4850000000.0,-2.027772689756511,-7.487214810635889,5.781295134786655,0.9438793372458772,-1.2977618054536775,1.2769145207635255,1.229635526624916,-0.3094559280779668,0.5472368062569958
97,4.9,-2.28,-6.41,5.34,1.27,-1.16,0.24600000000000002,0.9259999999999999,0.42200000000000004,-0.919,0.0,0.0,0.0,1,60,4900000000.0,-2.195439017903616,-6.691999820797833,5.541473164158301,1.2005779161139576,-1.1909865162445241,0.4906782964762799,1.0478464240424543,0.08125700744348435,-0.396865833852169
98,4.95,-5.51,-2.26,7.37,1.28,-0.19399999999999998,-0.0922,0.92,0.14300000000000002,-1.21,0.0,0.0,0.0,1,60,4950000000.0,-4.3987704896814765,-3.420236226376225,6.535186891624666,1.2630932125698557,-0.4182505837032452,0.04614091958095429,0.9713037221838712,0.11423751638558224,-0.9204389226485556
99,5.0,-3.84,-3.1,6.3,0.386,0.007940000000000001,0.184,-0.7440000000000001,3.33,-0.433,0.0,0.0,0.0,1,60,5000000000.0,-4.027331642677643,-3.1838333429823225,6.407374565746986,0.5727088911015357,-0.087922365013271,0.151280387194332,-0.05566281893919589,1.831962313514043,-0.6065794123038558
100,5.05,-1.63,-5.42,6.83,0.354,-1.06,-0.0696,1.15,0.889,-0.147,0.0,0.0,0.0,1,60,5050000000.0,-2.4337221327334984,-4.834602564368631,6.637050520089938,0.40055707529762247,-0.84135209112264,-0.017176027049754655,0.6661774719044956,1.328271572105205,-0.3106585037519213
101,5.1,-1.87,-5.25,8.45,0.395,-0.493,-0.0225,0.821,0.912,1.31,0.0,0.0,0.0,1,60,5100000000.0,-2.058991775735028,-5.141254698651815,7.622298684510345,0.3961829560717247,-0.5713542781205503,-0.021236403576460342,0.7588709884562612,1.1059168361651548,0.7328754470432343
102,5.15,-5.21,-5.41,8.53,0.43200000000000005,0.24,-0.069,-2.48,0.627,1.3,0.0,0.0,0.0,1,60,5150000000.0,-4.153602564460007,-5.339646085734737,8.11558925649617,0.4243755508377523,0.057503378389763604,-0.05766373857131034,-1.1802678815390772,0.8500996254158337,1.0980441084887935
103,5.2,-3.76,-4.95,8.1,0.10400000000000001,-0.0519,0.158,-1.08,1.03,0.805,0.0,0.0,0.0,1,60,5200000000.0,-3.8919579957045944,-5.052003813429204,8.107117474854572,0.1721990951398113,-0.027292072954775273,0.10681415649154867,-1.1202366969584994,0.9461948109892325,0.909354462327324
104,5.25,-3.16,-5.09,7.76,-0.0308,-0.6779999999999999,0.344,-0.537,0.83,0.389,0.0,0.0,0.0,1,60,5250000000.0,-3.405394074815062,-5.080053236700798,7.918476440339538,0.01241289269969692,-0.5316372881367835,0.2877060817800928,-0.7710480611882071,0.8841284293600644,0.5743007990824529
105,5.3,-3.33,-6.29,8.54,0.0687,-0.293,0.508,-0.669,-0.537,1.05,0.0,0.0,0.0,1,60,5300000000.0,-3.355276338151685,-5.973252649626739,8.25624369746666,0.056718032217258435,-0.3466763125600656,0.4557152318062464,-0.709951060329218,0.12502149463190826,0.8806011289430873
106,5.35,-2.49,-5.5,8.36,0.47200000000000003,-0.395,0.395,0.0728,0.0282,0.6759999999999999,0.0,0.0,0.0,1,60,5350000000.0,-2.7800899272604993,-5.623890995906765,8.312629923474347,0.3835979576665155,-0.38413063874620335,0.4094102224869939,-0.24131152238901726,0.07330353159313197,0.7488594742623794
107,5.4,0.627,-4.73,7.02,0.49,-0.489,0.0764,3.08,0.537,-0.879,0.0,0.0,0.0,1,60,5400000000.0,-0.5152506531169236,-4.964008309231592,7.610149558593586,0.46734995568625,-0.46541189691460166,0.15543697942443285,1.7471851202714974,0.3209906496243831,-0.2993111878602247
108,5.45,-0.9670000000000001,-6.8,8.93,0.7929999999999999,-0.19899999999999998,-0.0286,1.4,-1.81,0.8240000000000001,0.0,0.0,0.0,1,60,5450000000.0,-0.8155478890997536,-6.319362918327451,8.327423082537887,0.7236780992643232,-0.25892360174441753,0.01507952228375406,1.539322501948635,-0.8172947456793567,0.4239833257642498
109,5.5,-4.44,-4.48,9.47,0.9209999999999999,0.115,-0.486,-2.03,0.115,1.15,0.0,0.0,0.0,1,60,5500000000.0,-3.22487721556496,-4.961519777287755,8.948357203778787,0.8789956280964654,0.030893965149035862,-0.367073282293752,-0.5976603947173516,-0.31930216923032695,0.8914618528715934
110,5.55,-2.13,-2.94,8.77,1.13,0.644,-0.38799999999999996,0.374,1.27,0.276,0.0,0.0,0.0,1,60,5550000000.0,-2.4970652908234787,-3.4692059508627557,8.851429144250252,1.0765681080415732,0.5060950373770481,-0.3830332404579905,-0.01591926936326693,0.529636081692489,0.4951690081451209
111,5.6,-4.79,-2.15,7.96,0.879,-0.23800000000000002,-0.321,-2.43,1.78,-0.7090000000000001,0.0,0.0,0.0,1,60,5600000000.0,-4.021277638049677,-2.4953499362447262,8.366981567176127,0.9210567920123627,-0.0706319000245017,-0.3357230392613346,-1.4612494163968939,1.1975277934301887,-0.2801894495406414
112,5.65,-3.07,-4.58,8.02,0.35,-0.54,0.0807,-0.868,-0.831,-0.7759999999999999,0.0,0.0,0.0,1,60,5650000000.0,-3.388922411523924,-4.034267399509284,8.178414516140348,0.47156219136962224,-0.43442580214132653,-0.018134261810444474,-1.1060660649553924,0.1139737243470571,-0.5994394232526856
113,5.7,0.8,-5.14,7.6,0.5760000000000001,-0.5489999999999999,0.772,3.04,-1.76,-1.33,0.0,0.0,0.0,1,60,5700000000.0,-0.6043654156106939,-4.850534405176111,7.8640748169195,0.5537680596886796,-0.5232290285174708,0.5844687492932135,1.3762179690368135,-0.8870240831305221,-1.0698437896776696
114,5.75,0.177,-4.31,8.24,0.45799999999999996,0.10800000000000001,0.721,2.66,-1.23,-0.7290000000000001,0.0,0.0,0.0,1,60,5750000000.0,-0.08495819880154831,-4.45150438638077,8.068371414345323,0.4783863744204483,-0.03398133156748029,0.6885955473645698,2.1448289441242596,-1.0702273784506109,-0.8503761430133662
115,5.8,-2.11,-2.9,8.39,0.6509999999999999,0.7929999999999999,0.251,0.736,-0.0977,-0.561,0.0,0.0,0.0,1,60,5800000000.0,-1.4310905575371384,-3.306162452659815,8.243160810712654,0.614255351480035,0.6069884011556247,0.3548593583930466,1.3013513997575006,-0.5507442255983611,-0.6640482703033612
116,5.85,-3.68,-1.79,8.49,0.426,0.914,-0.0763,-0.532,0.955,-0.385,0.0,0.0,0.0,1,60,5850000000.0,-2.9260374851827082,-2.1869103248286734,8.377305562636527,0.4660743565922462,0.8449443535193158,0.026031794625963944,0.20370874479027656,0.25356089342653254,-0.48437046431817327
117,5.9,-1.62,-1.59,8.31,0.16399999999999998,0.439,-0.555,1.56,1.21,-0.537,0.0,0.0,0.0,1,60,5900000000.0,-2.0578581695051743,-1.7462628890289054,8.340728550244467,0.22830327895748528,0.530308420977057,-0.4170973337656419,1.015731506715404,0.7644503895194915,-0.518258362112868
118,5.95,-3.39,-2.29,8.28,-0.179,0.0403,-0.47,-0.179,0.636,-0.515,0.0,0.0,0.0,1,60,5950000000.0,-2.9433902397587337,-2.1476571191521128,8.307725445246898,-0.09229640161630984,0.15051680916908855,-0.457444026972476,0.30043586560034696,0.6958375911135248,-0.5161603096676335
119,6.0,-2.62,-2.82,8.93,-0.316,0.318,-0.151,0.738,0.285,0.259,0.0,0.0,0.0,1,60,6000000000.0,-2.728418754930673,-2.6439898868243574,8.645901017597753,-0.2683797028080859,0.2803282656198517,-0.22373172891698054,0.5624091186259574,0.47638545671926913,-0.017038421486039623
120,6.05,-3.15,-3.31,8.1,-0.628,0.525,0.0496,0.445,0.0995,-0.359,0.0,0.0,0.0,1,60,6050000000.0,-3.008662013743343,-3.1356477248230497,8.349231053957586,-0.5514468020421743,0.4699663604323822,-0.015272826913228371,0.49211530360214356,0.2750691242716454,-0.23722578735191482
121,6.1,-3.79,-3.71,7.71,-0.9940000000000001,0.71,0.0331,0.7,0.5489999999999999,-0.0478,0.0,0.0,0.0,1,60,6100000000.0,-3.5280509710093724,-3.559642549065447,8.001840650525768,-0.8997926786971757,0.6560096015131893,0.02161914566583291,0.616577584195831,0.4213914705552083,-0.11525546109905624
122,6.15,-4.56,-3.84,8.46,-1.05,0.414,-0.299,-0.631,0.489,0.586,0.0,0.0,0.0,1,60,6150000000.0,-4.214031860195901,-3.7666062349159373,8.25082759040379,-1.0180249783716273,0.46843483532023805,-0.22290392503531936,-0.13035742711292675,0.45750509467267325,0.3362794750721758
123,6.2,-4.82,-5.17,7.32,-1.01,0.406,-0.369,-0.8390000000000001,-0.415,-0.278,0.0,0.0,0.0,1,60,6200000000.0,-4.616845073338503,-4.802610985509404,7.744968981349491,-1.0117082884244262,0.4200433583919721,-0.3343254010616007,-0.5546275906772935,-0.008550363589606202,-0.05925203614833047
124,6.25,-4.65,-5.0,6.22,-0.9390000000000001,0.235,-0.345,-0.6729999999999999,0.18100000000000002,-1.1,0.0,0.0,0.0,1,60,6250000000.0,-4.638884643234474,-4.9483262870148055,6.916223739903998,-0.954477591811786,0.27662150557949783,-0.34246647902114213,-0.625498118396663,0.0926994517799888,-0.7293845132932304
125,6.3,-3.01,-5.45,5.73,-1.11,0.102,-0.33,0.94,0.183,-1.25,0.0,0.0,0.0,1,60,6300000000.0,-3.5560949190744036,-5.318668622127211,6.271569887466725,-1.0768935921777545,0.1412773339127239,-0.3329588166951224,0.31177855628621554,0.1409341993633127,-1.0646062479227492
126,6.35,-3.52,-7.36,6.73,-1.1,0.0996,-0.37,0.326,-1.28,0.0765,0.0,0.0,0.0,1,60,6350000000.0,-3.532101060421345,-6.825607787013883,6.520703963294104,-1.0950813036453433,0.10897441760398617,-0.36120861186166164,0.3202930553007177,-0.6180689703464506,-0.32985358475205306
127,6.4,-3.96,-6.91,6.52,-0.89,0.0489,-0.752,-0.32899999999999996,-0.38799999999999996,0.152,0.0,0.0,0.0,1,60,6400000000.0,-3.816543924605531,-6.8879071736202,6.520321383737359,-0.9336561259070435,0.06241244305487833,-0.659249158469253,-0.06844406674808706,-0.495175825362706,-0.01959045005089438
128,6.45,-4.93,-8.75,7.18,-0.7440000000000001,0.23199999999999998,-0.8009999999999999,-1.48,-1.9,1.07,0.0,0.0,0.0,1,60,6450000000.0,-4.556705978939094,-8.262529861347865,6.878823952194085,-0.7843725573614322,0.19385493743340418,-0.7673567116899616,-0.9135542943440618,-1.2455737011302024,0.6819914805892588
129,6.5,-5.14,-7.47,5.51,-0.652,0.128,-0.439,-1.77,-0.364,-0.344,0.0,0.0,0.0,1,60,6500000000.0,-4.944446526758867,-7.67747319763912,6.134936040457701,-0.6801784640288524,0.1428126502459895,-0.5169325208647568,-1.426315412965617,-0.7746741669556256,0.021360637795701853
130,6.55,-2.79,-8.01,5.4,-0.687,0.0959,-0.228,0.534,-0.6940000000000001,-0.222,0.0,0.0,0.0,1,60,6550000000.0,-3.512293183203694,-7.9229492528353775,5.735534747111989,-0.6855478652785268,0.10645198656954269,-0.2965755357736578,-0.2526583682314638,-0.731581428846927,-0.13533807398781275
131,6.6,-3.4,-9.4,5.76,-0.593,-0.41200000000000003,-0.05,-0.183,-1.94,0.268,0.0,0.0,0.0,1,60,6600000000.0,-3.4376471354332465,-9.013328268766628,5.748830524963761,-0.6127008765918043,-0.29538542593287126,-0.10852248672288137,-0.2109533258323258,-1.3770677491496688,0.12436931946190308
132,6.65,-2.4,-7.82,4.44,-0.228,-0.107,-0.0555,0.789,-0.317,-1.02,0.0,0.0,0.0,1,60,6650000000.0,-2.747878495046784,-8.132396956994752,5.037545976862441,-0.3098921762124254,-0.14937323253782456,-0.06808441097935876,0.3877269886315819,-0.8108242193607123,-0.6124844079590827
133,6.7,-4.91,-8.79,6.99,0.0107,0.0177,0.0893,-1.71,-1.32,1.51,0.0,0.0,0.0,1,60,6700000000.0,-4.18513360009385,-8.617848593556557,6.09860793176206,-0.05754520664718865,-0.01987951463868956,0.05194622466182168,-0.8681995384851935,-1.082804497694887,0.7541727890135707
134,6.75,-2.89,-7.33,4.46,0.0718,-0.321,0.15,0.304,0.0552,-1.15,0.0,0.0,0.0,1,60,6750000000.0,-3.324202632624134,-7.667140887229077,5.208105682731398,0.04426598384620803,-0.25326945939795453,0.12672782269030836,-0.16639398209612444,-0.47493043977668137,-0.471914628041456
135,6.8,-2.82,-7.06,4.42,0.43799999999999994,-0.14400000000000002,0.255,0.41700000000000004,0.182,-1.34,0.0,0.0,0.0,1,60,6800000000.0,-2.9890374010928134,-7.218941041837208,4.779809311317065,0.3541849132508451,-0.1685777995759877,0.22455574853041518,0.18288881930351975,-0.12402587746315591,-1.0308705231579407
136,6.85,-4.19,-7.55,7.2,0.218,-0.27699999999999997,0.302,-0.92,-0.41200000000000003,1.33,0.0,0.0,0.0,1,60,6850000000.0,-3.7873689594033717,-7.463333485977213,6.095063003126542,0.2469899971404853,-0.2526127759838164,0.2836192927631045,-0.47741985189259595,-0.27784952155634524,0.48928234705549456
137,6.9,-5.5,-6.81,6.13,0.33299999999999996,-0.385,0.42,-2.13,0.1,0.0405,0.0,0.0,0.0,1,60,6900000000.0,-4.925828511392322,-6.981033625084111,6.114049593098014,0.31469085273467734,-0.35522234648211876,0.38763125550174776,-1.4668333282071881,-0.07601822523838092,0.2003136155205787
138,6.95,-3.96,-7.85,7.73,0.534,-0.33799999999999997,0.5710000000000001,-0.51,-1.18,1.42,0.0,0.0,0.0,1,60,6950000000.0,-4.2838007629252495,-7.622516555373846,6.992238630426819,0.48731513231742485,-0.3418737944230704,0.5274790621113568,-0.8939692922474005,-0.6657187502743047,0.9856636129042141
139,7.0,-5.14,-7.92,5.48,0.425,-0.447,0.579,-1.68,-1.48,-1.07,0.0,0.0,0.0,1,60,7000000000.0,-4.852953151704259,-7.84212300639965,6.170411828707847,0.43826517746869537,-0.42335412865888,0.5667719657703747,-1.3645723490402175,-1.1006734981964477,-0.3379680448373529
140,7.05,-1.34,-5.33,4.32,0.508,-0.643,0.609,2.17,0.851,-2.44,0.0,0.0,0.0,1,60,7050000000.0,-2.5177420417538268,-5.987638989859734,5.164804722423819,0.4931553978518304,-0.5935954113511038,0.5989775765281872,0.7516054063705067,-0.05817173408675891,-1.6914560516870734
141,7.1,-3.3,-5.8,7.97,0.377,-0.47600000000000003,0.637,0.21,0.153,1.01,0.0,0.0,0.0,1,60,7100000000.0,-3.037742537650772,-5.849121432238032,6.689289333141658,0.40172627463081967,-0.5024505559101234,0.6279757382417961,0.427341764513504,0.054627308016989465,0.047998120534063604
142,7.15,-4.92,-7.13,8.13,0.598,-0.40399999999999997,0.37200000000000005,-1.41,-1.5,0.904,0.0,0.0,0.0,1,60,7150000000.0,-4.288960122393964,-6.794683797249622,7.472244301165926,0.5562187447557096,-0.42614433666077106,0.4327535464095761,-0.6726899317242447,-0.7757891030943563,0.5991734830284122
143,7.2,-3.32,-5.09,8.41,0.9209999999999999,-0.428,0.507,-1.48,-1.93,0.562,0.0,0.0,0.0,1,60,7200000000.0,-3.6448505875977992,-5.536262745327074,7.981868004449125,0.8433481633087094,-0.42758261102139417,0.48937829406419764,-1.1560331605465084,-1.3923199090143328,0.5752376462858398
144,7.25,-3.43,-5.69,7.79,0.9209999999999999,-0.8959999999999999,0.355,-0.307,-0.861,-0.155,0.0,0.0,0.0,1,60,7250000000.0,-3.5020302007761472,-5.649753756024844,7.877597224285856,0.904470074756603,-0.7906396488467691,0.3868934715546429,-0.6477099893013969,-1.108511199021605,0.1050412400517558
145,7.3,-1.11,-4.86,8.88,0.868,-0.9540000000000001,0.18899999999999997,1.76,-0.426,0.612,0.0,0.0,0.0,1,60,7300000000.0,-1.9119448000787689,-5.066746705120426,8.422353557754125,0.8757634472883672,-0.9172556150695768,0.2359682326081632,0.7938058965066761,-0.7439424703597413,0.43146946855908536
146,7.35,-4.3,-3.91,4.91,1.24,-0.586,-0.0824,-1.66,-0.00788,-3.69,0.0,0.0,0.0,1,60,7350000000.0,-3.499387982951376,-4.212820346401064,6.513563242122048,1.1624641199158716,-0.6605088141952984,-0.006838164036510941,-0.6753079760594294,-0.3507689093990682,-2.2223243561196107
147,7.4,0.247,-1.92,9.38,1.45,-0.727,-0.0842,2.72,1.46,0.511,0.0,0.0,0.0,1,60,7400000000.0,-1.0090026771704443,-2.5202286123109703,8.07132974102064,1.3887916016676902,-0.7120442426613953,-0.06583886560695139,1.35749101845279,0.6164675742383461,-0.46235034872548186
148,7.45,-2.41,-1.84,6.0,1.3,0.00428,0.0978,0.126,0.9059999999999999,-3.06,0.0,0.0,0.0,1,60,7450000000.0,-1.9403059435443741,-2.018074463927787,6.945664595594299,1.3189012385596766,-0.15684166388230902,0.05896178787025114,0.6201871578018217,0.7711236076866641,-2.134964062902079
149,7.5,0.754,-3.86,11.4,1.11,0.11800000000000001,0.276,3.34,-1.47,2.29,0.0,0.0,0.0,1,60,7500000000.0,-0.14928483396041003,-3.3778093014807875,9.36637510926664,1.1544693069139702,0.056180305575128514,0.22448792673301218,2.2485615582395395,-0.425990219732439,0.7142483672442785
150,7.55,-2.17,-3.1,7.94,0.337,0.28800000000000003,0.267,0.619,-0.895,-1.2,0.0,0.0,0.0,1,60,7550000000.0,-1.492541212568879,-3.172726561049452,8.59121090020985,0.5110166146762563,0.23585715805206,0.25691013386917494,1.2729295812098824,-0.676515474665576,-0.5183267108102041
151,7.6,-0.63,-2.76,8.28,-0.165,0.373,0.23,2.34,-0.47100000000000003,-0.784,0.0,0.0,0.0,1,60,7600000000.0,-0.919172947843464,-2.868046096295812,8.422083041477233,-0.021094765956211736,0.3421526772125723,0.23638688147409248,1.9117934182845957,-0.5667377590029469,-0.6893924133249454
152,7.65,-1.97,-2.65,8.97,-0.4,0.14400000000000002,0.209,1.13,-0.214,-0.00835,0.0,0.0,0.0,1,60,7650000000.0,-1.6177029284578677,-2.7070815215988766,8.719848921610929,-0.31934156056885116,0.1885701593094321,0.21550003486758942,1.4437272274964172,-0.37832010990002035,-0.2508725746871448
153,7.7,-1.94,-2.04,6.65,-0.301,0.33799999999999997,-0.0512,1.28,0.611,-2.23,0.0,0.0,0.0,1,60,7700000000.0,-1.8319476992933654,-2.2146326846769466,7.594988580033517,-0.3049044101820622,0.3043889850491492,0.012098856037136424,1.3457023646179704,0.15013301327282907,-1.5252229386319542
154,7.75,-2.4,-3.58,7.17,-0.7709999999999999,0.142,-0.159,0.8340000000000001,-0.541,-1.57,0.0,0.0,0.0,1,60,7750000000.0,-2.2095565718473975,-3.2225656712930926,7.364028372977927,-0.671781162515195,0.17852589775617206,-0.11839122080491873,1.039341920056832,-0.2190411293981821,-1.554054700555592
155,7.8,-2.69,-3.19,6.73,-0.8340000000000001,0.107,-0.503,0.591,0.35100000000000003,-1.81,0.0,0.0,0.0,1,60,7800000000.0,-2.5289280314019784,-3.1985252844177205,7.019465358664913,-0.7994680895822791,0.12308820615115693,-0.41171658074564776,0.7709159153010803,0.08545083181141205,-1.7188565749892841
156,7.85,-2.39,-3.51,2.18,-1.16,0.353,-0.348,0.9940000000000001,0.5479999999999999,-6.08,0.0,0.0,0.0,1,60,7850000000.0,-2.436576660201592,-3.4284602218804836,4.389455614819527,-1.0832527020130518,0.30128629722299505,-0.3631225498495834,0.9044782131275437,0.3325250984309016,-4.526975187773175
157,7.9,-7.27,-0.91,7.74,-1.38,0.37,-0.0598,-3.44,3.74,0.00617,0.0,0.0,0.0,1,60,7900000000.0,-5.649561137213339,-1.5692980608746956,6.210310450370166,-1.3168307042898855,0.3545443406549158,-0.13179087890030333,-1.6965968726960314,2.152654638186511,-1.6081054423332026
158,7.95,-7.72,-9.2,8.49,-0.81,1.49,-0.5660000000000001,-3.43,-4.08,1.31,0.0,0.0,0.0,1,60,7950000000.0,-7.02587080661484,-7.20238766737598,7.449208709757009,-0.9178902403022338,1.2346037856847873,-0.46294435797324973,-2.734399706820544,-1.176566845504949,0.2708481693180005
159,8.0,-6.18,-11.0,7.36,-1.34,0.6679999999999999,-0.0647,-1.81,-5.27,0.66,0.0,0.0,0.0,1,60,8000000000.0,-6.463583967160313,-10.00583763381423,7.400728266030107,-1.2501445336401091,0.7954452681357448,-0.15921971725537065,-2.1809539197857655,-3.3631063691011027,0.5214211235192038
160,8.05,-3.88,-4.11,4.78,-1.49,0.66,-0.542,0.473,2.22,-1.32,0.0,0.0,0.0,1,60,8050000000.0,-4.746164601417561,-5.653448818255439,5.97649234158665,-1.438941412922268,0.6904655074160914,-0.45115053866172217,-0.5920097557079134,-0.38084614909114256,-0.6642608558958697
161,8.1,-4.01,-5.43,5.96,-1.4,0.138,-1.04,0.0423,1.51,0.335,0.0,0.0,0.0,1,60,8100000000.0,-4.256804463780862,-5.488495682333291,5.967529591338738,-1.4082895309573182,0.2622651784891327,-0.9002418463215516,-0.212243256339277,0.6291641968453177,-0.020841732164021742
162,8.15,-1.95,-7.82,6.84,-1.21,-0.047,-0.618,2.0,-0.532,1.6,0.0,0.0,0.0,1,60,8150000000.0,-2.723372300154305,-7.209644554272286,6.441674138080387,-1.2522103866430623,0.02256252219790361,-0.6849875420604099,1.1122450849004606,0.008919200222341273,1.0228102506942536
163,8.2,-7.15,-10.7,5.47,-1.01,0.583,-0.0549,-3.07,-3.3,0.56,0.0,0.0,0.0,1,60,8200000000.0,-5.665942285808981,-9.786273094896954,5.913617245707344,-1.0615598844708736,0.4569416996350732,-0.20444561354568952,-1.391699610541834,-1.7585660054850403,0.7248090229086455
164,8.25,-2.71,-8.5,5.33,-0.19899999999999998,0.337,0.2,1.56,-1.09,0.541,0.0,0.0,0.0,1,60,8250000000.0,-3.7010002713245527,-8.836728499799312,5.5964501309628805,-0.38261514246210926,0.3639783038822826,0.10400847276136838,0.37550733381832546,-1.4014462300348267,0.6064553085146924
165,8.3,-4.64,-11.0,7.04,-0.248,-0.0202,0.263,-0.34700000000000003,-3.6,2.26,0.0,0.0,0.0,1,60,8300000000.0,-4.325193710007315,-10.433685451549042,6.380947981854761,-0.2766558372964534,0.06621261079476815,0.22526479942448485,-0.05706378653644689,-2.5758209773972127,1.6711645434945173
166,8.35,-2.76,-6.78,2.6,0.0968,-0.149,0.11199999999999999,1.58,0.522,-2.31,0.0,0.0,0.0,1,60,8350000000.0,-3.2847420899623545,-7.736484454928,4.326189928171528,0.017301581306044256,-0.10059257541568253,0.13888238427808336,0.9230598729033097,-0.9210955153363742,-0.8922875608142979
167,8.4,-4.93,-7.41,6.29,0.27899999999999997,-0.0208,0.145,-0.5479999999999999,-0.171,1.33,0.0,0.0,0.0,1,60,8400000000.0,-4.378415708703776,-7.495469000527841,5.393423436856887,0.22329165609397741,-0.03874761615175087,0.14354803573728223,0.04232416886587409,-0.5204260947901136,0.5386324259887774
168,8.45,-4.66,-9.14,6.37,0.33399999999999996,-0.0434,0.10099999999999999,-0.247,-2.07,1.2,0.0,0.0,0.0,1,60,8450000000.0,-4.565596803056361,-8.709484790965156,5.924144378278132,0.3104332489275883,-0.04235354736239592,0.111098396363011,-0.13089660120594143,-1.3481431553641248,0.9644837635561693
169,8.5,-1.83,-5.84,4.26,0.94,0.0886,0.268,2.72,0.89,-1.23,0.0,0.0,0.0,1,60,8500000000.0,-2.7471279162098297,-6.591191529684489,5.019764438743477,0.8059826501152232,0.059144830193617735,0.23076082036164247,1.5759587988279156,-0.1526213829321006,-0.44853348048098474
170,8.55,-8.42,-10.5,8.8,1.06,0.406,0.0294,-3.92,-3.95,3.07,0.0,0.0,0.0,1,60,8550000000.0,-6.518130160575357,-9.4767280234392,7.074135378936933,1.0059266870793548,0.32798241349165164,0.07719118029816743,-1.7145172521998047,-2.1810210811441233,1.817032766426959
171,8.6,-4.38,-5.5,5.61,0.6890000000000001,-0.0214,0.0343,0.20800000000000002,0.727,-0.41,0.0,0.0,0.0,1,60,8600000000.0,-5.096823109192979,-6.541052375856342,6.278450374602338,0.7564649340066703,0.057186025627793236,0.04447983555685241,-0.5634902642054662,-0.6276787362600371,0.3830573951563381
172,8.65,-5.58,-7.94,8.38,1.07,-0.115,0.0251,-1.11,-2.0,1.98,0.0,0.0,0.0,1,60,8650000000.0,-5.418011530249726,-7.57377490961197,7.420538592941936,1.0032570978568993,-0.0762704748281598,0.02969962985625037,-0.8906901733052527,-1.3607149391171354,1.411320845173221
173,8.7,-3.95,-4.43,6.33,0.9940000000000001,-0.505,0.17300000000000001,0.38799999999999996,1.12,-0.49700000000000005,0.0,0.0,0.0,1,60,8700000000.0,-4.442161125147576,-5.252996648394507,6.827884827881057,0.9959705939773433,-0.4085665513150243,0.13898894037064818,-0.12512778006252012,-0.03562152922498529,0.18256249425981408
174,8.75,-2.42,-4.24,6.12,1.06,-0.52,-0.00848,1.64,0.919,-1.17,0.0,0.0,0.0,1,60,8750000000.0,-3.097943656728101,-4.505188338102827,6.443184415019055,1.0463698654183393,-0.4949354381939263,0.026520426687809157,0.9316688176194499,0.47429708903868195,-0.6883457724199744
175,8.8,-4.09,-6.29,8.87,1.33,-1.14,-0.159,-0.48200000000000004,-1.59,1.06,0.0,0.0,0.0,1,60,8800000000.0,-3.757406300492172,-5.822760972812426,7.76203845137459,1.2696230231021608,-0.994906650844785,-0.1149683906929034,0.08529360408730058,-0.6283634644105087,0.43740537856599837
176,8.85,-4.49,-3.61,7.38,1.49,-0.8,-0.0567,-1.23,0.53,-0.89,0.0,0.0,0.0,1,60,8850000000.0,-4.244392705963573,-4.189270130219192,7.554419533156878,1.4430878445698438,-0.8438400498449548,-0.07052947755966182,-0.7021835705820761,-0.009614519142808864,-0.41730436427860595
177,8.9,-2.72,-3.37,8.74,1.31,-0.782,-0.14300000000000002,0.409,0.27,0.185,0.0,0.0,0.0,1,60,8900000000.0,-3.2310632944457582,-3.584473500461767,8.198723684518933,1.338330675969499,-0.7959095873684501,-0.12579977826089372,-0.036908767591372404,0.13974378248562236,-0.029483564238987403
178,8.95,-2.6,-2.37,7.79,1.25,-0.159,0.17800000000000002,0.457,0.7140000000000001,-1.0,0.0,0.0,0.0,1,60,8950000000.0,-2.8115683028140115,-2.6879322748895063,7.976602580571859,1.2688031577605265,-0.3022590483945256,0.1058958568277368,0.25879849050504644,0.44648725319416543,-0.6543942927696338
179,9.0,-2.94,-2.68,6.69,1.03,0.0342,0.433,0.154,-0.0393,-2.23,0.0,0.0,0.0,1,60,9000000000.0,-2.896942416745628,-2.6820766090988584,7.277397819556543,1.0808345646696436,-0.041479193357041644,0.35536477173733505,0.1960547666577947,0.18700016971179656,-1.6689190200397426
180,9.05,-2.84,-3.0,7.57,0.425,-0.102,0.5379999999999999,0.312,-0.607,-1.4,0.0,0.0,0.0,1,60,9050000000.0,-2.859090284887981,-2.9167720549438783,7.436412708741632,0.5646090483602815,-0.088387150477757,0.4946531614125611,0.2654721410220952,-0.23712126595967592,-1.4957633789443476
181,9.1,-1.64,-3.15,8.56,0.122,-0.0354,0.435,1.61,-0.802,-0.38299999999999995,0.0,0.0,0.0,1,60,9100000000.0,-2.048708502148629,-3.0889442212497755,8.0470269913996,0.21621922527508347,-0.04731831442540255,0.44915814326529974,1.0704521031181387,-0.5388556798173614,-0.7792605391284331
182,9.15,-1.69,-2.35,7.4,-0.147,0.311,0.29100000000000004,1.77,0.0547,-1.46,0.0,0.0,0.0,1,60,9150000000.0,-1.8102595625770839,-2.5434453029363193,7.695399913106445,-0.06968067318821092,0.2304040276679787,0.3285374196573102,1.4892772054847727,-0.22180324318780753,-1.2175853326057247
183,9.2,-2.9,-2.56,6.76,-0.324,0.496,0.184,0.799,0.00322,-1.95,0.0,0.0,0.0,1,60,9200000000.0,-2.5346569893062547,-2.5556661671130505,7.187056504173586,-0.2698624503344952,0.43625991732054825,0.2183046571162772,1.076002546187305,-0.10160530692336442,-1.6891835418901056
184,9.25,-3.03,-2.74,6.42,-0.529,0.44,-0.0445,0.905,0.11800000000000001,-2.09,0.0,0.0,0.0,1,60,9250000000.0,-2.8639327854912957,-2.691743959971666,6.770199318984962,-0.47383677082038483,0.43915874734907795,0.01787432157855906,0.9736218898140553,0.015698596391495553,-1.9472672197946477
185,9.3,-3.34,-2.43,8.07,-0.6809999999999999,0.64,-0.264,0.838,0.8640000000000001,-0.166,0.0,0.0,0.0,1,60,9300000000.0,-3.180395092423809,-2.4985209965997086,7.47657645929163,-0.6369006739671149,0.5948250878340263,-0.19709966335797102,0.892423941987818,0.46882547902331867,-0.8003180709066808
186,9.35,-3.64,-3.5,8.05,-0.897,0.813,-0.535,0.799,0.32,0.184,0.0,0.0,0.0,1,60,9350000000.0,-3.4859143223088354,-3.2378266530386335,7.788203862337513,-0.8416320592549376,0.7639262847763246,-0.454802413573375,0.8364902697935193,0.3893291743625481,-0.16652053759923913
187,9.4,-4.98,-5.39,6.16,-1.17,0.975,-0.58,-0.31,-1.02,-1.27,0.0,0.0,0.0,1,60,9400000000.0,-4.479097379635195,-4.826590695954577,6.903355606191852,-1.1000995140209495,0.9275235459933329,-0.5502854659375128,0.1500770580037305,-0.36347508500849435,-0.8770454884801804
188,9.45,-4.26,-4.7,7.0,-1.19,0.8909999999999999,-0.731,0.505,0.314,0.0559,0.0,0.0,0.0,1,60,9450000000.0,-4.333454075166166,-4.7331395519312265,6.955877048556255,-1.1708627181478914,0.8992151615992184,-0.6881090350925722,0.3625723570852612,-0.001596431185584335,-0.2763265068889791
189,9.5,-5.39,-6.4,6.34,-1.29,0.903,-0.961,-0.6809999999999999,-0.767,-0.163,0.0,0.0,0.0,1,60,9500000000.0,-5.035785528777038,-5.963639067221302,6.621178452801363,-1.2646389379057466,0.9021486801468245,-0.8962318026487456,-0.2622230439900802,-0.4104427814483616,-0.20335613172794903
190,9.55,-5.19,-8.41,6.26,-1.22,0.41100000000000003,-0.922,-0.635,-2.2,0.187,0.0,0.0,0.0,1,60,9550000000.0,-5.138298562115919,-7.769576442188417,6.4248959730485895,-1.2295024177239646,0.5214732958292951,-0.9158841431623352,-0.485407686127351,-1.3663488785829643,0.04799225321308209
191,9.6,-5.71,-7.65,6.55,-1.18,0.0696,-0.8290000000000001,-1.36,-0.943,0.87,0.0,0.0,0.0,1,60,9600000000.0,-5.518333135147478,-7.681303528546789,6.492883920407409,-1.1905376542510457,0.1712391369891721,-0.8496211671890228,-1.0090333492137944,-1.14021375337,0.577278975162784
192,9.65,-6.27,-8.05,5.73,-1.01,0.15,-0.564,-1.47,-0.5820000000000001,1.24,0.0,0.0,0.0,1,60,9650000000.0,-6.017998433863793,-7.953480505737837,6.078294296779778,-1.0484314655613405,0.15477728966364124,-0.631789623664835,-1.2850179141168772,-0.8420394931720689,1.0040017684542475
193,9.7,-3.21,-6.09,4.02,-0.897,-0.168,-0.324,0.968,1.22,-1.02,0.0,0.0,0.0,1,60,9700000000.0,-4.151401064205119,-6.577833526551094,4.959713259439239,-0.9292355821843056,-0.0953982197827607,-0.39705110019247025,0.06388254895552903,0.2594151451311837,-0.29924293833018667
194,9.75,-5.29,-8.95,5.95,-0.659,0.0464,0.0117,-1.09,-1.52,1.11,0.0,0.0,0.0,1,60,9750000000.0,-4.9082767485672205,-8.328999496950589,5.497884961919714,-0.7165256648152646,0.014505553221271061,-0.08531339829333101,-0.6269565000874444,-0.6910734480113779,0.6081616225389544
195,9.8,-2.95,-9.69,5.57,-0.363,-0.452,-0.00359,-1.16,-1.5,1.09,0.0,0.0,0.0,1,60,9800000000.0,-3.606525955365683,-9.33370858888297,5.537076007388554,-0.43825584012823376,-0.34706964746571417,-0.022986313782561045,-0.946094033799045,-1.123167931808858,0.9184149899801208
196,9.85,-3.84,-8.78,5.03,0.231,0.121,0.2,0.396,-1.47,0.043,0.0,0.0,0.0,1,60,9850000000.0,-3.761726142819992,-8.924953050518196,5.261505420957423,0.08853394757855931,0.01571784384396524,0.14707620583838102,-0.1425712328238592,-1.3084310257985015,0.3547396125367742
197,9.9,-3.47,-7.28,6.29,0.386,0.139,0.19,0.809,-0.0942,1.17,0.0,0.0,0.0,1,60,9900000000.0,-3.567803240914031,-7.710626104488373,5.820441274587844,0.32267771092189335,0.11127034108648196,0.17981242161757707,0.42714234651821437,-0.6598399677582232,0.8796817125168485
198,9.95,-5.44,-7.16,5.81,0.6579999999999999,0.11800000000000001,0.0068,-1.17,-0.16,0.435,0.0,0.0,0.0,1,60,9950000000.0,-4.812333030578963,-7.304146183233783,5.81476692778749,0.5866191533869098,0.11648630916031344,0.04786294257409959,-0.5290799650928714,-0.3928465134524154,0.593353360719945
199,10.0,-4.05,-6.08,6.17,0.7709999999999999,-0.16899999999999998,-0.134,0.14400000000000002,0.705,0.462,0.0,0.0,0.0,1,60,10000000000.0,-4.305577586620039,-6.400464477571837,6.007818553443548,0.731750439346905,-0.10478602183333066,-0.09083646847709692,-0.12610142477068176,0.19357683257517577,0.5087755899884397
200,10.1,-4.87,-6.23,6.12,0.929,-0.389,0.096,-0.799,0.27899999999999997,0.0174,0.0,0.0,0.0,1,60,10100000000.0,-4.680773377395187,-6.27462525581907,6.068783552414562,0.8870110400604585,-0.3250722042806594,0.05165604491781792,-0.5289713840373906,0.23920629722827338,0.19238128026368273
201,10.1,-3.66,-4.77,7.18,0.94,-0.45399999999999996,0.1,0.335,1.39,0.669,0.0,0.0,0.0,1,60,10100000000.0,-4.002221443762148,-5.1638900604008775,6.672674572789628,0.9287201141829823,-0.42500047457963486,0.08852599811712672,-0.011704563087398645,0.8539118023856473,0.4992737334790863
202,10.2,-7.39,-6.35,7.7,0.9470000000000001,-0.633,0.35200000000000004,-3.44,-0.611,0.8079999999999999,0.0,0.0,0.0,1,60,10200000000.0,-6.2542235469284915,-6.039492758032157,7.230974967369745,0.9431087389346432,-0.5862150126655827,0.2894668134143733,-2.064253440473413,0.07141763388209987,0.6980610662847484
203,10.2,-2.97,-9.53,9.5,1.0,-0.395,0.51,0.815,-4.21,2.18,0.0,0.0,0.0,1,60,10200000000.0,-4.0710588449774825,-8.616233300420244,8.464077714242482,0.9878894240843737,-0.4380096946617912,0.45765842397333256,-0.34042058470777414,-2.2155353093349643,1.6522742524808702
204,10.3,-1.0,-8.42,5.19,0.645,-0.899,0.58,2.42,-3.57,-2.62,0.0,0.0,0.0,1,60,10300000000.0,-2.0295938744682633,-8.471371219352896,6.684778634554278,0.717991659336658,-0.7953101809306939,0.5509633143240716,1.3122661042163435,-2.9390332474983727,-1.0986219154873926
205,10.3,-0.503,-2.89,3.58,0.991,-1.18,0.7829999999999999,2.72,1.45,-4.6,0.0,0.0,0.0,1,60,10300000000.0,-1.0148012464513558,-4.351125840681221,4.997485148708101,0.932884072830167,-1.093472294869688,0.7279281733608893,2.1550880520670073,-0.5945965722656723,-3.3531418694355857
206,10.4,-3.98,-1.97,9.1,1.28,-0.608,0.556,-0.605,1.7,0.654,0.0,0.0,0.0,1,60,10400000000.0,-2.98589647141094,-2.5933458217493732,7.226999027954031,1.2061085975248529,-0.7171964900850027,0.5968056015674476,0.5026004874445893,0.631080270190624,-0.7729630668398948
207,10.4,0.192,-2.29,5.88,1.97,0.099,0.423,3.66,0.45,-2.88,0.0,0.0,0.0,1,60,10400000000.0,-0.8734119319800726,-2.3694117109819413,6.494971819615041,1.8073886715368102,-0.08458576884495306,0.4642512026344567,2.3929617507070695,0.5343548124435107,-2.129673791089448
208,10.5,-0.807,-3.76,3.75,1.45,-0.599,0.434,2.58,-1.63,-5.2,0.0,0.0,0.0,1,60,10500000000.0,-0.82926505053972,-3.3959632186097943,5.003215562112733,1.5260782006285394,-0.48329361367753976,0.4411798398280923,2.504943052398941,-0.6217523410155064,-4.106641514815086
209,10.5,-6.45,-2.65,7.08,0.785,-0.45899999999999996,0.0697,-2.9,-0.8079999999999999,-1.87,0.0,0.0,0.0,1,60,10500000000.0,-4.565609320603897,-2.8452829201357854,6.131845023716551,0.9427550719474734,-0.46446431693758783,0.15786740159163737,-0.7310411296146642,-0.7212380088129573,-2.666479118792193
210,10.6,-4.5,-1.75,9.69,0.7020000000000001,0.0593,-0.5379999999999999,-0.93,0.0801,0.7390000000000001,0.0,0.0,0.0,1,60,10600000000.0,-4.521995981845894,-2.036729914523073,8.065525831344063,0.7532501129968758,-0.05850946706665666,-0.37284212016903784,-0.8501594557435653,-0.2931970051236659,-0.47370795829484624
211,10.6,-3.1,-1.98,5.89,-0.0767,0.00733,-0.6990000000000001,0.428,0.11,-3.02,0.0,0.0,0.0,1,60,10600000000.0,-3.576733996853284,-1.994851120806312,6.883235197886304,0.09997342178505719,-0.007479165859479393,-0.6215893608325385,-0.08491481249207977,-0.07782615209410382,-2.113252786473686
212,10.7,1.87,-0.385,5.96,-0.713,-0.0617,-0.522,5.21,2.23,-2.88,0.0,0.0,0.0,1,60,10700000000.0,0.04394448222471681,-0.8064367430247885,6.381502605644087,-0.5399404442985212,-0.04950419572765813,-0.5456366505378474,3.0851945176787194,1.1549173592587052,-2.606957595236882
213,10.7,-1.94,-0.867,6.65,-1.18,-0.066,-0.449,1.52,2.3,-1.96,0.0,0.0,0.0,1,60,10700000000.0,-1.2748688278276565,-0.8511453652886101,6.527417695757702,-1.043748982822155,-0.06228962490500427,-0.4719358407545598,2.148099598410721,1.7665722378584299,-2.1903848269329167
214,10.8,-7.93,-4.12,5.78,-1.19,0.9309999999999999,-0.239,-3.99,-0.444,-2.41,0.0,0.0,0.0,1,60,10800000000.0,-5.69882079277046,-3.264258998931071,6.12123330302031,-1.1588672486647156,0.7075809521408923,-0.29428522155620385,-1.526831422306922,0.5857776772907382,-2.3317940049512558
215,10.8,-5.48,-8.04,6.41,-1.45,0.9440000000000001,-0.0867,-1.18,-3.76,-1.3,0.0,0.0,0.0,1,60,10800000000.0,-5.553361208024088,-6.789777053316127,6.278163620656211,-1.3880259272648006,0.8908226468994498,-0.13596848558458074,-1.3191805487526977,-1.7355536641401106,-1.6674269222648952
216,10.9,-4.69,-4.12,6.73,-1.6,0.696,-0.0922,-0.193,0.878,-0.40399999999999997,0.0,0.0,0.0,1,60,10900000000.0,-4.979447898239541,-4.818910609933135,6.523714329005852,-1.554876601708648,0.7398211302101033,-0.10258805919608138,-0.6449269386286722,-0.33950339520887063,-0.8539125905593593
217,10.9,-7.89,-8.49,8.23,-1.72,1.04,-0.77,-3.39,-2.74,1.69,0.0,0.0,0.0,1,60,10900000000.0,-6.914217040725493,-7.5289594206828,7.4509958499786935,-1.6848498182001865,0.9724812183362572,-0.6115957628179693,-2.2884249554780247,-1.6217475530693113,0.7841001699312599
218,11.0,-1.98,-8.66,4.02,-1.74,-0.401,-0.595,2.23,-2.3,-2.14,0.0,0.0,0.0,1,60,11000000000.0,-3.6342306532726147,-8.363909112391763,5.586419492382081,-1.728260059209831,-0.09206506542438664,-0.5989388768919598,0.41679346135330997,-1.9840414098064372,-1.098713521535212
219,11.0,-2.26,-3.83,3.96,-1.44,-0.16699999999999998,-0.122,1.87,2.95,-1.8,0.0,0.0,0.0,1,60,11000000000.0,-2.720720394713717,-5.016914619651522,4.702541056603105,-1.5013626386109542,-0.15014500193489966,-0.2351971547370031,1.2868402424435361,0.6515156644031395,-1.550268382658628
220,11.1,-9.94,-9.09,5.35,-1.32,0.205,-0.0628,-5.63,-1.96,0.175,0.0,0.0,0.0,1,60,11100000000.0,-7.519685935205937,-8.023722713915491,5.054402879417243,-1.3586071307063035,0.12511780250561444,-0.10371691263462551,-2.8543293078118186,-0.7434460000994689,-0.439376613772394
221,11.1,-5.33,-12.2,7.05,-1.01,0.0709,0.008020000000000001,-1.06,-4.91,2.09,0.0,0.0,0.0,1,60,11100000000.0,-6.064107415047743,-11.106708247276917,6.13891119944449,-1.0842088084360688,0.08309512391456989,-0.018499751755379282,-1.7800494710356431,-2.969043527394237,1.1892764111142413
222,11.2,-2.56,-8.02,5.14,-0.239,-0.775,0.12,1.74,-0.7879999999999999,0.0995,0.0,0.0,0.0,1,60,11200000000.0,-3.734776386684595,-8.82805785040074,5.596052354416209,-0.41892157172239464,-0.5819900205336701,0.08712832729535126,0.32743327718619164,-1.804021956338785,0.48757477514665515
223,11.2,-3.51,-7.03,4.33,0.49,0.0568,0.237,0.816,0.0488,-0.888,0.0,0.0,0.0,1,60,11200000000.0,-3.5853578433591813,-7.500706822790773,4.908015551144857,0.29651574490523225,-0.08688201526885592,0.20142930879902188,0.6199422073050709,-0.8143225276109483,-0.3981510202776791
224,11.3,-8.58,-11.9,9.51,0.301,-0.0232,-0.0647,-4.34,-4.84,4.17,0.0,0.0,0.0,1,60,11300000000.0,-6.905511367585838,-10.748325631750696,7.408966340835165,0.3000454253704445,-0.03752389340511162,-0.0015366016404917138,-2.34961632115896,-2.9646699120839255,2.5432588565763856
225,11.3,-1.63,-4.84,0.524,0.326,-0.0421,0.192,2.75,1.93,-5.05,0.0,0.0,0.0,1,60,11300000000.0,-3.3986519383706018,-6.386718017415752,3.6673280607618652,0.3204749928844005,-0.04107070455069546,0.14606582919696326,0.7035661635501493,-0.3501434867151474,-2.3460030542292847
226,11.4,-4.36,-4.93,6.83,0.9059999999999999,0.20800000000000002,0.41200000000000003,2.79,1.74,-5.25,0.0,0.0,0.0,1,60,11400000000.0,-4.037701453184677,-5.311348495572939,5.386083607999186,0.7813579353847109,0.15197692892736903,0.34888291626187096,1.9527313413405665,0.7663231107223958,-4.215872311630738
227,11.4,-6.55,-7.13,7.84,0.384,-0.505,0.149,-2.16,-0.838,1.74,0.0,0.0,0.0,1,60,11400000000.0,-5.707734535276545,-6.653902282877346,6.7196657360998735,0.4685865164791552,-0.35722722859132783,0.1964404157840238,-0.5095949920448901,-0.09063870424306575,-0.38091560805071634
228,11.5,-4.68,-7.36,7.07,1.16,-0.445,0.541,-0.17600000000000002,-1.53,0.594,0.0,0.0,0.0,1,60,11500000000.0,-5.024555049275615,-7.1751534855515295,6.9100551538465025,1.012817167009815,-0.42525740565323256,0.4592218875875378,-0.3098689096367139,-0.8594848525081927,0.24682771407229942
229,11.5,-5.63,-6.97,7.23,0.985,-0.141,0.685,-1.03,-1.66,0.376,0.0,0.0,0.0,1,60,11500000000.0,-5.427020438085741,-7.023706189198894,7.083929344957514,0.9909215167165278,-0.20493756471825111,0.6314135970834586,-0.7410173345322799,-1.2870863005685746,0.3300011012352635
230,11.6,-5.03,-3.1,7.67,1.16,-0.45,0.9109999999999999,-0.484,1.63,0.37799999999999995,0.0,0.0,0.0,1,60,11600000000.0,-5.163104007458762,-4.127171922843052,7.402429766186859,1.1240078412066181,-0.3948784899443195,0.8446426915525238,-0.5871389282663102,0.271098301083889,0.36090734885545767
231,11.6,-2.33,-3.47,6.67,1.07,-1.2,0.447,1.82,0.7909999999999999,-1.12,0.0,0.0,0.0,1,60,11600000000.0,-3.2798178065946506,-3.6420385381096594,7.004390498435303,1.0814968168671961,-1.0189053460376873,0.5413769147860023,0.8540350956884346,0.5488078896429827,-0.5926415650419115
232,11.7,-2.92,-4.6,7.16,1.01,-1.39,0.228,0.634,-0.725,-1.12,0.0,0.0,0.0,1,60,11700000000.0,-3.040631477300329,-4.349218872910219,7.088956474086945,1.0252196872616202,-1.306530263135409,0.30237719286152154,0.7222982653706888,-0.1316066318995356,-0.9322050537404157
233,11.7,-2.44,-4.38,7.44,1.04,-1.15,-0.0909,0.782,-0.91,-1.14,0.0,0.0,0.0,1,60,11700000000.0,-2.641365925523104,-4.371942011287153,7.2797312784231485,1.0368536502026773,-1.1852080827430744,0.0024408079912364156,0.7580421909941204,-0.5473915892433658,-1.066003181755447
234,11.8,-1.41,-2.37,10.5,1.06,-0.28800000000000003,0.16399999999999998,1.78,0.6809999999999999,1.72,0.0,0.0,0.0,1,60,11800000000.0,-1.8228239835194633,-2.894080635872423,9.02978786622627,1.0550727372972195,-0.48980756652253865,0.12565538200716786,1.3698967695964341,0.1087634422338053,0.7278904935362644
235,11.8,-2.98,-2.89,5.55,0.789,0.0874,0.35600000000000004,0.287,-0.235,-3.31,0.0,0.0,0.0,1,60,11800000000.0,-2.5920486908739684,-2.8910683314547994,7.138695577919386,0.8456395065263305,-0.042430375337274395,0.3013297809562892,0.7215575142477811,-0.07486050545063394,-1.872087169187629
236,11.9,-1.75,-2.12,7.0,0.5660000000000001,0.036,0.309,1.62,0.341,-1.87,0.0,0.0,0.0,1,60,11900000000.0,-2.032302690339434,-2.3218549364492294,7.06332139929552,0.6255275043315676,0.01835878017148502,0.3071795313905083,1.2594624668604684,0.14727465128881684,-1.8707432543503921
237,11.9,-0.6579999999999999,-1.45,6.88,0.171,0.335,0.134,2.94,0.9640000000000001,-1.92,0.0,0.0,0.0,1,60,11900000000.0,-1.1187445469101616,-1.6782395948696316,6.963695358743466,0.2677563368203189,0.263778404359961,0.17510260705291092,2.2656142266493866,0.5835349165984856,-1.9024594014000296
238,12.0,-3.49,-1.91,7.81,-0.141,0.613,0.0129,0.43200000000000005,0.601,-0.818,0.0,0.0,0.0,1,60,12000000000.0,-2.695020094673654,-1.8493283078558431,7.423619992565665,-0.053987083817198744,0.534450127327516,0.05139733055675734,1.1678142248966912,0.5928640342015553,-1.2041813733332947
239,12.0,-5.52,-3.2,7.83,-0.381,0.82,-0.192,-1.22,-0.41100000000000003,-0.527,0.0,0.0,0.0,1,60,12000000000.0,-4.572905791852673,-2.846412873639621,7.644467361879296,-0.3113880046222105,0.7557717192354562,-0.1342318335472823,-0.26178992498751685,0.05664215303828035,-0.7681476458182401
240,12.1,-3.62,-3.32,7.46,-0.9279999999999999,0.845,-0.4,0.887,0.0359,-0.5760000000000001,0.0,0.0,0.0,1,60,12100000000.0,-3.939468229732638,-3.1960213934309856,7.544218505947147,-0.7967403401428717,0.8249300479852237,-0.3369223200838094,0.42600012252618913,0.04556256901513661,-0.6444247119200991
241,12.1,-3.91,-2.23,6.15,-1.26,0.773,-0.591,0.809,1.78,-1.45,0.0,0.0,0.0,1,60,12100000000.0,-3.9198794863843496,-2.4828910493313567,6.786529839183752,-1.1613848242885023,0.784680543945426,-0.5306969630315952,0.655305327171641,0.9720259570887806,-1.1631306826887655
242,12.2,-4.64,-4.73,7.08,-1.37,0.888,-0.7879999999999999,0.19399999999999998,-0.0439,-0.052,0.0,0.0,0.0,1,60,12200000000.0,-4.398574491831976,-4.141737981043792,6.946016297969064,-1.325591602967414,0.8647605292056175,-0.726931428445543,0.379118014469473,0.429361111064376,-0.4476791373505694
243,12.2,-3.94,-8.55,6.89,-1.26,0.78,-0.845,0.862,-3.19,0.237,0.0,0.0,0.0,1,60,12200000000.0,-4.093740331405022,-7.395978135480577,6.915574141298715,-1.2739626305556848,0.7990650278169147,-0.8169775080598527,0.6682234476263346,-1.5039491404560577,-0.006817628028125355
244,12.3,-4.04,-6.06,7.08,-1.42,0.503,-1.06,0.6579999999999999,0.00655,0.977,0.0,0.0,0.0,1,60,12300000000.0,-4.058016795165383,-6.409740549480838,7.00493141194467,-1.3889126495382043,0.569593448476865,-1.0023207532097818,0.6621025803778539,-0.6971041372989286,0.6266576711288055
245,12.3,-5.5,-7.09,7.45,-1.44,0.63,-1.03,-0.98,-0.402,1.88,0.0,0.0,0.0,1,60,12300000000.0,-5.016565083989876,-6.911917600339012,7.246804046838402,-1.4291249611603147,0.616412847481249,-1.0234305578523422,-0.32103783235043337,-0.5394719453126505,1.4336785890581716
246,12.4,-6.56,-12.8,7.44,-1.32,-0.0855,-1.02,-2.36,-5.62,2.19,0.0,0.0,0.0,1,60,12400000000.0,-6.042552652946748,-11.258581634112346,7.351796511734574,-1.3432297272114244,0.07238013037782598,-1.02081419751136,-1.5417812892906984,-3.253275927099039,1.9206702383052618
247,12.4,-3.53,-6.71,5.6,-0.527,-0.18600000000000003,-0.614,0.579,0.563,0.46399999999999997,0.0,0.0,0.0,1,60,12400000000.0,-4.372350763345644,-7.900755767315732,6.399781801841408,-0.7007527405666741,-0.12788297478831476,-0.7105537087091736,-0.2720519867453197,-1.2147820950067292,0.982727474380894
248,12.5,-5.74,-4.61,3.91,-0.0241,0.358,-0.155,-1.58,2.69,-1.15,0.0,0.0,0.0,1,60,12500000000.0,-5.281485912574529,-5.471474428648305,5.046708729056748,-0.1681406528424494,0.24871112913221358,-0.28685567801065914,-1.0551313096815376,0.8709880212793681,-0.39052517314237534
249,12.5,-5.34,-8.47,6.24,-0.007640000000000001,0.0342,0.0331,-1.16,-1.19,1.17,0.0,0.0,0.0,1,60,12500000000.0,-5.320382845942839,-7.685027689142284,5.6952033206209745,-0.041806149649036145,0.08244964565606117,-0.042838601909664376,-1.1179170422542553,-0.22990498031995243,0.6142892329690266
250,12.6,-6.6,-8.69,6.81,0.0174,-0.153,0.14800000000000002,-2.41,-1.53,1.58,0.0,0.0,0.0,1,60,12600000000.0,-6.170999370355375,-8.426911843711661,6.301040081881679,0.004796648525167924,-0.10004068633086577,0.10270617535390272,-1.8914978508866689,-0.9243609512273135,1.236105642827417
251,12.6,-6.7,-7.44,5.97,0.7190000000000001,-0.381,0.561,-2.38,-0.667,0.35,0.0,0.0,0.0,1,60,12600000000.0,-6.522648726467338,-7.698359908342171,6.121136075915146,0.5669658464819086,-0.31780428128308247,0.4522280737980823,-2.18396819784909,-0.7868895714695787,0.6655466021606262
252,12.7,-4.94,-7.62,7.13,1.05,-0.28600000000000003,0.41200000000000003,-0.539,-1.17,1.19,0.0,0.0,0.0,1,60,12700000000.0,-5.470594050219601,-7.640513455360605,6.669403723577529,0.9471753515076718,-0.2931536963658696,0.4215477719399888,-1.1991121125198907,-0.991530998930262,1.003239585613159
253,12.7,-5.73,-5.71,3.81,0.667,-0.31,0.626,-1.41,0.439,-2.49,0.0,0.0,0.0,1,60,12700000000.0,-5.643032360681247,-6.2153817408349745,5.1154593616534925,0.726641579539696,-0.30621078977039046,0.5774750923302373,-1.3253724156154547,-0.22740160232144502,-1.2460400967298781
254,12.8,-1.03,-6.69,4.61,0.38299999999999995,-1.32,0.475,3.06,-0.815,-2.08,0.0,0.0,0.0,1,60,12800000000.0,-2.5765512198315847,-6.565751548651162,4.840767300663767,0.4561517767454135,-1.0919700583568175,0.49932153714030614,1.3001862990715676,-0.5412719094226011,-1.7830227008753958
255,12.8,-2.47,-5.8,11.5,0.773,-1.43,0.752,1.47,-0.42200000000000004,4.29,0.0,0.0,0.0,1,60,12800000000.0,-2.505722057830939,-6.000463301557451,8.459730518578318,0.7055517785300032,-1.3539674263192167,0.6920290193424663,1.4018551839520565,-0.47756187552454343,2.127366527693301
256,12.9,-7.45,-7.49,5.88,1.64,-1.46,0.251,-3.71,-2.93,-1.95,0.0,0.0,0.0,1,60,12900000000.0,-5.7923962453113855,-7.100059732116009,7.057774787906876,1.4410818084533839,-1.4361502927028047,0.35567426209246833,-1.6586548320121524,-1.7875510354560948,-0.4980296255489667
257,12.9,-3.59,-3.28,6.79,1.79,-0.998,0.621,-0.00445,0.5670000000000001,-1.49,0.0,0.0,0.0,1,60,12900000000.0,-4.328368628726418,-4.280038763677588,6.912252429712525,1.7157249377815422,-1.0965524630890755,0.5580273157925025,-0.6682687124530674,-0.5298490851580786,-1.1367544451369516
258,13.0,-3.22,-1.3,6.96,1.28,-1.01,0.7609999999999999,0.11900000000000001,1.96,-1.67,0.0,0.0,0.0,1,60,13000000000.0,-3.591588324027916,-2.0801328823095107,6.938200890514154,1.3727537649426884,-1.0294680994167773,0.7128262414859661,-0.19692441895802543,0.8001234185547634,-1.480108590495284
259,13.0,-5.38,-3.35,5.79,1.33,-0.607,0.638,-2.14,-0.752,-3.09,0.0,0.0,0.0,1,60,13000000000.0,-4.780422601477454,-3.017566287644165,6.314210542795244,1.3391011278024048,-0.7020250673548368,0.6557593442906821,-1.3602599087633962,-0.028955506541199605,-2.516709644184228
260,13.1,-1.4,-3.82,7.73,1.24,-0.418,0.35700000000000004,1.7,-1.72,-1.34,0.0,0.0,0.0,1,60,13100000000.0,-2.5333102133861782,-3.609933907028849,7.08362201560234,1.2610958965606043,-0.481885312998394,0.42790783876663857,0.4719430471557531,-0.9322402461083233,-1.7590321509834501
261,13.1,-2.68,-1.19,6.36,0.675,-0.302,0.521,0.485,0.6659999999999999,-2.73,0.0,0.0,0.0,1,60,13100000000.0,-2.63082127139662,-1.823505257704212,6.690369355244734,0.7997636148336993,-0.34246130443978795,0.49890543372888463,0.47976036141887657,-0.07852763630769521,-2.3842335545559794
262,13.2,-1.36,-1.58,5.53,0.000305,0.39,0.349,2.0,0.33299999999999996,-3.48,0.0,0.0,0.0,1,60,13200000000.0,-1.786051694814371,-1.6437463390902893,6.0597661842584145,0.17048762672994322,0.22524864159146663,0.3845787119861892,1.3899404112037848,0.14129309153957184,-3.089792156563731
263,13.2,-2.93,-1.82,5.85,-0.6729999999999999,0.318,0.478,0.6859999999999999,0.349,-3.0,0.0,0.0,0.0,1,60,13200000000.0,-2.5464834049431504,-1.7738592688814485,5.945768598560533,-0.49344479717347767,0.2971375769168821,0.45582728608101597,0.9684854564696543,0.25224137498917076,-3.0319754314604825
264,13.3,1.73,-3.08,12.9,-0.972,0.602,0.134,5.64,-0.389,4.3,0.0,0.0,0.0,1,60,13300000000.0,0.2962791560449314,-2.738070371598604,9.725048795911114,-0.8701288360110002,0.533427782288461,0.21038281495553657,3.7653597849456863,-0.09028275110888462,1.6890473753735673
265,13.3,-3.84,-4.9,10.3,-1.39,1.62,-0.000535,0.7340000000000001,-1.63,2.28,0.0,0.0,0.0,1,60,13300000000.0,-2.4532835375851656,-4.334036805421965,10.037506408356947,-1.2793337971328527,1.375599056172044,0.0495244467611069,1.9504596170915476,-0.9127348342525881,2.0695588264897853
266,13.4,-4.46,-4.5,7.33,-2.04,1.7,-0.22699999999999998,0.523,-0.462,-0.088,0.0,0.0,0.0,1,60,13400000000.0,-3.78723435013295,-4.456553131870771,8.566110705186315,-1.8780751747805615,1.6270330525675605,-0.1613694076749831,1.0958277349582035,-0.6719712819867851,0.6803173792243944
267,13.4,-2.7,-5.15,5.75,-1.76,0.637,-0.52,2.5,-0.32,-1.02,0.0,0.0,0.0,1,60,13400000000.0,-3.0645029225616196,-4.9684652746244655,7.035693986055817,-1.785134931342552,0.8596865666761602,-0.4348822392499232,1.936517287886296,-0.4839630479656364,-0.4145085517059084
268,13.5,-4.72,-7.29,5.24,-1.85,1.24,-1.04,0.513,-1.65,-0.848,0.0,0.0,0.0,1,60,13500000000.0,-4.16498293113639,-6.6822543007147415,6.059823100040816,-1.8361920397635207,1.1544567163473387,-0.8963807117442724,1.0842457165759265,-1.1068108495831392,-0.6936315428536637
269,13.5,-9.23,-10.2,12.4,-1.41,0.863,-1.16,-4.1,-3.89,6.92,0.0,0.0,0.0,1,60,13500000000.0,-7.531917434367524,-9.279102705477985,9.505395082798822,-1.5007244708734027,0.9285568732531914,-1.0974323069983896,-2.019605030279169,-2.5934732933269204,4.208748166104822
270,13.6,-4.81,-7.51,8.45,-0.731,0.799,-1.45,0.228,-0.7040000000000001,3.5,0.0,0.0,0.0,1,60,13600000000.0,-5.722541745985385,-7.973126780544018,8.931840013059334,-0.8948530547865503,0.828141039083506,-1.3663212647983958,-0.6739453023338227,-1.5841962619691794,3.752388730545105
271,13.6,-5.31,-4.53,4.24,-0.94,1.04,-0.903,-0.524,2.72,-0.303,0.0,0.0,0.0,1,60,13600000000.0,-5.448307456566677,-5.431363108078294,6.382057173722774,-0.9303894622145313,0.992346873892347,-1.0129651337316268,-0.5841718026421782,0.7149240596086652,1.1411440007950104
272,13.7,-4.53,-9.42,5.06,-0.85,-0.152,-0.688,0.0411,-1.89,0.737,0.0,0.0,0.0,1,60,13700000000.0,-4.837869112316834,-8.375830103463308,5.6635845347897,-0.8671127117660786,0.10539611213361655,-0.7651275701530899,-0.20981640156216708,-0.6765166193009733,0.8809176719934787
273,13.7,-6.7,-10.2,8.33,-0.43799999999999994,-0.18600000000000003,-0.163,-2.16,-2.63,4.02,0.0,0.0,0.0,1,60,13700000000.0,-6.0757075192711465,-9.72245741888869,7.112649262191621,-0.5293462223656191,-0.12045674292538541,-0.3059095662220866,-1.3774075087733342,-1.7199852016640158,2.9021572309658303
274,13.8,-4.07,-8.95,5.96,0.5329999999999999,0.0195,0.16699999999999998,0.573,-1.65,1.36,0.0,0.0,0.0,1,60,13800000000.0,-4.742427534117256,-9.152218523999226,6.486241486203988,0.3068558668701845,-0.011980245571266729,0.05475916369060441,-0.20968238770015102,-1.6826020426935633,1.909169833471046
275,13.8,-2.38,-5.07,3.32,0.953,0.327,0.5329999999999999,2.52,1.88,-1.56,0.0,0.0,0.0,1,60,13800000000.0,-3.172020366398173,-6.138668456094446,4.765545989207564,0.8154537929998285,0.25075371053569184,0.41949383212968083,1.4246010312563828,0.22038987266488852,-0.3246114116382339
276,13.9,-9.58,-7.64,6.43,0.813,-0.0122,0.59,-4.55,-0.978,1.29,0.0,0.0,0.0,1,60,13900000000.0,-7.431680131425935,-7.246972075164891,5.670094229777739,0.8135223630510344,0.04694575686782279,0.5495318742832567,-2.1524421530355022,-0.4197395009563476,0.7150288587618367
277,13.9,-5.53,-2.15,7.03,0.892,-0.789,0.601,-0.228,3.97,1.49,0.0,0.0,0.0,1,60,13900000000.0,-6.167551652920182,-3.4843168396773345,6.4091357896324315,0.8752942971086421,-0.6009720410568365,0.5887845115380651,-1.0002627136253261,1.925074414930718,1.2140289463195866
278,14.0,-10.2,-9.64,10.7,1.48,0.377,0.9359999999999999,-4.82,-4.06,4.69,0.0,0.0,0.0,1,60,14000000000.0,-8.848093469966695,-8.028527570048311,8.741007907822798,1.3512748965268833,0.1570263193034287,0.8535915180506664,-3.287171133514556,-1.2719001543015251,3.4521895371407783
279,14.0,-4.75,-4.64,7.38,1.42,-0.664,0.762,0.42200000000000004,0.335,0.7,0.0,0.0,0.0,1,60,14000000000.0,-6.123914388054338,-5.527069536741342,8.001367566971663,1.4053702925701925,-0.47932784623740654,0.7837384417452069,-1.0664596923447989,-0.41356178651550646,1.6800683109711494
280,14.1,-3.25,-7.1,7.38,1.05,-1.23,0.486,1.58,-2.63,0.111,0.0,0.0,0.0,1,60,14100000000.0,-4.213499821739381,-6.688228496857594,7.663685125608385,1.1256484685068948,-1.0611525303098976,0.5566655429099399,0.5179976474473549,-1.5974897622006847,0.6697529939919709
281,14.1,-6.72,-5.86,8.46,1.47,-1.14,0.28,-2.44,-1.91,0.5670000000000001,0.0,0.0,0.0,1,60,14100000000.0,-5.87967821247461,-6.0768188599467825,8.096442848377443,1.3966971059433382,-1.1222649539208203,0.3456640796816787,-1.2529800522335939,-1.764419547270359,0.6035908317152072
282,14.2,-0.9390000000000001,-0.615,1.84,1.27,-1.62,0.0544,2.78,2.77,-6.58,0.0,0.0,0.0,1,60,14200000000.0,-2.5953968004122645,-2.0448286166736374,4.6963759871122654,1.2969702945049937,-1.5080452574813987,0.12352891075209263,1.161598456000176,0.6576763284810392,-4.021887693969183
283,14.2,-2.05,-3.53,9.68,1.13,-1.26,0.00496,1.63,-0.667,1.05,0.0,0.0,0.0,1,60,14200000000.0,-2.2328480455308695,-3.1412026590596556,7.404729023157104,1.165543353686663,-1.3157924148413649,0.033101264807011796,1.4420343330010645,-0.04990995496124084,-0.7561243464576579
284,14.3,-7.63,-1.74,8.95,1.9,0.961,-0.45899999999999996,-3.48,0.465,0.34299999999999997,0.0,0.0,0.0,1,60,14300000000.0,-5.820567280286207,-2.106815476610219,8.244507176156667,1.7436544756961805,0.4488847506422635,-0.342204183334452,-1.5048283575386172,0.22513325160614694,-0.048403624268904766
285,14.3,-5.6,-1.22,5.77,1.1,0.968,-0.0787,-1.37,0.706,-2.86,0.0,0.0,0.0,1,60,14300000000.0,-5.6739466540580725,-1.452156043214433,6.899735049047271,1.2370162536923028,0.8512362348619125,-0.14124034732702012,-1.424105507191566,0.4819919937718231,-1.8587765444954272
286,14.4,-0.0023899999999999998,-3.33,5.38,0.0473,-0.39,-0.0775,4.08,-1.21,-3.28,0.0,0.0,0.0,1,60,14400000000.0,-1.9038188831831202,-2.838406377013765,6.073834366845795,0.30055768364258484,-0.11081071188496083,-0.09262819872548513,1.8712479541821159,-0.4217988656382222,-2.7738952734316857
287,14.4,-2.75,0.0982,7.5,-0.635,-0.218,-0.278,1.41,2.59,-1.02,0.0,0.0,0.0,1,60,14400000000.0,-2.4663118850717556,-0.6705629189904752,6.848884767104873,-0.4358456383969622,-0.1938900811468801,-0.23400366768934538,1.5950949677535886,1.1869771547106822,-1.6445707770912927
288,14.5,-1.53,0.19899999999999998,12.7,-0.457,0.985,-0.599,3.07,3.22,4.54,0.0,0.0,0.0,1,60,14500000000.0,-1.843905063926575,-0.028639540505723038,10.028676054992317,-0.45249681158055377,0.7198341544953589,-0.5123713851971471,2.478132773668121,2.2729323221934896,2.3376437055439228
289,14.5,-5.54,-4.84,4.88,-1.61,1.03,-0.623,-0.551,-1.21,-2.74,0.0,0.0,0.0,1,60,14500000000.0,-4.300858395880729,-3.580452512722409,7.230625635208311,-1.3635995980254965,0.9602348712861273,-0.5967433127111405,0.6645659201899683,0.4124965920976642,-0.9318259461699205
290,14.6,-4.38,-5.6,6.69,-1.75,0.685,-0.619,0.695,-1.22,-0.47200000000000003,0.0,0.0,0.0,1,60,14600000000.0,-4.353467301897217,-5.071310339213337,6.936822404455187,-1.6677460419348962,0.7469081403383235,-0.6137175888645693,0.682787051295582,-0.4595143251998429,-0.6357462976010277
291,14.6,-4.48,-4.44,8.9,-1.67,0.853,-0.672,0.636,0.738,2.33,0.0,0.0,0.0,1,60,14600000000.0,-4.437579044061049,-4.605268354448096,8.00371200702064,-1.6695201608906993,0.8291369165784312,-0.6581671868955924,0.6547752431601175,0.18014736275846988,1.2738830126339602
292,14.7,-6.68,-12.4,6.01,-1.87,0.9570000000000001,-1.05,-1.71,-6.36,0.07,0.0,0.0,0.0,1,60,14700000000.0,-5.928212637009361,-10.359446818890586,6.9202283809076,-1.8273233911133455,0.92823997487205,-0.9570019688897271,-0.7610352834480876,-3.3133238917259025,0.4987087007073391
293,14.7,3.15,-5.81,2.41,-2.07,0.235,-0.9640000000000001,7.78,0.9059999999999999,-3.03,0.0,0.0,0.0,1,60,14700000000.0,0.10646602708959829,-7.000982190318711,4.469142641568929,-2.0183408096557125,0.39092935605785994,-0.962339070061209,4.352553333227085,-1.0595388202416962,-1.773409344695473
294,14.8,-5.01,-8.18,5.97,-1.52,0.0281,-0.6859999999999999,-0.575,-0.982,1.01,0.0,0.0,0.0,1,60,14800000000.0,-3.2946692691097565,-7.871349675206848,5.284784181884999,-1.6260829596681492,0.10971062610412347,-0.7515865853769762,1.4023863901455655,-1.0181208456322852,0.01881414719123531
295,14.8,-9.4,-16.3,7.19,-0.767,-1.18,-0.584,-5.08,-8.93,2.3,0.0,0.0,0.0,1,60,14800000000.0,-7.35314508181278,-14.09349539774601,6.320174666994967,-0.9498750159784081,-0.8899074151841935,-0.6237751625179909,-2.4786719299579794,-5.244313523490407,1.4876583943024708
296,14.9,-4.1,-6.96,5.01,0.23199999999999998,-0.7120000000000001,0.207,0.318,0.215,-0.0135,0.0,0.0,0.0,1,60,14900000000.0,-5.1906394906041875,-8.827450426631984,5.6081597375488315,-0.019588506471825973,-0.7520164393813997,0.009822987415973539,-0.8042813130827462,-2.3281782395546915,0.5210699353376351
297,14.9,-3.3,-4.62,4.74,0.32799999999999996,0.033,0.318,1.2,2.43,-0.373,0.0,0.0,0.0,1,60,14900000000.0,-3.933850029996252,-5.721452224332273,5.136357785637513,0.2540080281138165,-0.14357248973403136,0.24485694871226657,0.39569852064136657,0.21344014845332637,-0.054617267402263914
298,15.0,-4.67,-7.98,5.34,0.203,-0.449,0.28800000000000003,-0.21600000000000003,-1.07,-0.012,0.0,0.0,0.0,1,60,15000000000.0,-4.423200644366033,-7.388743454922793,5.24702732804229,0.2138581937477833,-0.38030068035156284,0.27776037527335484,0.02946955190461037,-0.47211953521862104,-0.02717621996212668
299,15.0,-4.31,-8.06,8.39,0.836,-0.45399999999999996,-0.0347,0.0996,-1.58,2.5,0.0,0.0,0.0,1,60,15000000000.0,-4.347951266678649,-7.884274633546886,6.955077527028689,0.7035632372688546,-0.43742292718978143,0.03945966127725464,0.07145723272393822,-1.0639026271515941,1.600060037508888
300,15.1,-9.19,-7.02,9.42,1.86,0.225,0.758,-4.6,-1.2,3.0,0.0,0.0,0.0,1,60,15100000000.0,-7.566669147681596,-7.246255127167245,8.294640873671957,1.613826610558084,0.0760022680062909,0.5874609242408346,-2.725382806137028,-1.136600135382011,2.5014744490778162
301,15.1,-2.56,-5.97,2.99,1.21,-0.37,0.561,2.05,-0.6679999999999999,-3.85,0.0,0.0,0.0,1,60,15100000000.0,-4.238520676202297,-6.304105779569501,5.411831241044865,1.295963545904581,-0.26968142834326797,0.5672802544255248,0.13367836193492355,-0.8862936761306145,-1.5882084448636706
302,15.2,-3.43,-5.12,8.68,0.748,-1.34,0.627,0.713,-0.195,1.28,0.0,0.0,0.0,1,60,15200000000.0,-3.701062234200666,-5.429982425717549,7.187919293080487,0.8646463029729061,-1.0992549849050561,0.6128260357630662,0.4805230195532895,-0.5170337148938591,0.25861675554956354
303,15.2,-2.89,-4.09,12.7,0.9590000000000001,-1.51,0.667,0.7979999999999999,0.243,4.76,0.0,0.0,0.0,1,60,15200000000.0,-3.161914334585103,-4.440788972146282,10.183462104528425,0.9389147008921175,-1.4176117746477324,0.6541422934595378,0.6705991013570051,-0.11105572442307476,3.1570352903270305
304,15.3,-5.15,-3.24,5.77,1.8,-1.3,0.192,-1.88,0.237,-2.8,0.0,0.0,0.0,1,60,15300000000.0,-4.483480492668621,-3.554349946233098,7.784963987685864,1.6166987191933528,-1.3264541910215075,0.3016853189407267,-0.8564656809302801,0.07486098173697031,-0.6786702126343389
305,15.3,-2.47,-2.01,2.17,1.6,-1.59,0.28300000000000003,0.529,0.8,-6.74,0.0,0.0,0.0,1,60,15300000000.0,-3.145033382512387,-2.4142894417738843,4.733509145558116,1.6035547142101005,-1.530721089431658,0.28743478660947486,-0.026975924105431925,0.46219970137532634,-4.581530309265618
306,15.4,0.129,-3.62,4.6,0.867,-0.9129999999999999,0.789,3.06,-1.32,-4.47,0.0,0.0,0.0,1,60,15400000000.0,-0.9686425068584734,-3.304361573182909,4.660953484271583,1.023792113400355,-1.0519430050396883,0.6699579875118085,1.821222068435099,-0.48977632260476406,-4.509716360155871
307,15.4,-0.45299999999999996,-3.03,9.04,0.996,-0.00489,0.695,2.7,-1.12,-0.0515,0.0,0.0,0.0,1,60,15400000000.0,-0.625872749032693,-3.1018240427637744,7.040748401707815,1.0019161658554452,-0.24040195433940137,0.6890564980642264,2.3473537154489232,-0.8264152621376345,-1.6390929158960885
308,15.5,-1.27,-3.35,5.85,0.162,0.485,0.645,2.17,-1.59,-3.16,0.0,0.0,0.0,1,60,15500000000.0,-1.0540518386691031,-3.285030897673611,6.393635557440955,0.3407949207000659,0.32183651207078345,0.6554563991032987,2.241170624297404,-1.2342900769201057,-2.6183975135004056
309,15.5,-2.05,-1.43,4.5,-0.451,0.285,0.38799999999999996,2.4,-1.28,-3.0,0.0,0.0,0.0,1,60,15500000000.0,-1.7161014082436523,-1.9156213847024848,5.3645384016684865,-0.2824487657160214,0.2932855748517967,0.45147838002858964,2.3362631427511085,-1.2587063767766902,-2.8641094654681
310,15.6,-2.83,-0.632,5.97,-1.23,0.611,-0.19,1.28,2.05,-2.52,0.0,0.0,0.0,1,60,15600000000.0,-2.456557685640509,-0.9680343402310508,5.693576684885591,-1.0282925657169955,0.5395370046484345,-0.0377508729959804,1.7038696427415205,0.5086651476123285,-2.6425390718553734
311,15.6,-5.06,-1.66,7.06,-1.47,1.21,-0.5770000000000001,-0.502,1.77,-0.9209999999999999,0.0,0.0,0.0,1,60,15600000000.0,-4.187177787363685,-1.4788529394375804,6.436160062534202,-1.3759727270230515,1.05919386254658,-0.4490140854804006,0.3831972521130589,1.1824170752216219,-1.5340485882710388
312,15.7,-3.69,-4.02,7.2,-1.5,1.23,-0.6579999999999999,1.18,0.171,-0.207,0.0,0.0,0.0,1,60,15700000000.0,-3.856682355189013,-3.354762843926009,6.851269140803227,-1.4735980240749122,1.191580864030122,-0.6083990666172613,0.8602496184600663,0.6421606869263331,-0.6795685731785147
313,15.7,-5.51,-6.61,7.12,-1.76,0.96,-0.877,-0.48,-1.54,0.402,0.0,0.0,0.0,1,60,15700000000.0,-4.955713892725518,-5.7578240494755075,6.997310993476608,-1.6990329334604937,1.0120890959696243,-0.8132499641421638,0.05783108934741421,-0.5234575966860885,0.016848083329161656
314,15.8,-6.17,-12.0,7.17,-2.08,1.16,-1.15,-1.25,-5.94,1.2,0.0,0.0,0.0,1,60,15800000000.0,-5.762902173074619,-10.36588470081321,7.091158958710446,-1.9989025887143719,1.126730611536564,-1.070075388936011,-0.7251782045843462,-3.416746378835807,0.7786737760877918
315,15.8,-2.21,-5.3,4.8,-2.18,0.183,-0.971,2.6,1.41,-0.48700000000000004,0.0,0.0,0.0,1,60,15800000000.0,-3.401135232670913,-6.626178665588145,5.846027622703441,-2.1414494226882193,0.39527181267986833,-0.9945146646572827,1.2656334412792325,-0.8385018331047385,-0.036287295360138194
316,15.9,-6.21,-8.13,7.24,-1.46,0.682,-0.545,-1.48,-0.9640000000000001,2.49,0.0,0.0,0.0,1,60,15900000000.0,-5.268308542180589,-7.736320465502301,6.603582458174658,-1.605061763789911,0.6175066739402083,-0.651688276250336,-0.37820002826991317,-0.9055376594597336,1.59037659410086
317,15.9,-4.93,-12.2,5.06,-1.05,0.44799999999999995,-0.57,-0.303,-4.8,0.626,0.0,0.0,0.0,1,60,15900000000.0,-5.043420181719536,-11.031470315043812,5.764721796707195,-1.1681572594287775,0.48612687522567277,-0.589387972354184,-0.3331771510100042,-2.9857954690014132,0.9694192709305486
318,16.0,-1.59,-6.68,5.34,-0.154,-0.359,0.00435,3.04,0.685,0.8079999999999999,0.0,0.0,0.0,1,60,16000000000.0,-2.7477831987881776,-7.819154596266506,5.533906614640774,-0.3698860291252495,-0.1689069643740082,-0.13656836866978594,1.686371895470903,-1.0250111797044072,0.8654822195851597
319,16.0,-4.87,-8.37,9.67,0.425,-0.0183,0.35100000000000003,-0.0509,-1.24,4.96,0.0,0.0,0.0,1,60,16000000000.0,-4.158511955405247,-8.225796210133634,7.781668598550976,0.25579075967211007,-0.052175783572974116,0.23528004038205774,0.6462528371575891,-1.139849155068497,3.501921973408404
320,16.1,-6.07,-8.37,5.68,0.981,0.493,0.251,-1.23,-1.57,0.535,0.0,0.0,0.0,1,60,16100000000.0,-5.429160429435595,-8.332249358486564,6.639515693097419,0.8266230163007855,0.37037448528684735,0.24726899912306924,-0.4770752716183013,-1.3696176420875752,1.5915356191026522
321,16.1,-4.4,-3.45,4.3,1.42,-0.191,0.376,0.546,2.87,-1.34,0.0,0.0,0.0,1,60,16100000000.0,-4.74503326773247,-4.728105368081924,5.3681048664964965,1.2936864187067723,-0.06473093643979905,0.3454468447002825,0.13544836050880904,0.8950074250507793,-0.29606567522178295
322,16.2,-5.99,-6.79,10.2,1.31,-0.0287,0.426,-1.05,-0.9690000000000001,4.09,0.0,0.0,0.0,1,60,16200000000.0,-5.572616076924092,-6.250224484888335,7.99400050045595,1.3065272447230205,-0.03680438053627705,0.4068814322138986,-0.5742893525478042,-0.10066680064065814,2.528100398473497
323,16.2,-6.29,-8.95,8.01,1.51,-0.401,0.5660000000000001,-1.54,-3.71,1.22,0.0,0.0,0.0,1,60,16200000000.0,-6.049492016271642,-8.243235982532502,8.002695560575365,1.466686270782879,-0.3190820576369043,0.5282346271277271,-1.1524682844401515,-2.0286205540183992,1.6858210459538483
324,16.3,-3.74,-3.97,4.62,1.27,-0.966,0.444,0.733,0.691,-2.76,0.0,0.0,0.0,1,60,16300000000.0,-4.514273295493627,-5.088674078282397,6.164367966691646,1.3118690518569673,-0.8204897999059881,0.46399233565652,-0.02362283425377143,-0.5759138404960484,-1.1768211107508761
325,16.3,-4.07,-4.13,9.95,1.48,-1.55,0.48,-0.16,-0.0736,1.93,0.0,0.0,0.0,1,60,16300000000.0,-4.218945831767059,-4.380967694282011,8.221671414911008,1.4442095865164688,-1.3859124028915386,0.4762007166300554,-0.10527296960297265,-0.30759895038122864,0.8236455886445555
326,16.4,-2.07,-1.73,4.36,1.64,-1.71,0.0923,1.34,1.61,-4.21,0.0,0.0,0.0,1,60,16400000000.0,-2.790449017864783,-2.42398667854019,6.123044297038365,1.5983216251101722,-1.6371035257513291,0.18341538129996443,0.7600239351891575,0.716701627637605,-2.4174939118285597
327,16.4,-2.27,-2.13,5.91,1.72,-0.718,0.541,1.09,0.44299999999999995,-2.94,0.0,0.0,0.0,1,60,16400000000.0,-2.4444841466340184,-2.206961729422247,6.00726518827481,1.6940980620289863,-0.924732478971174,0.45613051277670913,0.9575833553330829,0.5705017432849722,-2.753933032225895
328,16.5,-3.72,-2.82,7.62,1.39,-0.0654,0.5670000000000001,-0.201,-0.813,-1.31,0.0,0.0,0.0,1,60,16500000000.0,-3.2923744423999723,-2.6595150132743086,6.883706636297506,1.4547340550453471,-0.25868827490243473,0.5406861027140785,0.2639299116047503,-0.16850661318932336,-1.8241916639945743
329,16.5,-1.54,-1.05,7.31,0.742,0.354,0.28600000000000003,2.14,0.746,-1.6,0.0,0.0,0.0,1,60,16500000000.0,-2.1274957156046517,-1.4713487265625587,7.115375939031954,0.8937213539238934,0.21618900992044487,0.34644746646856683,1.3871486585721438,0.3199842868575853,-1.6798357767411474
330,16.6,-1.29,-0.757,8.82,-0.14400000000000002,0.114,0.26899999999999996,2.48,1.15,-0.0287,0.0,0.0,0.0,1,60,16600000000.0,-1.5707762483009595,-0.9440066345962841,8.041754540159747,0.0769021786160543,0.13698521027334226,0.28738145501409973,2.041447810143396,0.7633436993165525,-0.6166776236901401
331,16.6,-1.44,-3.41,7.65,-0.61,0.465,-0.218,2.5,-1.07,-1.02,0.0,0.0,0.0,1,60,16600000000.0,-1.483843686424432,-2.764437118958859,7.828855398446432,-0.46377753657825693,0.3912201618149104,-0.09805225215282765,2.315986800181966,-0.21595129365451293,-0.8763748929029455
332,16.7,-0.0646,-1.52,9.45,-1.22,0.599,-0.387,4.17,1.54,1.15,0.0,0.0,0.0,1,60,16700000000.0,-0.5404113328990917,-1.8457764060469897,8.709867109340006,-1.059021176544774,0.5522643962575282,-0.3184208461477686,3.4259998883346032,0.7220038883787993,0.42839785389573104
333,16.7,-4.11,-1.49,9.61,-1.81,1.18,-0.55,0.732,2.4,2.01,0.0,0.0,0.0,1,60,16700000000.0,-2.9132706180592916,-1.5831373477397923,9.199044575744791,-1.6501373348991955,1.038804396042964,-0.49503677933524737,1.813079861562003,1.618318767758702,1.4467836400499197
334,16.8,-5.24,-8.88,8.13,-1.88,2.07,-0.904,-0.0643,-4.09,1.31,0.0,0.0,0.0,1,60,16800000000.0,-4.459947611761475,-6.9697823990734316,8.61807184833738,-1.8310685926577648,1.8380547737165074,-0.8069362450611537,0.6890770049701831,-1.4308247066086006,1.3587092945131312
335,16.8,-5.61,-8.61,6.51,-2.0,0.8059999999999999,-1.04,-0.474,-2.89,0.42100000000000004,0.0,0.0,0.0,1,60,16800000000.0,-5.224437012947668,-8.180613472134437,7.472439311378638,-1.9640391758797289,1.0381384217839267,-0.9846843844324621,-0.007266825117407727,-2.210254728959229,0.7549229242794058
336,16.9,-8.79,-7.92,6.64,-2.05,0.779,-1.1,-3.79,-1.37,1.34,0.0,0.0,0.0,1,60,16900000000.0,-7.5946201412326015,-7.9882250575651295,7.0200496941019495,-2.031701280616862,0.8372875777047811,-1.0726308937715232,-2.2720204516775295,-1.7614260554349246,1.131651178455841
337,16.9,-3.86,-9.46,5.99,-1.59,-0.0935,-1.01,0.872,-2.36,1.16,0.0,0.0,0.0,1,60,16900000000.0,-5.112057352469546,-9.074709711217459,6.460268567326548,-1.6840260118247552,0.1158605556222263,-1.024864872172674,-0.389669406807321,-2.0811589825185077,1.1499048228174726
338,17.0,-5.9,-8.97,5.24,-1.0,0.0421,-0.376,-1.23,-1.66,0.66,0.0,0.0,0.0,1,60,17000000000.0,-5.635836801054088,-8.997411750792518,5.797112902277151,-1.1456102183242196,0.05869084443613865,-0.5300022328562102,-0.8927822971027325,-1.8561935797593268,0.8344575495226636
339,17.0,-6.24,-9.35,8.17,-0.287,0.23800000000000002,-0.0146,-1.53,-2.05,3.63,0.0,0.0,0.0,1,60,17000000000.0,-6.037449926078289,-9.257697556256904,7.08665957991224,-0.4697743674086511,0.19766828326087543,-0.13692608562118264,-1.2742897909131896,-1.9597167788690508,2.6344935679870485
340,17.1,-5.97,-8.46,5.54,0.39399999999999996,-0.0684,0.26899999999999996,-1.11,-1.43,0.73,0.0,0.0,0.0,1,60,17100000000.0,-5.992612918186417,-8.668826211711856,6.246126665519869,0.2101263235833818,-0.008553689800797154,0.1726570890264444,-1.1759281423563528,-1.6767643646778505,1.4081995998686565
341,17.1,-6.45,-6.45,6.09,1.22,0.348,0.545,-1.4,0.121,0.8490000000000001,0.0,0.0,0.0,1,60,17100000000.0,-6.2966576673238,-7.030857862485043,6.161279636867692,1.0050258490807515,0.26780094222628037,0.45662777099767604,-1.3100818031801527,-0.716474381672566,1.0481337310438539
342,17.2,-6.24,-7.58,6.96,0.997,-0.0501,0.711,-1.02,-1.47,1.35,0.0,0.0,0.0,1,60,17200000000.0,-6.258994725568153,-7.436242129824447,6.595344623651497,0.9987084647663544,0.0214049504456367,0.6506270580912928,-1.1364074161164548,-1.1189760360455967,1.2425039426140763
343,17.2,-5.33,-5.75,6.41,1.21,-0.266,0.6729999999999999,-0.00853,-0.278,0.255,0.0,0.0,0.0,1,60,17200000000.0,-5.641451903525441,-6.191434859305419,6.4946189157317535,1.165021906324258,-0.20135446714145064,0.6676899666918112,-0.46113787538421436,-0.6697620665892987,0.6066550394455628
344,17.3,-3.26,-2.67,7.29,1.73,-0.628,0.8690000000000001,1.92,2.11,0.474,0.0,0.0,0.0,1,60,17300000000.0,-4.058398336375619,-3.591862981091439,6.926869128346519,1.6097318056961023,-0.5320353203236,0.8212208872737843,0.9644690459851066,0.8150696612869035,0.5212391206955973
345,17.3,-9.14,-5.65,7.44,1.49,-1.41,0.262,-4.62,-1.45,-0.191,0.0,0.0,0.0,1,60,17300000000.0,-7.436357865942362,-5.111208274547328,7.205730378795721,1.5154875972566995,-1.2125207858086493,0.39472604477559864,-2.3789987081376123,-0.3948351493005655,0.06263187698681705
346,17.4,-1.61,-0.9890000000000001,3.54,1.76,-2.17,0.11699999999999999,2.27,2.43,-4.79,0.0,0.0,0.0,1,60,17400000000.0,-3.56332707748282,-2.0681371093246765,5.213587418086675,1.7079500649599768,-1.9546357939990595,0.182915778353991,0.40439527191388214,1.1140728121141963,-3.0619537415169735
347,17.4,-4.36,-3.68,6.06,1.69,-1.46,0.488,-0.748,-0.9990000000000001,-2.66,0.0,0.0,0.0,1,60,17400000000.0,-4.092909940897126,-3.2580366456986143,5.673570712310798,1.6938211173858468,-1.5712576659777326,0.4155910075585967,-0.28555332749103535,-0.014641666716337598,-2.803137772456634
348,17.5,-3.55,-3.7,9.11,1.17,-0.209,0.7020000000000001,0.179,-1.55,0.301,0.0,0.0,0.0,1,60,17500000000.0,-3.732014308551965,-3.5843001439019564,7.541099677303823,1.281506993653089,-0.5154104384691727,0.6340234178249717,-0.007421403629510048,-0.8347653778611588,-0.8043988281456635
349,17.5,-2.12,-1.47,6.23,0.562,0.17300000000000001,0.8109999999999999,1.76,0.354,-2.59,0.0,0.0,0.0,1,60,17500000000.0,-2.6604389520987315,-2.0234945460437377,6.828581936539354,0.7151631195896304,0.01815693791180628,0.7689961916323333,1.0507484083138747,-0.1997769948396645,-1.9541385279758736
350,17.6,-1.2,-1.66,4.4,-0.0382,0.205,0.47200000000000003,2.78,0.171,-4.38,0.0,0.0,0.0,1,60,17600000000.0,-1.6896223655627685,-1.7551578183246344,5.508767965213133,0.12217017198956726,0.16297368810450982,0.5424893776111173,2.086065626617718,-0.0017235430847654387,-3.5161387944872584
351,17.6,-0.00479,0.6559999999999999,6.29,-0.331,0.248,0.154,4.07,2.82,-2.36,0.0,0.0,0.0,1,60,17600000000.0,-0.569641789224508,0.02479225651275141,5.933328870072267,-0.2345326048829235,0.22887516479218023,0.24620445975801775,3.2738636534230023,1.5055222580644823,-2.7717066805325903
352,17.7,-4.64,-0.6940000000000001,7.24,-1.12,1.36,-0.43700000000000006,0.0975,2.21,-0.8390000000000001,0.0,0.0,0.0,1,60,17700000000.0,-3.275383962073917,-0.5058301364385195,6.643439800611714,-0.9315084866280771,1.105577914712972,-0.2748475699100349,1.3721484513638864,1.8818246083621888,-1.527246408034395
353,17.7,-6.56,-3.82,6.16,-1.47,2.32,-1.0,-1.27,-0.0463,-1.19,0.0,0.0,0.0,1,60,17700000000.0,-5.45880955066256,-2.9523961341852596,6.3807141251935695,-1.3553700735525334,2.046841934920745,-0.8278915914476177,-0.20972767566940198,0.851901674169192,-1.3100951522535653
354,17.8,-4.11,-4.08,7.83,-1.58,1.32,-1.07,1.34,0.655,1.19,0.0,0.0,0.0,1,60,17800000000.0,-4.562197888041974,-3.7848088527587342,7.168329190452574,-1.5321825355170124,1.48348743219519,-1.0125377863249834,0.7181071258825732,0.7467250800616523,0.29970377662630954
355,17.8,-7.38,-12.8,4.28,-2.16,0.955,-1.37,-2.09,-7.1,-1.68,0.0,0.0,0.0,1,60,17800000000.0,-6.435312285841313,-10.439947829627483,5.5986654147401005,-2.02635509428266,1.073871818202476,-1.2851595615993914,-0.9631297927266819,-3.4446648223060574,-0.9750176510210942
356,17.9,-5.57,-5.89,5.89,-2.1,0.67,-1.23,-0.5,0.631,0.609,0.0,0.0,0.0,1,60,17900000000.0,-5.860102086745123,-7.081113291676567,5.756991262864215,-2.0843229614635663,0.7608422537343882,-1.2430916404853227,-0.6858501539756023,-1.267616392416934,0.04492349043284194
357,17.9,-9.49,-11.0,6.27,-1.63,0.465,-0.87,-4.57,-3.9,1.63,0.0,0.0,0.0,1,60,17900000000.0,-8.273051282199052,-9.974089680167857,6.035786097788967,-1.726712788545237,0.5315433267697361,-0.9585499495840888,-3.011322906264083,-2.673724863559433,1.0655464050915864
358,18.0,-5.56,-8.59,4.51,-0.805,0.32799999999999996,-0.639,-0.757,-1.28,0.0808,0.0,0.0,0.0,1,60,18000000000.0,-6.4695693066986255,-8.952335641108139,5.206597032427264,-1.0012071644984917,0.3737826813015995,-0.714842305979658,-1.6616411478702116,-1.9292557441353257,0.43147306772677096
359,18.0,-9.48,-11.9,9.0,-0.0186,-0.466,-0.129,-4.66,-4.6,4.51,0.0,0.0,0.0,1,60,18000000000.0,-8.470731831494565,-11.128341972134937,7.268123702270475,-0.22776988727488556,-0.2771090201742617,-0.26804439811973385,-3.4567833091212776,-3.3558547555637723,3.057616516406147
360,18.1,-6.84,-6.3,3.66,0.856,0.298,0.0337,-2.02,0.59,-1.38,0.0,0.0,0.0,1,60,18100000000.0,-7.386714309579554,-7.563993265781988,5.307287185041402,0.6252953720564588,0.16864165589467145,-0.0379163191647027,-2.596569242865925,-1.2481453989830125,0.20025721259105778
361,18.1,-5.62,-6.01,4.58,1.57,-0.174,0.424,-0.643,0.43,-0.895,0.0,0.0,0.0,1,60,18100000000.0,-6.2123032052694995,-6.4168141054139305,4.912042572566337,1.3688985557453197,-0.09693015759714274,0.31436831148049305,-1.4269511777078494,-0.3517508237046123,-0.5049734723409369
362,18.2,-7.51,-7.07,7.87,1.24,-0.324,-0.006640000000000001,-2.74,-1.06,1.77,0.0,0.0,0.0,1,60,18200000000.0,-7.074938260397557,-6.899005096781934,6.519545899030527,1.2674389447974594,-0.27292554500329513,0.06954843630297752,-2.213084377233856,-0.7300676644046389,0.9598706721628893
363,18.2,-3.84,-2.94,4.36,1.5,-0.6509999999999999,0.657,0.8590000000000001,2.52,-2.29,0.0,0.0,0.0,1,60,18200000000.0,-4.924535533213602,-3.9764128011068953,5.345939712602326,1.450494183793659,-0.565960336502462,0.517573657849939,-0.37380202648400873,1.005981545581002,-1.1327049408825145
364,18.3,-5.3,-9.1,8.49,1.19,-1.5,0.39399999999999996,-1.09,-4.27,1.07,0.0,0.0,0.0,1,60,18300000000.0,-5.174123048362475,-7.758716041176365,7.05458066575857,1.2454520517159815,-1.2899079554377129,0.4233290917616532,-0.802595698894483,-1.8122255074783356,0.28560590002917663
365,18.3,0.218,-1.13,6.53,2.07,-2.13,0.7390000000000001,3.92,2.8,-1.66,0.0,0.0,0.0,1,60,18300000000.0,-1.5897468234646475,-2.865306143359848,6.769497164305029,1.8944764955776057,-1.9410395314986126,0.664078365603787,2.024861465547574,0.6514310189495207,-0.9671600859571821
366,18.4,-2.68,-5.07,10.0,1.66,-1.15,0.406,0.486,-1.81,1.33,0.0,0.0,0.0,1,60,18400000000.0,-2.3144850709280025,-4.492841778461876,8.525115486354967,1.7099135342094771,-1.3279272355732452,0.4672525704691006,1.103532374740945,-0.6633617001135734,0.5119699491355751
367,18.4,-1.47,-1.75,5.96,0.961,-1.32,0.634,1.33,0.795,-3.08,0.0,0.0,0.0,1,60,18400000000.0,-1.7531195227457534,-2.46803802855904,7.131102260522742,1.1204229969973505,-1.3217831010469483,0.5944239995758966,1.239120441426293,0.11563368786425621,-1.8008816702576484
368,18.5,-1.49,-1.77,4.88,1.35,-0.97,0.82,1.29,0.239,-4.31,0.0,0.0,0.0,1,60,18500000000.0,-1.578212659547054,-1.9527366839755433,5.907739714977419,1.3011294247371878,-1.049126031304684,0.7664615592731773,1.2695824312730115,0.18153077040611204,-3.416490504766169
369,18.5,0.259,-0.713,0.68,0.43799999999999994,0.262,0.94,3.31,1.06,-8.47,0.0,0.0,0.0,1,60,18500000000.0,-0.35693834212738396,-1.0375459109303091,3.0667220527871013,0.6217363760141535,-0.03290948118203074,0.8988122097708345,2.491197277428669,0.6507719921654336,-6.6704204237334865
370,18.6,7.0,-1.32,4.08,-0.18,0.445,0.614,10.2,0.6409999999999999,-4.98,0.0,0.0,0.0,1,60,18600000000.0,4.5335351635209085,-1.246057466142801,3.617388399789508,-0.009332506541069652,0.33750458078049667,0.6815976339875539,7.106521134368433,0.6455521911288351,-5.5819670934497765
371,18.6,-6.6,-2.14,16.2,-0.897,0.614,0.105,-2.91,0.19899999999999998,7.4,0.0,0.0,0.0,1,60,18600000000.0,-2.8674047034382175,-1.9059782903680706,10.45541514903577,-0.7080401544259615,0.5518083458535651,0.24185026103454632,1.109547005091426,0.4070228244910044,2.777057313348024
372,18.7,-3.84,-9.05,11.7,-1.27,1.99,-0.313,0.31,-5.95,3.4,0.0,0.0,0.0,1,60,18700000000.0,-3.513930593503707,-7.179794099518553,11.131785282099255,-1.1503742772081735,1.666509863557056,-0.18131127496905247,0.6308515992745775,-2.988630843532483,3.1781670868671155
373,18.7,-2.56,-2.77,6.29,-1.92,0.128,-0.583,1.61,1.23,-1.63,0.0,0.0,0.0,1,60,18700000000.0,-2.8798118396630494,-3.924423068736093,8.500514717735845,-1.7561679370481849,0.47405456261351264,-0.4876627964598734,1.217075856636455,-0.7352159686854973,0.08221210511006838
374,18.8,-1.62,0.316,5.2,-1.91,0.732,-1.09,2.55,5.27,-2.17,0.0,0.0,0.0,1,60,18800000000.0,-2.0423606997812653,-0.7940840795823023,6.706848301014189,-1.877253382391862,0.673980740993388,-0.9470407065442966,2.0151085410740746,2.472517390370435,-1.3679761691185564
375,18.8,-4.73,-8.55,3.83,-1.86,0.55,-0.9209999999999999,-0.547,-2.9,-3.01,0.0,0.0,0.0,1,60,18800000000.0,-3.8289502119527725,-6.5196086610986645,5.143423664714416,-1.8636727791569039,0.5778867986122145,-0.9271805304438654,0.4811529645706967,-0.3972551050260207,-2.4252671789885554
376,18.9,-3.72,-9.83,7.81,-1.13,0.6509999999999999,-0.335,0.644,-3.78,1.43,0.0,0.0,0.0,1,60,18900000000.0,-3.7565263366538315,-8.963385292622725,6.5925758274017285,-1.2861786381474287,0.634554782527446,-0.4755487302479476,0.5786508283355212,-2.2041748967632797,0.057120238628981745
377,18.9,-7.57,-11.1,6.8,-0.669,0.366,-0.18,-3.06,-4.82,0.779,0.0,0.0,0.0,1,60,18900000000.0,-6.291506499229792,-10.540664112701965,6.705300697562338,-0.8003802846819048,0.42640559424475066,-0.25014583894040043,-1.5998394938181697,-3.6014385532508375,0.5219350332417085
378,19.0,-4.25,-6.23,5.08,-0.769,0.713,-0.657,0.223,0.466,-0.524,0.0,0.0,0.0,1,60,19000000000.0,-4.934429277456438,-7.358472237877505,5.822030209174054,-0.7756799897767666,0.6485367792573427,-0.5604368273945333,-0.5084904041243983,-1.4287842452589112,-0.1515373497918936
379,19.0,-5.69,-4.95,4.75,-0.867,0.431,-0.605,-1.35,2.08,-0.536,0.0,0.0,0.0,1,60,19000000000.0,-5.436689689089773,-5.580504568256165,5.239434875648488,-0.847560482898086,0.479930194685816,-0.5944233462504664,-1.0123091759357774,0.44546043186106044,-0.39909095560943747
380,19.1,-2.98,-8.24,4.99,-0.7040000000000001,0.009770000000000001,-0.539,1.26,-0.98,-0.0589,0.0,0.0,0.0,1,60,19100000000.0,-3.803622347201417,-7.543780722895804,5.103879247949536,-0.7345600530422269,0.11552237935759219,-0.5521542135794804,0.34814112263036656,-0.31596048602834204,-0.1800436825180977
381,19.1,-7.25,-10.8,8.1,-0.639,0.405,-0.11699999999999999,-2.91,-3.4,3.3,0.0,0.0,0.0,1,60,19100000000.0,-6.094577880287491,-9.947566986019034,6.732122721061205,-0.6593420910547296,0.3398882636471281,-0.22027993859101924,-1.6025349761004313,-1.9633245139890654,2.0607391863032114
382,19.2,-6.44,-9.82,7.97,0.0999,0.49,0.18899999999999997,-1.88,-2.63,3.11,0.0,0.0,0.0,1,60,19200000000.0,-6.324194865777348,-9.853395046680609,7.404847610511228,-0.061721641337307176,0.45623561511191596,0.09186108354637468,-1.7686555787457539,-2.319434532543222,2.7363529624223393
383,19.2,-6.41,-7.53,6.57,0.435,-0.165,0.687,-1.65,-0.669,1.43,0.0,0.0,0.0,1,60,19200000000.0,-6.381233129498353,-8.138232832386946,6.9511493677588865,0.32926170334537397,-0.025266473804250622,0.5457491119796702,-1.6976154877432275,-1.4378419542637175,1.8951987231298788
384,19.3,-5.43,-11.4,6.58,0.805,-0.8340000000000001,1.01,-0.59,-5.16,0.7879999999999999,0.0,0.0,0.0,1,60,19300000000.0,-5.748907419987673,-10.546114202633229,6.7494480236219685,0.7037284807996894,-0.6520928574253494,0.899814219100755,-1.0344769153349986,-3.4260618853549296,1.182278938413147
385,19.3,-7.0,-9.23,11.1,2.05,-1.42,1.29,-2.15,-4.0,4.41,0.0,0.0,0.0,1,60,19300000000.0,-6.580562495935231,-9.574540151005598,9.113757797964562,1.7634159927849002,-1.2472758438524503,1.197392884446431,-1.70234987284173,-3.732635446044218,3.260592453170391
386,19.4,-8.0,-2.69,11.0,2.8,-1.41,1.44,-3.55,1.27,3.25,0.0,0.0,0.0,1,60,19400000000.0,-7.524123687253436,-4.492277401577258,10.138837031180847,2.57933989838632,-1.3733986904784579,1.3824194263393759,-2.8085532625196925,-1.0604383632189425,3.2537720250109796
387,19.4,-1.32,2.62,5.91,2.33,-2.45,0.598,2.56,5.31,-2.69,0.0,0.0,0.0,1,60,19400000000.0,-3.3999757264063524,0.7581040948786439,7.840673426816358,2.3830775077781796,-2.207841829833707,0.7841748895334222,0.405643959855547,2.3423813917108287,-0.5733933946192882
388,19.5,-2.63,-0.225,-0.529,2.13,-1.79,0.6970000000000001,0.799,1.51,-9.55,0.0,0.0,0.0,1,60,19500000000.0,-2.8881398029285137,0.03236305453959065,3.292170380259999,2.1838732915712114,-1.883984463559381,0.7176901965002507,0.6411494904865103,1.8977583155977928,-6.3533860727392515
389,19.5,-0.0383,-1.05,1.86,0.991,-0.7190000000000001,-0.0292,3.35,0.6809999999999999,-7.19,0.0,0.0,0.0,1,60,19500000000.0,-0.9937286494306012,-0.766652292334289,2.513856705068176,1.2449297272603688,-0.9810380742700016,0.14806767141406696,2.2629606459359746,1.2478172826764515,-6.892077675763087
390,19.6,-0.0239,-0.532,5.81,-0.893,0.35600000000000004,-0.28800000000000003,3.74,1.9,-2.91,0.0,0.0,0.0,1,60,19600000000.0,-0.34904181196601924,-0.5934287274344989,4.305147335210025,-0.4378938996874533,0.055262173576762885,-0.1845032499506103,3.1472763336594913,1.5961858009168874,-4.3280376285289055
391,19.6,-5.81,-2.24,4.81,-1.85,2.0,-0.597,-1.16,1.11,-3.15,0.0,0.0,0.0,1,60,19600000000.0,-3.9791756818219213,-1.8089504292924048,4.579509727959033,-1.54940168769588,1.5625732374565766,-0.49909760781888185,0.5684743751169439,1.3364858368357968,-3.56950509269696
392,19.7,-6.15,-3.68,8.13,-2.24,2.28,-0.418,-0.85,0.7290000000000001,1.15,0.0,0.0,0.0,1,60,19700000000.0,-5.422216086152524,-3.190185158886459,6.509025438608086,-2.092990728194749,2.1186303259174655,-0.43724779760546034,-0.2807779837203275,1.0119924815530532,-0.530639142354032
393,19.7,-5.16,-13.6,7.08,-2.22,1.29,-1.27,0.213,-8.04,1.03,0.0,0.0,0.0,1,60,19700000000.0,-5.247909668363527,-10.874854782922228,6.81932179754794,-2.1929632615238885,1.4763824616291186,-1.0723537385052797,0.014850980270318503,-3.8232005190436866,0.47424865717955367
394,19.8,-6.9,-11.5,7.28,-2.88,1.2,-1.47,-1.75,-4.83,2.22,0.0,0.0,0.0,1,60,19800000000.0,-6.346125269265443,-11.33634563146936,7.069677702579442,-2.7337489713255256,1.2621663011053545,-1.375622257376351,-1.0417799036504634,-4.360990344307471,1.5983293230558397
395,19.8,-6.19,-10.0,5.21,-2.07,0.778,-1.24,-1.24,-2.69,0.97,0.0,0.0,0.0,1,60,19800000000.0,-6.242342122314543,-10.349836797087084,6.059034980118462,-2.2112937447016487,0.8869027479360585,-1.2721887305165183,-1.160455921079091,-3.468417732177883,1.19375120085097
396,19.9,-5.73,-7.66,4.5,-1.31,0.19399999999999998,-0.753,-0.934,-0.115,0.469,0.0,0.0,0.0,1,60,19900000000.0,-5.90176627877635,-8.364161945151837,5.2117766692543235,-1.5018604641682605,0.34985350904058143,-0.8762247925305429,-1.0248748966124603,-1.6771632610776688,0.7270874979621287
397,19.9,-4.37,-6.81,6.22,0.434,0.00672,0.114,0.6509999999999999,0.48,2.0,0.0,0.0,0.0,1,60,19900000000.0,-4.883535241012164,-7.216858052134493,5.759696009944564,0.02190884002895155,0.08390047022072533,-0.12102095014345737,-0.021514716445062865,-0.5248975345602833,1.5467095565834357
398,20.0,-5.46,-5.86,4.53,1.75,0.309,0.748,-0.209,0.872,-0.295,0.0,0.0,0.0,1,60,20000000000.0,-5.266736198560421,-6.215206763576399,5.091417235070014,1.3821371896131864,0.25836871225253033,0.541745711548027,-0.13376371070878262,0.2212662655576103,0.36084189876321493
399,20.0,-9.72,-13.2,7.34,1.61,-0.902,0.313,-4.6,-6.86,1.86,0.0,0.0,0.0,1,60,20000000000.0,-8.227012461281216,-11.371477629166318,6.313410704638859,1.561494321425316,-0.6410001329910573,0.36729073279492114,-2.8077362727785014,-3.561247909329431,1.3261423879108452
400,20.1,-5.54,-7.76,7.27,0.972,-1.03,0.531,-0.34299999999999997,-1.9,1.37,0.0,0.0,0.0,1,60,20100000000.0,-6.440839623247143,-8.70543504508184,6.8332696075844765,1.0974870383584752,-0.942502861173315,0.4921450913576977,-1.3320782703782572,-2.673879252213853,1.354382090292149
401,20.1,-6.42,-4.5,4.65,1.24,-0.409,0.557,-1.27,0.8540000000000001,-1.75,0.0,0.0,0.0,1,60,20100000000.0,-6.4269866796033535,-5.60092470980846,5.646770739584971,1.2096629397637046,-0.5289999507467675,0.5416072564403905,-1.294911484859834,-0.789434800875852,-0.6445141696777026
402,20.2,0.239,-1.53,4.22,1.29,-0.618,0.597,5.14,3.31,-2.76,0.0,0.0,0.0,1,60,20200000000.0,-1.9958184825307024,-2.595711743953472,4.871391379924192,1.272898431905741,-0.5979813390137497,0.5838530326017936,2.5577231823926705,1.40031052898958,-2.0066650171558695
403,20.2,-2.77,-4.49,9.96,1.25,-2.15,0.249,1.51,-0.16899999999999998,2.26,0.0,0.0,0.0,1,60,20200000000.0,-2.5104502397098702,-3.9941013743425824,7.6367982061949355,1.2548744428010603,-1.8009070038595216,0.32847435467065594,1.9304426387271005,0.562050959969745,0.7406194595019291
404,20.3,-7.05,-5.2,9.74,1.47,-0.665,0.0887,-2.96,-1.54,1.61,0.0,0.0,0.0,1,60,20300000000.0,-5.528084441688932,-4.8843122834101855,8.779784109672399,1.4242057415870863,-0.9204977585363842,0.145608284286454,-0.9975058544866939,-0.5607760825449914,1.3004092949480741
405,20.3,-3.91,-1.3,12.2,1.53,-0.778,0.244,-0.18600000000000003,1.78,3.71,0.0,0.0,0.0,1,60,20300000000.0,-4.452474139653903,-2.2383233292490137,10.638501978983943,1.5074793060456022,-0.810051790234602,0.2206476131263157,-0.511650587805027,0.6895678679953656,2.8519328460277604
406,20.4,-0.0982,-1.93,5.57,1.04,-0.6659999999999999,0.228,3.35,0.617,-3.25,0.0,0.0,0.0,1,60,20400000000.0,-1.5580007429764153,-2.0107147430179833,7.884022230519511,1.1395133841399316,-0.698401344963888,0.22625497718072013,1.8003515125606835,0.6508051615543756,-1.07707150645007
407,20.4,-0.508,-0.97,4.8,0.727,-0.35100000000000003,0.5529999999999999,2.84,1.25,-4.15,0.0,0.0,0.0,1,60,20400000000.0,-0.8600200754280061,-1.2424447418611635,6.208008967560412,0.8148126882033255,-0.4291404362568185,0.4754499866314591,2.422797612451958,0.9708698000259265,-3.0557150125924757
408,20.5,-1.81,-0.429,5.8,0.209,0.33,0.27899999999999997,1.74,1.77,-3.07,0.0,0.0,0.0,1,60,20500000000.0,-1.4915125735476158,-0.6419485716534711,5.986276401274638,0.33796077001415115,0.1592477684804644,0.32562564853376375,2.014001038252368,1.3977314751117047,-3.0649130022829807
409,20.5,-2.17,-2.9,9.24,-0.40299999999999997,0.8140000000000001,-0.18600000000000003,1.7,-0.305,0.609,0.0,0.0,0.0,1,60,20500000000.0,-1.9425324138382583,-2.3088734481054325,7.754513933791921,-0.2452699441735504,0.6667276380404918,-0.06457025633429009,1.8260060472159363,0.4882040537827991,-0.6992985899938078
410,20.6,-5.81,-7.76,7.2,-1.63,0.9690000000000001,-0.185,-1.44,-4.43,-0.9279999999999999,0.0,0.0,0.0,1,60,20600000000.0,-4.513404508271658,-6.332970657643125,7.4531629657327105,-1.3352292678483377,0.9010103480201866,-0.1564170850898955,-0.12937882980791393,-2.138893254905752,-0.8465582785368179
411,20.6,0.00958,-3.8,6.28,-1.77,1.57,-0.115,4.89,0.414,-1.1,0.0,0.0,0.0,1,60,20600000000.0,-1.5067820687462046,-4.4630966376346075,6.815607100964579,-1.6774493215102035,1.4195252703974077,-0.12482997430561724,2.8757647250237848,-0.775245229736895,-1.0097481636977648
412,20.7,-2.95,-0.922,5.22,-2.33,1.28,-0.579,2.19,4.2,-1.38,0.0,0.0,0.0,1,60,20700000000.0,-2.4661511650526755,-1.8490100996148322,5.9484735393909824,-2.191089949508053,1.3113831732839119,-0.4712068254884664,2.4651917445267664,1.8823210617992914,-1.2481514851234397
413,20.7,-5.79,-8.57,3.52,-1.59,1.39,-1.05,-0.525,-2.67,-2.28,0.0,0.0,0.0,1,60,20700000000.0,-4.675656494797305,-6.810537608164507,4.628718414354282,-1.7179554508730455,1.372316832075323,-0.9126286082982626,0.674939221089371,-0.5493370997595111,-1.9125536173555635
414,20.8,-13.0,-16.6,11.2,-1.71,1.2,-1.16,-7.83,-10.0,6.17,0.0,0.0,0.0,1,60,20800000000.0,-10.209205842492018,-14.037254471154036,8.199884453516574,-1.7116935254762229,1.238758985831664,-1.1012885991408348,-4.417038213108045,-5.597483062312669,3.2917626940173936
415,20.8,-9.66,-8.27,7.84,-1.21,0.409,-0.9,-4.54,-1.17,3.42,0.0,0.0,0.0,1,60,20800000000.0,-9.844124983692156,-9.779787764669965,8.0043051568364,-1.3167967051727973,0.5956363660682636,-0.947774020791701,-4.490656429443203,-3.2325081184534015,3.3743341096374344
416,20.9,-5.04,-6.45,3.9,-0.818,0.885,-0.711,-0.0274,0.91,-0.19699999999999998,0.0,0.0,0.0,1,60,20900000000.0,-6.650616346737553,-7.321692226156676,5.773818594317382,-0.9241800368652494,0.8199138941796613,-0.7671962039852579,-1.8184678770344895,-1.0197547924539134,1.0747697580115854
417,20.9,-4.93,-7.19,4.58,-0.271,-0.79,-0.3,-0.111,0.21100000000000002,0.327,0.0,0.0,0.0,1,60,20900000000.0,-5.506848504015965,-7.224475244999119,5.125037262763571,-0.4100439617404821,-0.42788466455835916,-0.4108848269769152,-0.7961927326540665,-0.3623374367472352,0.5932845075300006
418,21.0,-6.83,-11.5,9.99,0.381,-0.0495,0.0984,-1.91,-4.26,5.49,0.0,0.0,0.0,1,60,21000000000.0,-6.386404191590771,-10.380726773872539,7.768903481167907,0.21260862973758932,-0.134609455969171,-0.02247417655518158,-1.4630383390542188,-2.444304690812266,3.7462552249981345
419,21.0,-4.99,-4.91,3.55,0.8540000000000001,0.14800000000000002,0.688,0.27699999999999997,1.78,-1.31,0.0,0.0,0.0,1,60,21000000000.0,-5.4581540821142935,-6.342160465609832,5.47613832635273,0.7174654958562701,0.08443310947411939,0.5193753607535713,-0.42126298272925844,-0.18785911125963572,0.4905575530105728
420,21.1,-4.15,-6.29,9.51,1.56,0.441,0.825,1.23,-0.142,4.09,0.0,0.0,0.0,1,60,21100000000.0,-4.588567833598342,-6.303654860061259,7.6683425202165,1.3806476628349538,0.360797992041865,0.7524627310269492,0.5673618386781979,-0.1633631085637756,2.8082208241558315
421,21.1,-9.95,-13.3,12.4,1.29,-0.863,0.698,-4.84,-7.89,6.04,0.0,0.0,0.0,1,60,21100000000.0,-8.152542385239357,-11.46845378226056,10.239763849326785,1.3092963501517059,-0.5877330601336541,0.7109262500147011,-2.6700705249517265,-4.290606939536236,4.889147412281965
422,21.2,-3.71,-7.09,5.39,2.34,-1.58,1.12,0.965,-2.8,-2.09,0.0,0.0,0.0,1,60,21200000000.0,-5.199393312102854,-8.23621873401491,7.604157276933172,2.1205916337973587,-1.3568110207450812,1.022910027558384,-0.49372374150003306,-3.4943874866027866,0.395308998432216
423,21.2,3.01,9.39,2.4,2.67,-2.55,0.455,6.77,12.6,-6.09,0.0,0.0,0.0,1,60,21200000000.0,0.2577436892705558,4.775700059352806,4.775955549997042,2.5530462150691577,-2.2816178782144108,0.5897883482703976,3.8551277497507126,5.102556451997257,-3.780549458959661
424,21.3,2.88,0.5479999999999999,-2.37,1.73,-1.56,0.508,6.27,2.86,-11.3,0.0,0.0,0.0,1,60,21300000000.0,2.0008703781104353,1.6547533663009437,0.8924826266508004,1.9052037894244767,-1.722312308488546,0.5274117413678193,5.300931734737711,3.9046772187605074,-8.622286560773215
425,21.3,2.0,-0.52,2.88,1.12,-0.617,0.414,5.39,1.52,-6.1,0.0,0.0,0.0,1,60,21300000000.0,2.0002918003256243,0.04932035621705344,1.972599962690329,1.287148172434941,-0.8656161135424397,0.440917260445244,5.354257562147527,2.6308831053488695,-6.998198669241498
426,21.4,-7.27,-2.64,10.8,-0.225,0.7140000000000001,0.0599,-3.36,-0.47,2.11,0.0,0.0,0.0,1,60,21400000000.0,-4.162070073259547,-1.9359732167218549,6.769854868392596,0.09689452583630676,0.35869946882048687,0.15033102110333707,0.1369595224286284,0.9745219920771224,-1.1334747029969732
427,21.4,-4.32,-1.9,7.72,-0.504,1.12,-0.254,0.0585,0.85,-0.619,0.0,0.0,0.0,1,60,21400000000.0,-4.267053005841151,-1.9094172728239867,7.286211583787422,-0.3760861820752716,0.9487618953236994,-0.15803567415650993,0.08998515679927244,0.9080076027870307,-0.8022069999590092
