,Time (s),Acceleration x (m/s^2),Acceleration y (m/s^2),Acceleration z (m/s^2),Gyroscope x (rad/s),Gyroscope y (rad/s),Gyroscope z (rad/s),Linear Acceleration x (m/s^2),Linear Acceleration y (m/s^2),Linear Acceleration z (m/s^2),Still,Walk,Run,Cycle,SPM/RPM,Timestamps,Acceleration x (m/s^2)_kalman,Acceleration y (m/s^2)_kalman,Acceleration z (m/s^2)_kalman,Gyroscope x (rad/s)_kalman,Gyroscope y (rad/s)_kalman,Gyroscope z (rad/s)_kalman,Linear Acceleration x (m/s^2)_kalman,Linear Acceleration y (m/s^2)_kalman,Linear Acceleration z (m/s^2)_kalman
0,0.0453,0.402,4.69,7.8,-0.0589,0.0586,0.266,2.59,-0.368,-0.314,0.0,0.0,0.0,1.0,90.0,45300000.0,0.33448926859812045,3.031464881810142,7.238333273726663,-0.2922405258367045,0.12475584690136682,0.28107652193465155,2.124323979534135,-0.7377036842769398,-0.010955580753236306
1,0.0953,0.828,3.71,10.1,-1.63,-0.00733,0.264,2.81,-0.84,1.63,0.0,0.0,0.0,1.0,90.0,95300000.0,0.6218045123467414,3.4952814876612033,8.512524936616096,-1.4435917968564753,0.025896394103732845,0.26768436384737987,2.5079055745734746,-0.7796295859278028,1.227372185175555
2,0.145,0.596,1.35,8.24,-1.67,1.03,0.377,2.67,-2.55,-0.515,0.0,0.0,0.0,1.0,90.0,145000000.0,0.6048930693794726,1.916100078350527,8.365179692303744,-1.640927639349823,0.8067743175242856,0.3557244820242035,2.6111788528480866,-1.6925192321506641,-0.1464326652520067
3,0.195,-2.59,-2.28,6.59,-2.08,2.42,1.6,-0.11699999999999999,-5.44,-2.36,0.0,0.0,0.0,1.0,90.0,195000000.0,-1.5160242158270791,-1.1878750129243416,7.371166799221895,-2.0236991813612404,2.063674541332263,1.3588251704955554,0.8458601999127184,-3.7133841657026085,-1.8950867468873005
4,0.245,0.498,-0.23199999999999998,14.5,-1.95,1.44,1.38,0.845,-4.65,-2.29,0.0,0.0,0.0,1.0,90.0,245000000.0,-0.1770980918408005,-0.4805534118872985,11.38935812686379,-1.9594500181676708,1.5777121487625976,1.3758963653366265,0.8453025477078219,-4.223107174847608,-2.2070829378940733
5,0.295,-4.21,-0.91,10.2,0.0742,-0.00855,1.18,-0.7859999999999999,-3.17,1.34,0.0,0.0,0.0,1.0,90.0,295000000.0,-2.858609700781348,-0.7983393581157994,10.718135068956451,-0.1865618921876533,0.34170338727822736,1.2179639799034692,-0.21252598960374092,-3.6489053533005475,0.5952554674841317
6,0.345,-2.16,0.165,8.39,-0.92,1.31,1.95,1.35,-2.23,-0.447,0.0,0.0,0.0,1.0,90.0,345000000.0,-2.394089669879743,-0.08547735544800916,9.403924317273253,-0.8259559539174856,1.096196131505723,1.8081340798450598,0.8007334439839894,-2.8749523075963936,-0.22816846026048565
7,0.395,0.242,7.54,12.5,-0.838,0.377,1.95,3.93,5.33,3.72,0.0,0.0,0.0,1.0,90.0,395000000.0,-0.6412953778319546,5.557304187222183,11.151709128602464,-0.8364556688659308,0.5358014234921787,1.9225069314946626,2.829992669341145,1.6008633257767362,2.891044188615231
8,0.445,2.98,4.48,11.8,-0.0357,0.639,2.03,6.67,2.1,2.99,0.0,0.0,0.0,1.0,90.0,445000000.0,1.7665845312020432,4.76010922291386,11.517683035118969,-0.13837576008127161,0.6162133350274477,2.0091682054668585,5.320152460065384,1.873147717529157,2.969223285902019
9,0.495,1.51,-1.74,10.9,-0.139,-0.511,0.387,5.17,-4.36,2.23,0.0,0.0,0.0,1.0,90.0,495000000.0,1.5959757548547056,-0.049910549760664225,11.168987224059576,-0.13891995647513433,-0.26210671066896296,0.7013703806427123,5.222781958018499,-1.5271133910064514,2.3852070334302184
10,0.545,-5.18,0.0215,6.23,0.17600000000000002,0.157,0.792,-1.86,-2.66,-2.6,0.0,0.0,0.0,1.0,90.0,545000000.0,-2.9095213526803154,0.002932586803019707,8.380819968813167,0.1356198346225158,0.06445954414178073,0.7744363010864411,0.6297543690416498,-2.1451178715724586,-1.5533078975953045
11,0.595,-1.05,0.469,6.63,-1.35,2.42,1.77,2.68,-2.28,-2.01,0.0,0.0,0.0,1.0,90.0,595000000.0,-1.6730841503048233,0.34781810318073725,7.392443472080728,-1.1595085255919777,1.8998871820931025,1.5770633074472826,1.959293397417819,-2.2186978285301895,-1.9141131056817577
12,0.645,-3.62,-0.23199999999999998,10.3,-1.88,3.79,-0.0708,1.23,-2.47,2.1,0.0,0.0,0.0,1.0,90.0,645000000.0,-2.9676317928190334,-0.08124184167598086,9.033823507886627,-1.7876159989179399,3.3726554013038057,0.2485500046024096,1.4863627575311305,-2.3557864833604425,1.2571983809564962
13,0.695,-6.0,0.0,3.26,-1.83,1.69,0.066,0.317,-1.66,-4.06,0.0,0.0,0.0,1.0,90.0,695000000.0,-4.983920963826479,-0.02112364198599706,5.774372501912726,-1.824565409016939,2.0615371753502356,0.10137753642260561,0.7280568509943762,-1.9762257863414008,-2.943603160372641
14,0.745,-4.99,-2.88,13.3,-3.02,-0.0202,0.619,1.4,-3.67,5.89,0.0,0.0,0.0,1.0,90.0,745000000.0,-4.987962898208275,-2.1366653765704684,10.022755687959762,-2.866717079270807,0.4394560041748514,0.5186866357197145,1.1637971190291314,-2.9002019420308502,4.0353001927455425
15,0.795,-2.76,-2.65,13.9,-1.07,1.97,0.41700000000000004,3.93,-2.81,6.72,0.0,0.0,0.0,1.0,90.0,795000000.0,-3.5065407299977047,-2.5165282464389334,12.211545594287571,-1.3003815436658277,1.632049706217111,0.4367065021412857,2.9576186029352707,-2.8509955648763814,6.15632136222359
16,0.845,-3.72,-5.12,10.3,1.02,-0.204,1.23,3.47,-5.4,3.6,0.0,0.0,0.0,1.0,90.0,845000000.0,-3.648474572736287,-4.443072803516701,11.132435958741016,0.7224723525681882,0.20140721781861104,1.0762625783161803,3.2898866348542986,-4.241511067235145,4.136724110933587
17,0.895,-0.16,-7.73,5.08,1.03,1.86,1.82,6.93,-9.11,-1.55,0.0,0.0,0.0,1.0,90.0,895000000.0,-1.3289101165133514,-6.87536806707554,7.715702026178187,0.9905676788495412,1.4937760041866892,1.6758663952010733,5.650419601419715,-6.897335635522143,-0.3560176969793636
18,0.945,-3.52,-6.74,1.23,-1.49,0.6990000000000001,-2.78,4.14,-8.15,-4.72,0.0,0.0,0.0,1.0,90.0,945000000.0,-2.785814576816268,-6.775196799657505,4.0543798749150355,-1.1719327376308752,0.8744897629172329,-1.916469037460836,4.670945780648174,-7.5806803164779,-3.8037398971582936
19,0.995,-8.03,-5.86,2.53,-0.7190000000000001,1.13,-1.89,0.00799,-5.86,-3.09,0.0,0.0,0.0,1.0,90.0,995000000.0,-6.272790108375648,-6.097959863667844,3.1938337225318305,-0.7770766417725642,1.0735823006035727,-1.8951295930733831,1.6471219990303254,-6.64202664190584,-3.239856468687328
20,1.05,-9.68,-2.65,2.48,0.201,1.56,-2.86,-1.3,-1.58,-2.51,0.0,0.0,0.0,1.0,90.0,1050000000.0,-8.538320068388124,-3.5465020237479195,2.7908588174363556,0.07558751486896653,1.4525969564121866,-2.6730114882457325,-0.2640214607650089,-3.8806245434978663,-2.663240357720364
21,1.1,-13.7,-2.35,2.09,-1.01,0.527,-2.07,-5.39,-0.17600000000000002,-2.61,0.0,0.0,0.0,1.0,90.0,1100000000.0,-11.970435911410846,-2.6611016950188864,2.3952084738604476,-0.8708020730459163,0.731375566317418,-2.186861411667256,-3.5881051827395174,-1.8597031218477889,-2.6211782408239808
22,1.15,-13.6,-2.26,6.06,-1.93,1.92,-1.9,-5.27,1.05,2.07,0.0,0.0,0.0,1.0,90.0,1150000000.0,-13.053969628279095,-2.3642902014212788,4.464064269303517,-1.794185803096765,1.6575468752712799,-1.9555926943713016,-4.678776792765754,-0.2724218190700889,1.0850420850755342
23,1.2,-16.0,0.0407,3.45,-0.8859999999999999,0.12300000000000001,0.33799999999999997,-7.73,4.12,0.153,0.0,0.0,0.0,1.0,90.0,1200000000.0,-15.01285084919953,-0.5846200439562648,3.891602600026501,-1.002450816344383,0.4618341707246152,-0.10649004529983852,-6.657427628938031,2.123702001115868,0.3486911722067281
24,1.25,-11.7,-2.51,6.79,-1.0,0.511,1.61,-3.16,1.38,3.93,0.0,0.0,0.0,1.0,90.0,1250000000.0,-12.810062394563392,-2.009383118196362,5.527811980660183,-1.0003142524480384,0.5001439682121516,1.2773503919187836,-4.389423153567222,1.7180027738442123,3.1780699179731107
25,1.3,-4.87,-4.49,18.4,0.358,2.23,1.36,4.06,-1.27,15.9,0.0,0.0,0.0,1.0,90.0,1300000000.0,-7.530537956824016,-3.84501613953323,12.794446445538133,0.18383209137174883,1.8480407936288363,1.3439828136674872,1.0898410086261103,0.08800796529887789,13.228908468834451
26,1.35,-0.603,-6.18,3.59,0.255,-0.0312,3.16,8.78,-3.89,1.89,0.0,0.0,0.0,1.0,90.0,1350000000.0,-2.9242636393378687,-5.572882135436171,7.598332911720953,0.24587459174679271,0.38374398261745246,2.808062446313466,6.076739003839619,-2.082047765884662,4.270712566994446
27,1.4,-5.98,-3.68,1.59,-0.857,-1.14,1.52,3.53,-2.41,-0.436,0.0,0.0,0.0,1.0,90.0,1400000000.0,-4.956090828835211,-4.172167185517995,4.20649618602153,-0.7155854646378743,-0.80355114324771,1.7696218708543754,4.4252350192664345,-2.2609500704789025,0.5522194512321401
28,1.45,-8.3,-0.249,4.59,-0.373,-0.826,1.2,1.16,0.39399999999999996,2.09,0.0,0.0,0.0,1.0,90.0,1450000000.0,-7.179530653611673,-1.2690603192475587,4.422992652610455,-0.41692753153936096,-0.8210431821452587,1.310390715733575,2.307802242958797,-0.8126398857529873,1.7671281579650047
29,1.5,-9.9,-4.23,3.65,0.444,-0.341,0.6920000000000001,-0.48100000000000004,-3.98,0.9179999999999999,0.0,0.0,0.0,1.0,90.0,1500000000.0,-8.98843107046751,-3.460127883349364,3.986621266830553,0.3336087939170121,-0.44699547251790595,0.8118418819804899,0.4993256114760358,-2.5404765036620027,1.0962825867261654
30,1.55,-5.92,-5.7,4.2,0.0205,-0.46399999999999997,0.778,3.49,-5.76,1.44,0.0,0.0,0.0,1.0,90.0,1550000000.0,-6.948162949040876,-5.117612068152186,4.1070781708271085,0.060647931290764845,-0.4602453210258489,0.7845584331464432,2.4387118705412476,-4.296769047140443,1.3678332778840714
31,1.6,1.29,-3.26,4.12,0.113,-2.32,-1.24,10.5,-3.48,0.698,0.0,0.0,0.0,1.0,90.0,1600000000.0,-1.4704249135003167,-3.7429965802558067,4.114372764431418,0.10628722856285176,-1.9093585790990226,-0.847647838494973,7.66627908373423,-3.8512107981046544,0.8386379316209641
32,1.65,-12.4,-5.25,3.08,1.17,0.858,-2.24,-3.41,-4.52,-0.7040000000000001,0.0,0.0,0.0,1.0,90.0,1650000000.0,-8.73774260575609,-4.858164954737098,3.5304464307416192,1.0336069018834178,0.2469559971040507,-1.97016714838261,0.48355680645996646,-4.216044094951649,-0.3801083686464427
33,1.7,-12.4,-3.4,3.65,1.29,1.01,-1.9,-3.27,-1.91,0.439,0.0,0.0,0.0,1.0,90.0,1700000000.0,-11.172858875218347,-3.7791366561649333,3.5979371171900136,1.2571243255614075,0.8415167848586318,-1.9135981226861551,-1.9505418238686079,-2.9580666879853093,0.26702035067054464
34,1.75,-6.68,-0.354,4.03,0.348,-0.41700000000000004,-1.99,2.41,1.83,1.05,0.0,0.0,0.0,1.0,90.0,1750000000.0,-8.185456810509102,-1.244567706422802,3.8418462838483127,0.4645711678637241,-0.13911439102179202,-1.9751935976567347,0.877173245091277,-0.34611330143779595,0.8856058758220003
35,1.8,-10.4,-2.98,3.33,-0.327,0.884,-2.09,-1.57,0.13,0.293,0.0,0.0,0.0,1.0,90.0,1800000000.0,-9.657955655462642,-2.5287713158940255,3.552897699041364,-0.22550190338498888,0.6580921993813964,-2.067750861445835,-0.7097645606038001,-0.08638723505064672,0.4174232969704914
36,1.85,-11.4,-5.26,5.39,0.0644,0.381,-1.1,-2.8,-1.4,2.54,0.0,0.0,0.0,1.0,90.0,1850000000.0,-10.81627949286342,-4.549855055538044,4.589982482219768,0.0272277418683452,0.4421830898815653,-1.2875466681650463,-2.0652360219998114,-0.802980265303231,2.0943446345900325
37,1.9,0.0287,-9.25,3.57,-0.44799999999999995,-0.9670000000000001,-0.428,8.41,-5.02,0.7340000000000001,0.0,0.0,0.0,1.0,90.0,1900000000.0,-3.6052110418645658,-8.02791816333896,4.014179786323353,-0.38706460920454583,-0.6558466696583121,-0.5945770665420982,4.727722957011092,-3.1034199931530484,1.0196174238259983
38,1.95,2.57,-5.86,3.3,0.14800000000000002,0.0819,-0.789,10.8,-1.4,0.313,0.0,0.0,0.0,1.0,90.0,1950000000.0,0.5008242965605048,-6.423679185740284,3.6110094828818085,0.07939210140677883,-0.08099745358030053,-0.7513215118496956,8.665460557585337,-2.174181966166372,0.46136109982745344
39,2.0,-10.8,-3.31,5.5,-0.121,-0.069,-3.29,-2.99,1.83,2.48,0.0,0.0,0.0,1.0,90.0,2000000000.0,-7.0133456460085295,-4.119585794487018,4.677386386457615,-0.09530500658288893,-0.07164908501760683,-2.798013175778494,1.107151942775661,0.010151992981746627,2.0561674183168988
40,2.05,-9.01,-5.61,4.54,0.382,0.698,-2.41,-1.88,0.42,1.57,0.0,0.0,0.0,1.0,90.0,2050000000.0,-8.340965756309883,-5.222478405068423,4.599828712803066,0.32079824220546266,0.5280583741681624,-2.485195632189866,-0.8299500787844134,0.2337294650210948,1.6720755534804854
41,2.1,-17.6,-14.3,5.46,0.34600000000000003,0.42,-2.75,-11.3,-7.27,2.79,0.0,0.0,0.0,1.0,90.0,2100000000.0,-14.497504135947455,-11.939759256201775,5.085414440286916,0.34276852810519676,0.44385971665360696,-2.6986818624638205,-7.619546208676688,-3.859653655893018,2.555281010914157
42,2.15,-2.31,-16.3,2.36,-0.16,0.43200000000000005,0.0984,3.61,-8.89,-0.276,0.0,0.0,0.0,1.0,90.0,2150000000.0,-6.39376110496848,-15.166295883854538,3.5468576834773775,-0.09553321579695173,0.4346186822243623,-0.44366444401634286,-0.33743371146942014,-6.603773945809834,0.31845460697022476
43,2.2,-2.06,-3.54,2.83,-0.0785,1.46,0.39299999999999996,4.21,3.71,0.765,0.0,0.0,0.0,1.0,90.0,2200000000.0,-3.512146767908116,-6.562946113900017,3.1421756317456153,-0.08068406221167376,1.23359167989163,0.2308574343786013,2.6114765857311797,-0.9774745645532423,0.6712435008593518
44,2.25,-4.51,-6.1,1.31,0.981,0.649,-0.9640000000000001,1.72,1.28,-0.382,0.0,0.0,0.0,1.0,90.0,2250000000.0,-4.175641762628782,-6.220370267755826,2.1078719545693128,0.8448670730617314,0.7780802031526755,-0.7324409003106713,2.0333737383332,0.25400749085495145,-0.16086142534762093
45,2.3,-5.48,-9.74,2.82,0.0504,0.162,-0.161,0.7170000000000001,-2.34,1.09,0.0,0.0,0.0,1.0,90.0,2300000000.0,-5.042938623661995,-8.824863038387505,2.5098839403182143,0.15226941314790643,0.2980330055980877,-0.27174319743140984,1.1797344632664035,-1.1610576715739704,0.8273696737914945
46,2.35,-4.43,-9.15,2.76,0.0217,-0.0745,0.0587,1.7,-1.69,1.05,0.0,0.0,0.0,1.0,90.0,2350000000.0,-4.6353819646207715,-9.065461053502668,2.651079979510185,0.03844207806261657,0.007756795615283918,-0.005338708297827288,1.5171151979053021,-1.4496027009407577,1.0032565902148698
47,2.4,-3.59,-8.11,2.89,0.0351,0.0648,-0.0402,2.53,-0.652,1.13,0.0,0.0,0.0,1.0,90.0,2400000000.0,-3.9402841519935152,-8.358428595037317,2.7859556716911453,0.03552853482277763,0.05220463064125799,-0.03344400560134843,2.173948590729994,-1.0144999409391706,1.103389001821741
48,2.45,-4.3,-6.83,3.13,0.21600000000000003,0.20199999999999999,-0.126,1.85,0.5820000000000001,1.28,0.0,0.0,0.0,1.0,90.0,2450000000.0,-4.1794673593080764,-7.227405735641016,2.9801763648218196,0.1928593073519473,0.1689245809518406,-0.1080629816003968,1.9638751037351834,-0.1435882125615393,1.2429188045498294
49,2.5,-5.01,-3.21,2.8,-0.0168,-0.114,-1.01,0.8190000000000001,4.47,0.996,0.0,0.0,0.0,1.0,90.0,2500000000.0,-4.73170716551715,-4.254563257243203,2.8784627971125603,0.010083267699856735,-0.05152910615570125,-0.8352078303015262,1.2214489021826511,2.373184732593181,1.0478429646740786
50,2.55,-3.08,-6.18,2.77,-0.397,-0.342,-0.679,2.43,1.73,0.9670000000000001,0.0,0.0,0.0,1.0,90.0,2550000000.0,-3.633450226451024,-5.67936823314683,2.817233139774714,-0.3448023385388549,-0.2778628555895716,-0.7092725338764528,2.0051676257832556,2.0223190105656705,0.983973761781474
51,2.6,-6.51,-15.1,4.11,-0.239,-0.701,-0.917,-1.32,-6.96,2.37,0.0,0.0,0.0,1.0,90.0,2600000000.0,-5.5461324020624065,-12.650547529617642,3.5470286847159693,-0.2525663482818396,-0.6075695846326563,-0.8767431580116638,-0.15113013382544382,-2.8776541888308316,2.0789904082541226
52,2.65,-1.35,-14.8,3.53,-0.36,-0.654,-0.853,3.43,-6.48,1.68,0.0,0.0,0.0,1.0,90.0,2650000000.0,-2.756030509327697,-14.241122307828467,3.5374155996188694,-0.3462244849281684,-0.643747963888698,-0.85760132702009,2.1711536652524557,-4.842781226449983,1.763771821272285
53,2.7,-1.61,-9.12,3.14,-0.0382,-0.00611,0.121,2.84,-0.5660000000000001,1.34,0.0,0.0,0.0,1.0,90.0,2700000000.0,-1.9940093038265059,-10.451539820927913,3.3130657678719975,-0.07769600113028857,-0.14690304611717436,-0.06864943081711317,2.604885677476118,-2.5097407999848227,1.4289749844101274
54,2.75,-3.13,-7.58,1.85,0.217,0.299,-0.136,1.33,0.96,0.0111,0.0,0.0,0.0,1.0,90.0,2750000000.0,-2.7493548995173187,-8.326627270970569,2.487132813890379,0.179213017090755,0.20054279670718383,-0.12294770700657792,1.7781505159519884,-0.6169515624356525,0.3087964508584482
55,2.8,-0.41700000000000004,1.72,3.26,-0.253,0.632,-0.49200000000000005,3.95,10.3,1.47,0.0,0.0,0.0,1.0,90.0,2800000000.0,-1.1985201676526873,-0.8922174428929068,2.9234334195104092,-0.19758009150552025,0.5367325239034676,-0.420478999099401,3.1865469436370013,5.338389226456368,1.226194200993365
56,2.85,-7.24,-4.09,0.769,-0.397,-0.0483,-1.14,-3.57,4.87,-0.7709999999999999,0.0,0.0,0.0,1.0,90.0,2850000000.0,-5.2156345380280635,-3.258546609498418,1.7072081263453494,-0.37142967809766037,0.08087755046306139,-1.000559396947687,-1.1949243994980492,5.082876679548047,-0.35166994535491014
57,2.9,0.268,-7.39,2.55,-0.542,-0.48700000000000004,0.318,3.9,1.62,1.19,0.0,0.0,0.0,1.0,90.0,2900000000.0,-1.5694437739674494,-6.315783210608378,2.182982742254473,-0.5201288587729199,-0.36161032688833933,0.062467904989553125,2.1090215475178473,3.1938319008872886,0.866311654866667
58,2.95,-1.88,-7.63,3.62,-0.7909999999999999,-0.519,-2.32,1.41,1.54,2.48,0.0,0.0,0.0,1.0,90.0,2950000000.0,-1.775939523540816,-7.288291374267053,2.99421068531494,-0.7562679397661249,-0.48424771760041074,-1.8582862039375618,1.6557214993214622,2.2916448227367674,2.141190671006487
59,3.0,6.06,-2.85,2.69,0.184,-0.29600000000000004,-1.79,8.23,6.65,1.6,0.0,0.0,0.0,1.0,90.0,3000000000.0,3.4343511836380882,-4.003997378101729,2.822477061094768,0.0634354779799825,-0.33756586180242704,-1.8032335908603692,5.918995531416351,4.669184956139113,1.713628190477324
60,3.05,1.47,-15.6,2.25,0.15,-0.45299999999999996,-0.8370000000000001,2.97,-5.94,1.04,0.0,0.0,0.0,1.0,90.0,3050000000.0,2.1282103421131944,-12.584930672825848,2.4993011053415612,0.13890039219564812,-0.42751168160377095,-1.024252617336563,4.00663711490136,-1.118265027654485,1.181434668852299
61,3.1,5.75,-15.7,1.85,0.505,0.721,0.8859999999999999,6.84,-6.07,0.47200000000000003,0.0,0.0,0.0,1.0,90.0,3100000000.0,4.53641896584643,-14.890052572197188,2.1327562918533562,0.45805739312943483,0.46740397916862664,0.5157998702191828,5.844010433038477,-3.8195016865350224,0.6209526147854324
62,3.15,-4.22,-2.05,1.03,0.32,0.627,0.0251,-2.69,7.52,-0.465,0.0,0.0,0.0,1.0,90.0,3150000000.0,-1.2859189259719708,-5.38853424731019,1.5102259722154256,0.33770220709448706,0.5917605318501962,0.12019587655371766,0.30989321510969603,2.366345639054784,-0.23699383657411888
63,3.2,1.19,-11.4,2.52,0.124,-0.319,-0.0744,2.69,-1.86,0.929,0.0,0.0,0.0,1.0,90.0,3200000000.0,0.3603747603565086,-9.836962152942949,2.080265721469119,0.151401660493527,-0.11790038860452179,-0.03668801669320121,1.8533399064947236,0.06081848949117141,0.6841884274249017
64,3.25,0.0718,-8.88,2.35,-0.00886,0.11199999999999999,-0.0451,1.49,0.679,0.698,0.0,0.0,0.0,1.0,90.0,3250000000.0,0.16849497444911274,-9.128819233733276,2.232536630414286,0.011689323647997962,0.06123706532846451,-0.043469787583068,1.6177220124212632,0.3980446462955646,0.6951001388035241
65,3.3,0.0407,-9.59,2.73,-0.0541,-0.184,-0.0916,1.39,-0.013,1.09,0.0,0.0,0.0,1.0,90.0,3300000000.0,0.08352124898743388,-9.470088781554335,2.5133657098794497,-0.04566425677980529,-0.1298506625481969,-0.08227253800363321,1.4700493103023033,0.1738143844895535,1.0070870132438408
66,3.35,-0.0168,-9.87,3.03,0.0101,-0.13699999999999998,-0.0531,1.24,-0.293,1.35,0.0,0.0,0.0,1.0,90.0,3350000000.0,0.01681541614411837,-9.76601924192827,2.805017170846566,0.002949706961208956,-0.13542139304855033,-0.058753534183381334,1.3208674223971557,-0.08083900987371867,1.2780021485758282
67,3.4,-0.0168,-9.91,2.55,0.10800000000000001,-0.18600000000000003,-0.0103,1.17,-0.33299999999999996,0.812,0.0,0.0,0.0,1.0,90.0,3400000000.0,-0.005536222480113442,-9.872563537495628,2.6610543137594327,0.09453007768418177,-0.17483204207633443,-0.01969012144780586,1.2230332050190322,-0.21839614939188723,0.9098416018057046
68,3.45,0.591,-9.89,2.31,0.0895,-0.14300000000000002,0.0636,1.74,-0.322,0.48200000000000004,0.0,0.0,0.0,1.0,90.0,3450000000.0,0.3911140141219647,-9.885466610013992,2.4628763611864364,0.09014497680771254,-0.15002864907627791,0.0474586759380699,1.558274753789648,-0.27491341106938344,0.5718294422196238
69,3.5,-0.261,-9.06,1.86,-0.0785,-0.12,-0.134,0.84,0.502,0.004370000000000001,0.0,0.0,0.0,1.0,90.0,3500000000.0,-0.042491125493215376,-9.27462938318748,2.1225393366220233,-0.05687573944318776,-0.1266304453028171,-0.09883396156436289,1.0924894314226212,0.14890306056517483,0.12351355225547878
70,3.55,-0.11,-10.3,2.91,-0.16,-0.20800000000000002,-0.203,0.6829999999999999,-0.6990000000000001,1.02,0.0,0.0,0.0,1.0,90.0,3550000000.0,-0.08737927960684125,-10.033394148888728,2.5670783365899514,-0.1467770349062083,-0.19003327595559696,-0.18281299032839451,0.8269446023075184,-0.3136392132726779,0.8317740575164241
71,3.6,0.6609999999999999,-9.1,2.51,-0.11800000000000001,0.0776,-0.24100000000000002,1.26,0.502,0.615,0.0,0.0,0.0,1.0,90.0,3600000000.0,0.4102347834299034,-9.342691528890493,2.534856348468661,-0.12168989508964091,0.018505489996567648,-0.22972356335196611,1.1077714518462032,0.1313026928841009,0.6605137998713104
72,3.65,-0.153,-9.65,2.95,-0.138,0.055,-0.191,0.299,-0.0369,1.08,0.0,0.0,0.0,1.0,90.0,3650000000.0,0.03572743102228704,-9.57009662850647,2.7692141435428947,-0.13590865692819482,0.04694186408247272,-0.1985044875206265,0.5833010343504204,0.03954591194917173,0.9919248831253167
73,3.7,0.0383,-10.0,3.13,-0.261,-0.175,-0.24,0.364,-0.377,1.3,0.0,0.0,0.0,1.0,90.0,3700000000.0,0.0374379895301714,-9.888221085087892,2.9728857993894087,-0.24496034648311293,-0.1259943347751286,-0.23195831405882633,0.4410891549068604,-0.18768536470224084,1.2353166369602904
74,3.75,0.0383,-9.85,2.77,-0.29100000000000004,-0.161,-0.27399999999999997,0.204,-0.213,0.985,0.0,0.0,0.0,1.0,90.0,3750000000.0,0.03801115958118693,-9.859938123438983,2.8583522700194632,-0.2850966382408036,-0.15327060606709286,-0.26585246308215427,0.28734207468439266,-0.20149483099956692,1.0375563898812747
75,3.8,0.0479,-9.25,2.7,-0.204,-0.242,-0.191,0.0622,0.39399999999999996,0.9440000000000001,0.0,0.0,0.0,1.0,90.0,3800000000.0,0.044586469014655614,-9.408589641585452,2.768958940090864,-0.21439849803634478,-0.22240818926441228,-0.20550613881783628,0.14134241357533983,0.12335542939291652,0.9636430658243442
76,3.85,0.596,-10.1,2.36,-0.0308,-0.221,-0.00359,0.5379999999999999,-0.41700000000000004,0.619,0.0,0.0,0.0,1.0,90.0,3850000000.0,0.4112336197030165,-9.920227094290459,2.538092519037337,-0.05434165673806646,-0.22131093454580764,-0.04272062419841177,0.3985660849722436,-0.17141556312986098,0.6913611308914729
77,3.9,0.821,-10.2,1.98,0.0339,-0.17300000000000001,-0.0573,0.728,-0.519,0.22699999999999998,0.0,0.0,0.0,1.0,90.0,3900000000.0,0.6836964007396529,-10.127256275309497,2.2230369660172715,0.022585338915197137,-0.18366724462431902,-0.05447457033073064,0.6121966894343225,-0.36102744237620593,0.32449707135719996
78,3.95,-0.292,-10.5,2.78,0.313,-0.16,0.0105,-0.44299999999999995,-0.838,0.96,0.0,0.0,0.0,1.0,90.0,3950000000.0,0.03493413180027971,-10.40308313018934,2.537454894372726,0.2757619865703122,-0.16522582072661945,-0.002091839003194637,-0.07207503860631659,-0.6212222466570301,0.8265700484182982
79,4.0,-1.38,-10.5,3.43,0.593,0.344,0.5429999999999999,-1.43,-0.862,1.39,0.0,0.0,0.0,1.0,90.0,4000000000.0,-0.9058870888116417,-10.474800703454644,3.041316374143902,0.5523226013175937,0.2315608844923892,0.437363141137438,-0.9526593345602395,-0.752569672184606,1.2717024668155557
80,4.05,0.00718,-12.2,5.81,1.19,0.5720000000000001,1.52,0.49,-2.76,3.36,0.0,0.0,0.0,1.0,90.0,4050000000.0,-0.2987684415451486,-11.751431835990385,4.604299451161728,1.1082347703046866,0.49682968463597094,1.310188841082073,-0.01712662987396818,-1.8476493176388762,2.9215418223108705
81,4.1,-1.31,-12.4,3.7,1.86,0.423,1.67,0.007490000000000001,-3.16,0.545,0.0,0.0,0.0,1.0,90.0,4100000000.0,-0.9711587932488587,-12.231365902708504,4.093802448107692,1.7636059826516517,0.43930189965768374,1.6002698522122685,-0.0011632892363737345,-2.5635539250652752,1.0439777608911014
82,4.15,-2.7,-9.59,6.64,2.19,-0.47200000000000003,1.46,-0.653,-0.8740000000000001,2.64,0.0,0.0,0.0,1.0,90.0,4150000000.0,-2.1207038555717266,-10.276780059451058,5.53118717518658,2.1353262820641135,-0.2707808501696969,1.4871838254458984,-0.4238649899900082,-1.641880040651614,2.3048999072019822
83,4.2,-2.34,-9.98,5.53,2.12,-0.693,1.42,0.183,-1.92,0.547,0.0,0.0,0.0,1.0,90.0,4200000000.0,-2.2665186900460035,-10.05716526453822,5.5305171069923675,2.1219650910027092,-0.5997723153666938,1.4330199500148588,-0.030326455597613045,-1.7935981136069066,0.9160879374151099
84,4.25,-0.812,-9.22,5.75,2.01,-1.08,1.6,2.08,-1.93,-0.142,0.0,0.0,0.0,1.0,90.0,4250000000.0,-1.2993767961510507,-9.437671030342205,5.654420051825782,2.0243565566009125,-0.9739638147793706,1.5676398839192436,1.3381735672796002,-1.8680071083258432,0.08015570632949265
85,4.3,-0.321,-6.1,5.77,2.27,-1.52,1.15,2.65,0.313,-1.03,0.0,0.0,0.0,1.0,90.0,4300000000.0,-0.6488322762394356,-6.9678257499363,5.719667476729735,2.238502701411562,-1.3994329828907635,1.2309370936397117,2.1888640819342555,-0.6782390440886967,-0.7969121399571991
86,4.35,-2.0,-3.19,5.95,1.81,-0.955,0.755,0.831,2.35,-1.63,0.0,0.0,0.0,1.0,90.0,4350000000.0,-1.5472537948343987,-4.17227022456483,5.8496951700064646,1.8649441009576595,-1.0531325904701903,0.8472348993484237,1.3083192117788962,0.973705137545497,-1.4550852103271696
87,4.4,-0.237,-1.88,5.49,1.24,-0.8170000000000001,0.557,2.43,2.94,-2.62,0.0,0.0,0.0,1.0,90.0,4400000000.0,-0.6760368612935641,-2.4760117874397993,5.646639166166838,1.3201325788605232,-0.8691390108688022,0.6132464684234833,2.0357044592709195,2.0463448819439862,-2.3754148774351593
88,4.45,-1.31,-2.92,7.39,0.647,-0.172,0.0166,1.19,1.48,-1.01,0.0,0.0,0.0,1.0,90.0,4450000000.0,-1.0975730365483725,-2.804558950560539,6.630804818971619,0.7333114826325855,-0.325931122973799,0.1322279472460713,1.4872838429607076,1.7373963092389157,-1.2966819409297683
89,4.5,2.57,-6.34,7.9,0.6459999999999999,-0.111,0.0318,5.04,-2.17,-0.626,0.0,0.0,0.0,1.0,90.0,4500000000.0,1.3410779311545258,-5.4207522296761645,7.347293608412865,0.6571954150754827,-0.15845766397286412,0.0512625777848129,3.7911417379582737,-0.3941398190924228,-0.766816095470116
90,4.55,-0.8240000000000001,-7.02,10.2,0.937,0.0275,-0.38799999999999996,1.55,-3.14,1.49,0.0,0.0,0.0,1.0,90.0,4550000000.0,-0.09853061590827061,-6.604180542969203,8.957709318660715,0.9011224337730295,-0.013560205825830063,-0.30287249578049014,2.3378108148362577,-1.8920427255465349,1.016159824402658
91,4.6,-0.0934,-0.948,7.05,0.903,0.166,-0.7040000000000001,2.19,2.57,-1.81,0.0,0.0,0.0,1.0,90.0,4600000000.0,-0.09511915611412715,-2.4186600830849807,7.880765345503869,0.9027592492406499,0.12635237404875235,-0.626262924075987,2.2419588048521604,0.5420602409657937,-1.2166205955083351
92,4.65,-2.34,-1.17,8.48,0.302,-0.218,-0.474,-0.0784,2.15,-0.46799999999999997,0.0,0.0,0.0,1.0,90.0,4650000000.0,-1.5877903798636588,-1.494663319210516,8.219046295798504,0.37903149019845617,-0.14196559639965592,-0.5035080146150323,0.7372573947111507,1.419212583259708,-0.625180069493389
93,4.7,-1.49,-5.58,10.6,0.523,-0.648,-0.10300000000000001,0.642,-2.37,1.55,0.0,0.0,0.0,1.0,90.0,4700000000.0,-1.5227673842221199,-4.517774030676279,9.563147508814483,0.5045398437854854,-0.5362655547087962,-0.18061701807933495,0.6754850919217456,-0.6478526638484063,1.0933000457764352
94,4.75,0.7659999999999999,-4.23,7.83,0.8190000000000001,-0.455,-0.376,2.51,-1.31,-1.37,0.0,0.0,0.0,1.0,90.0,4750000000.0,-0.000914983173350592,-4.304823965313109,8.584747385309695,0.7786787976782105,-0.4729437739871168,-0.338135467893138,1.865127464421033,-1.0090627147517848,-0.852806534994101
95,4.8,-0.611,-3.81,8.52,0.695,0.569,-0.0409,1.07,-1.2,-0.782,0.0,0.0,0.0,1.0,90.0,4800000000.0,-0.4065741022715534,-3.938658836798192,8.54819631346106,0.7057295888562419,0.3389345971833299,-0.09850316806139245,1.3495049085257471,-1.1132215415599684,-0.7968665152326564
96,4.85,-3.02,-0.23199999999999998,7.76,0.341,1.2,0.11199999999999999,-0.9590000000000001,2.14,-1.52,0.0,0.0,0.0,1.0,90.0,4850000000.0,-2.144299186542911,-1.1957661113555687,8.103242200421658,0.38776692587199324,1.0098733071572348,0.07120524316998841,-0.14750950562668996,0.6614536612380779,-1.368171174626858
97,4.9,-5.23,-2.76,9.64,-0.18,0.125,0.902,-2.67,-0.502,0.444,0.0,0.0,0.0,1.0,90.0,4900000000.0,-4.196050408201847,-2.3532844881680015,8.970776142556975,-0.1071988978294891,0.32038361174626795,0.7409949614118625,-1.7832888985776225,0.02677439837522566,0.06351728686597502
98,4.95,-0.426,-3.2,8.3,-0.251,-0.486,0.731,2.08,-0.93,-0.9009999999999999,0.0,0.0,0.0,1.0,90.0,4950000000.0,-1.689259908243693,-2.979846048534888,8.592108290063768,-0.23256129650486532,-0.307947232157081,0.7329369927015204,0.7219685315176154,-0.49515862577253844,-0.6984903635477514
99,5.0,-1.5,-3.14,7.76,-0.259,0.13699999999999998,0.563,0.9670000000000001,-0.816,-1.44,0.0,0.0,0.0,1.0,90.0,5000000000.0,-1.5634167792351041,-3.0983585458311707,8.122364895545639,-0.25560993767085133,0.0387538439310019,0.5959331990411294,0.8808660290579022,-0.6701818076121732,-1.2843129856203002
100,5.05,-2.81,-2.18,8.88,-0.7709999999999999,0.308,0.593,-0.168,0.294,-0.239,0.0,0.0,0.0,1.0,90.0,5050000000.0,-2.392297693981533,-2.418781897973352,8.550066724349989,-0.7049148647091512,0.24854935644824175,0.5935684392341358,0.20069958857826775,-0.1442079483164277,-0.4584734805164591
101,5.1,-3.41,-2.49,9.77,-1.01,0.34299999999999997,0.655,-0.5529999999999999,0.301,0.8170000000000001,0.0,0.0,0.0,1.0,90.0,5100000000.0,-3.0689906850027344,-2.4714826315385454,9.238746283837667,-0.9708808831306953,0.32214491110065757,0.6430947606023053,-0.2880579220061141,0.09865884347811185,0.5492020881710881
102,5.15,-2.97,-2.67,8.45,-1.14,0.149,0.546,0.0946,0.46299999999999997,-0.324,0.0,0.0,0.0,1.0,90.0,5150000000.0,-3.003169592418209,-2.618383675871701,8.79348146348052,-1.1183149287494107,0.18723110102326743,0.5648166197341182,-0.039912715912063135,0.29741173684296673,-0.14066284793867945
103,5.2,-2.89,-2.05,8.24,-1.41,0.0544,0.302,0.293,1.52,-0.32299999999999995,0.0,0.0,0.0,1.0,90.0,5200000000.0,-2.927920679168569,-2.1977850595881963,8.481028813274687,-1.3725990665427328,0.0837296459024262,0.35293290793387855,0.17597383182882298,0.9643497065831081,-0.2847165771538087
104,5.25,-3.91,-3.67,7.87,-1.46,0.0721,0.12300000000000001,-0.6629999999999999,0.451,-0.413,0.0,0.0,0.0,1.0,90.0,5250000000.0,-3.5809271537893133,-3.287210342608044,8.136089476614247,-1.4487931725854175,0.07466787184276343,0.16756017631558448,-0.36808215038546754,0.6843106914912694,-0.38606565528261905
105,5.3,-3.68,-3.39,7.77,-1.58,-0.0617,0.0147,-0.405,1.3,-0.19399999999999998,0.0,0.0,0.0,1.0,90.0,5300000000.0,-3.6468029406031865,-3.36327380114522,7.929423863788046,-1.5631762281504684,-0.031589422390441574,0.04432375452512301,-0.3920225608209921,1.020177282383651,-0.23432603084379752
106,5.35,-3.52,-4.12,6.26,-1.75,-0.0745,0.0422,-0.259,1.17,-1.33,0.0,0.0,0.0,1.0,90.0,5350000000.0,-3.5624888280087976,-3.923243995258411,6.986997318808115,-1.7260447869584232,-0.06502517212185464,0.04261157528592947,-0.3057603718325198,1.1019075222822259,-1.0999527760712389
107,5.4,-4.83,-3.16,6.35,-1.76,-0.11,0.066,-1.6,2.77,-0.77,0.0,0.0,0.0,1.0,90.0,5400000000.0,-4.4052851910412905,-3.358450671860554,6.627398197500396,-1.7556461326764463,-0.10006937530108452,0.06146740681618792,-1.1450461859859673,2.0118739014706692,-0.8392767346637926
108,5.45,-4.39,-6.36,6.0,-1.52,-0.556,0.0593,-1.25,0.127,-0.6409999999999999,0.0,0.0,0.0,1.0,90.0,5450000000.0,-4.39512163824318,-5.579569078244724,6.273218046199164,-1.5502153743516278,-0.4553286661670438,0.05972003705305443,-1.21310641509927,0.9836503957701304,-0.6826300805332143
109,5.5,-2.5,-7.31,5.84,-1.4,-0.583,-0.353,0.434,-0.33399999999999996,-0.40399999999999997,0.0,0.0,0.0,1.0,90.0,5500000000.0,-3.135013044608414,-6.860071663091617,6.028656968853153,-1.4192611324351303,-0.5548096555065988,-0.2730163239136781,-0.14499431218109926,0.26485477646774414,-0.4625010687097886
110,5.55,-0.97,-9.84,6.57,-1.06,-0.49200000000000005,-0.45,1.65,-2.44,0.688,0.0,0.0,0.0,1.0,90.0,5550000000.0,-1.6954476617132601,-9.065190753177113,6.334257173380979,-1.1060656990297755,-0.5058686370311148,-0.41570118819745866,1.0190198179304997,-1.21067911644489,0.4464412852577182
111,5.6,-2.3,-9.39,4.8,-0.813,-0.0929,-0.574,0.0168,-1.65,-0.77,0.0,0.0,0.0,1.0,90.0,5600000000.0,-2.0974279469453254,-9.305546798766002,5.468135191498444,-0.8505779537655327,-0.1840851488138151,-0.5433222583166568,0.3691024127193627,-1.4503344244846648,-0.5145964708688232
112,5.65,-4.5,-10.9,6.54,-0.578,-0.0996,-0.0463,-2.36,-2.9,1.26,0.0,0.0,0.0,1.0,90.0,5650000000.0,-3.6949516255243315,-10.485426907800827,6.073226548233506,-0.6129509292303723,-0.11825466488430761,-0.14262113370978974,-1.4006601260551763,-2.2411461176441017,0.8874064442233299
113,5.7,-2.87,-7.14,4.93,-0.5429999999999999,-0.26,0.434,-0.6829999999999999,0.96,-0.147,0.0,0.0,0.0,1.0,90.0,5700000000.0,-3.1464228367190756,-8.009842322702452,5.427849793507134,-0.5519693436748259,-0.2287020482202724,0.3222528789251395,-0.9352734114427721,-0.4948788125527388,0.0701835534848465
114,5.75,-1.81,-13.3,6.75,0.29,-0.462,0.158,0.35,-5.1,1.76,0.0,0.0,0.0,1.0,90.0,5750000000.0,-2.2578054839329025,-11.924509451622779,6.174232811571676,0.18203966839116847,-0.41048687657893357,0.18983162518625663,-0.10180201002552558,-3.00703294655678,1.4052068234151884
115,5.8,-0.153,-8.75,4.3,0.625,0.56,0.177,2.13,-0.762,-0.919,0.0,0.0,0.0,1.0,90.0,5800000000.0,-0.8582734284088267,-9.575402277371918,5.116187066674125,0.5682020400422956,0.3457125670751173,0.17948672384301095,1.3454723492124634,-1.7823379550883969,-0.43101051058527395
116,5.85,-0.42100000000000004,-8.76,5.61,0.524,-0.544,0.364,1.91,-0.915,0.21,0.0,0.0,0.0,1.0,90.0,5850000000.0,-0.5675205875463443,-8.972012421018606,5.3949554587811255,0.5296677343005223,-0.3475478830911509,0.32824198233868906,1.7115560341417408,-1.3091937028566085,0.07541369054179159
117,5.9,-1.2,-9.02,5.7,1.14,-0.133,0.58,1.17,-1.46,-0.0707,0.0,0.0,0.0,1.0,90.0,5900000000.0,-0.9880702699168169,-9.007523117431377,5.567159737719853,1.061740998824239,-0.18037304296099166,0.5312101849151578,1.3603688855043543,-1.391460542546287,-0.04002202719876506
118,5.95,-2.53,-8.46,7.67,1.2,0.9009999999999999,0.33399999999999996,0.107,-1.31,1.5,0.0,0.0,0.0,1.0,90.0,5950000000.0,-2.01333367697071,-8.602361181952675,6.754259592717502,1.1822719773339638,0.6622284682014249,0.3722186202000297,0.5475868607675617,-1.3470227137963688,1.1766576058813556
119,6.0,-3.43,-5.33,5.67,1.29,-0.0421,0.45399999999999996,-0.43,1.39,-0.816,0.0,0.0,0.0,1.0,90.0,6000000000.0,-2.955306717676622,-6.180844589977141,6.142171127837184,1.2761866939045978,0.11341857885541184,0.438151058588777,-0.08635662031358815,0.146059173065481,-0.3976224131018209
120,6.05,-5.4,-7.28,7.21,1.13,-0.506,0.534,-2.39,-1.03,0.281,0.0,0.0,0.0,1.0,90.0,6050000000.0,-4.580837803314986,-6.994209423666243,6.744984152363147,1.1487445772293423,-0.36922985414379195,0.5154248021056572,-1.580218514038001,-0.49549656075827164,0.13851670684352735
121,6.1,-4.05,-6.17,10.5,1.31,-0.14,0.561,-0.945,-0.43700000000000006,3.14,0.0,0.0,0.0,1.0,90.0,6100000000.0,-4.227872049593302,-6.384302248871996,8.864773604027464,1.2893232023540049,-0.19061488110375752,0.5521676815126512,-1.1682933401375801,-0.46358592088060274,2.509809879897066
122,6.15,-3.21,-7.13,8.94,1.12,-0.532,0.498,-0.0717,-1.98,1.2,0.0,0.0,0.0,1.0,90.0,6150000000.0,-3.5510662747234365,-6.9361116646341845,8.907240330571536,1.1417112315083588,-0.45662078653480354,0.5084974992957476,-0.45717679116301213,-1.290809759182926,1.475007183626027
123,6.2,-2.18,-7.66,3.02,1.04,-2.13,0.578,0.631,-2.97,-5.12,0.0,0.0,0.0,1.0,90.0,6200000000.0,-2.6394138107147977,-7.471782120001633,5.5837630141059,1.053041745075802,-1.7605111782696945,0.5645306717348354,0.2484817998782446,-2.2068301401401604,-3.735314902280937
124,6.25,0.6609999999999999,-3.02,7.13,1.21,-0.909,0.552,2.85,1.17,-1.47,0.0,0.0,0.0,1.0,90.0,6250000000.0,-0.4448951379649997,-4.177505155175672,6.456648037247666,1.1898742837424936,-1.0970171025271926,0.5544283881292442,1.9355088023301157,-0.36472490143918934,-1.9456246117323275
125,6.3,-0.41700000000000004,-2.51,8.31,1.37,0.385,0.32899999999999996,1.57,1.09,-0.593,0.0,0.0,0.0,1.0,90.0,6300000000.0,-0.4263470364770611,-2.943566997100921,7.502906425966657,1.3469036397890917,0.05776461116536402,0.37268721070524496,1.6984844550654281,0.42884668674911997,-0.8769965053715074
126,6.35,-2.8,-4.85,6.66,1.43,0.221,0.736,-0.517,-1.96,-2.43,0.0,0.0,0.0,1.0,90.0,6350000000.0,-2.0046417365090883,-4.35430944047944,7.027067029687446,1.4193450413995976,0.18495696536216644,0.6655912845453704,0.26179173116734455,-0.8743006258744032,-2.103932075037224
127,6.4,-0.36200000000000004,-4.36,6.69,0.972,0.172,0.7659999999999999,2.11,-2.14,-2.54,0.0,0.0,0.0,1.0,90.0,6400000000.0,-0.9124126462550797,-4.358520499869438,6.836785272770332,1.0293601856428736,0.17486095500535512,0.7465411288543324,1.4603138836755967,-1.5647563413864076,-2.448443326927648
128,6.45,-2.78,-2.41,8.98,0.111,0.7609999999999999,0.6890000000000001,-0.0176,-0.613,-0.259,0.0,0.0,0.0,1.0,90.0,6450000000.0,-2.1542130617403936,-2.9166336970272466,8.04667710423347,0.22875543289362965,0.6315781063541509,0.7001512730266239,0.5019193891910726,-1.0455607239719482,-0.7186946268779639
129,6.5,-1.76,-1.47,7.25,-0.364,0.364,0.682,1.32,0.282,-1.89,0.0,0.0,0.0,1.0,90.0,6500000000.0,-1.8920920090252897,-1.8461383714410902,7.596935268123939,-0.28799476929674184,0.4230823243563041,0.6855176366734872,1.0324266213271338,-0.3213588827261007,-1.644073192262742
130,6.55,-0.594,-1.15,6.44,-1.22,0.335,0.46799999999999997,2.67,0.797,-2.6,0.0,0.0,0.0,1.0,90.0,6550000000.0,-1.0289617034420129,-1.3310024981505872,6.943819767193194,-1.1004949767546965,0.3544489406314901,0.5101541342685804,2.09435681969041,0.2887205943613895,-2.399293923600694
131,6.6,-1.34,-2.51,5.18,-1.89,0.8759999999999999,0.138,2.23,0.0434,-3.59,0.0,0.0,0.0,1.0,90.0,6600000000.0,-1.2357780178112792,-2.2034495674764254,5.948104421977769,-1.7887668262349288,0.7608394027233203,0.21012213479314557,2.1823184370399162,0.15489498348230266,-3.3399997720400605
132,6.65,-2.11,-3.1,6.43,-2.33,1.26,-0.23399999999999999,1.88,0.358,-1.84,0.0,0.0,0.0,1.0,90.0,6650000000.0,-1.8170676184782817,-2.866888395171177,6.220145031300923,-2.2606010777951844,1.1497833100806845,-0.14793071970622512,1.9862716081757672,0.26569144733946826,-2.1549393641869767
133,6.7,-3.18,-0.7020000000000001,6.81,-2.6,1.42,-0.691,1.27,3.79,-0.6809999999999999,0.0,0.0,0.0,1.0,90.0,6700000000.0,-2.723311764480459,-1.2648913349882733,6.553131167738046,-2.55648097166991,1.3603350265024285,-0.5857551073050508,1.5217852861120025,2.188248102682985,-0.9904677007360243
134,6.75,-4.75,-9.42,3.91,-2.11,1.5,-1.29,-0.0983,-3.81,-2.65,0.0,0.0,0.0,1.0,90.0,6750000000.0,-4.070901919466039,-7.299595198038383,5.061025244851096,-2.1672492975807454,1.4691614079262159,-1.1535198327535223,0.47119577716548533,-1.0838751103430786,-2.3015653534477893
135,6.8,-1.06,-4.76,3.21,-1.57,1.64,-1.3,3.49,1.68,-2.63,0.0,0.0,0.0,1.0,90.0,6800000000.0,-2.068886123302295,-5.420318776704248,4.0160805982378145,-1.6465814894091624,1.6022781354819178,-1.271612630067024,2.428823612166559,0.42385509125639564,-2.5610420865324013
136,6.85,-4.54,-4.42,7.58,-1.5,0.0593,-2.29,-0.264,2.87,2.6,0.0,0.0,0.0,1.0,90.0,6850000000.0,-3.711984761917492,-4.680092334955928,6.027991838895994,-1.5187952034796524,0.39999582582841775,-2.0926401464168674,0.6825870067593225,1.7582592544712712,1.5163896418588703
137,6.9,-5.6,-20.8,8.29,-0.861,-0.294,-1.17,-1.93,-12.9,3.87,0.0,0.0,0.0,1.0,90.0,6900000000.0,-4.9673680883689375,-16.608672019175327,7.30494542662611,-0.9453448577987117,-0.14076290938507985,-1.348804319430016,-1.0116179000276029,-6.238013783482953,3.375836842706728
138,6.95,-3.29,-8.13,6.68,-0.523,0.612,-0.732,0.212,0.0372,2.54,0.0,0.0,0.0,1.0,90.0,6950000000.0,-3.8520486554320836,-10.334534454598447,6.952149821795955,-0.5771545717446398,0.4457868904788487,-0.8515344613610771,-0.21812873305458802,-2.8148021169335857,2.7154919310422536
139,7.0,-1.79,-9.63,3.76,0.188,0.40399999999999997,-0.17600000000000002,1.53,-1.3,-0.223,0.0,0.0,0.0,1.0,90.0,7000000000.0,-2.4809465441812772,-9.81318566096858,5.150110678645716,0.08988913518416786,0.41322672569983454,-0.3069161570167793,0.9154941015392704,-1.9884576096009958,0.39396455852853185
140,7.05,0.299,-9.51,4.53,0.799,-0.0935,0.3,3.66,-1.26,0.431,0.0,0.0,0.0,1.0,90.0,7050000000.0,-0.6324981632602573,-9.588831289215413,4.80004461127204,0.708075287206873,0.018387311794314187,0.18238183330837582,2.6952455841174077,-1.5910743958325337,0.4232240493557716
141,7.1,-5.31,-8.32,5.26,1.89,-0.11,0.23600000000000002,-1.86,-0.374,0.66,0.0,0.0,0.0,1.0,90.0,7100000000.0,-3.742673294065147,-8.649907828213635,5.059699724860068,1.7384493683880833,-0.08165156086318937,0.22560899259298858,-0.25873052440732947,-0.9271443098687526,0.6102866390933457
142,7.15,-6.79,-8.19,9.56,1.87,1.13,0.616,-3.02,-0.787,4.35,0.0,0.0,0.0,1.0,90.0,7150000000.0,-5.768908678750868,-8.30958004499563,7.60021894745305,1.8531321110894938,0.8624624220073465,0.5403436190676715,-2.0493527482850986,-0.8506937455607818,3.5648112389897766
143,7.2,-7.65,-14.1,9.6,1.06,0.307,0.52,-3.54,-7.3,3.88,0.0,0.0,0.0,1.0,90.0,7200000000.0,-7.019688265484161,-12.594436701316504,8.72913977268219,1.1616981896027287,0.42964836225649267,0.5239425050953852,-3.016004525884863,-4.368875249097697,3.813823187235979
144,7.25,-7.15,-6.06,4.33,1.55,-0.932,0.865,-2.66,0.29,-1.63,0.0,0.0,0.0,1.0,90.0,7250000000.0,-7.106335504043689,-7.759014881633179,6.245728083721027,1.5002105097944047,-0.6313425096944547,0.7989042873800107,-2.7851435135142157,-1.8273975198810262,-0.48701710934432896
145,7.3,10.5,0.85,2.89,1.69,-0.841,0.747,14.5,6.48,-4.1,0.0,0.0,0.0,1.0,90.0,7300000000.0,4.600509177245029,-1.3884247208932399,4.351345460375379,1.6656645618140324,-0.7947067925804416,0.7570588479766892,8.423890087006537,2.704397117656772,-3.341419516621539
146,7.35,-1.65,-5.63,15.1,3.07,0.29,-0.26899999999999996,2.03,-0.833,7.37,0.0,0.0,0.0,1.0,90.0,7350000000.0,0.44440640270353615,-4.527150668618901,10.419198765350053,2.8899310229999813,0.050492338440526585,-0.07015346721995086,4.277593639542741,0.7747004547829199,5.121034654711144
147,7.4,-11.6,-7.8,12.3,2.74,0.6779999999999999,0.183,-7.95,-4.22,3.91,0.0,0.0,0.0,1.0,90.0,7400000000.0,-7.564187973348894,-6.949028571271212,11.480952745620208,2.759224700985239,0.5394437448461535,0.1339397639008634,-3.651730506018234,-1.9499742318618574,4.164268407936777
148,7.45,-1.44,-4.7,6.79,1.16,-0.8809999999999999,1.09,2.07,-2.13,-2.0,0.0,0.0,0.0,1.0,90.0,7450000000.0,-3.492079003445732,-5.2847684137768685,8.832806204363134,1.3650582888776237,-0.5673602517215834,0.9047189792642895,0.058685244748077015,-2.048180718967381,-0.7057527296296584
149,7.5,2.32,-2.01,3.23,0.237,0.315,0.59,5.71,0.0893,-5.73,0.0,0.0,0.0,1.0,90.0,7500000000.0,0.37250175338325997,-2.861470542263614,5.669898261172693,0.3816436763849953,0.12017127921913151,0.6509913892198782,3.7234380052213685,-0.8821568696322166,-4.675111115849246
150,7.55,0.654,-0.247,5.03,-0.6559999999999999,1.23,0.10800000000000001,4.47,1.83,-3.76,0.0,0.0,0.0,1.0,90.0,7550000000.0,0.5596761978453615,-0.9267868956796548,5.308661666052505,-0.522949627813319,0.9849453362633721,0.21322978764077927,4.207566825213752,0.5973604033537254,-3.9521363475679223
151,7.6,-1.94,-0.429,5.36,-1.79,1.15,-0.371,2.37,2.16,-3.06,0.0,0.0,0.0,1.0,90.0,7600000000.0,-1.1024142277767124,-0.5584292616350366,5.337643365785898,-1.627534230721295,1.1135552428643742,-0.25777835424924583,3.015945271496743,1.4498009059595613,-3.2473125369567697
152,7.65,-4.68,-1.3,7.69,-2.59,1.27,-0.6679999999999999,0.0396,2.28,-0.13,0.0,0.0,0.0,1.0,90.0,7650000000.0,-3.4812305890901794,-1.107184606749217,6.6656007176019,-2.466589117652617,1.2354563488449006,-0.5885005012727605,1.0858511342233355,1.9026854170430405,-0.7845096598050105
153,7.7,-3.11,-4.15,7.02,-2.7,0.8190000000000001,-0.7090000000000001,1.91,0.562,0.0453,0.0,0.0,0.0,1.0,90.0,7700000000.0,-3.2343910309935624,-3.3588394854520516,6.8656669358432705,-2.670071262391709,0.9109552537737625,-0.6856476220455472,1.620293439950058,1.1713238731929454,-0.1289264967877588
154,7.75,-2.07,-7.12,5.93,-2.62,1.1,-1.33,3.02,-1.3,-0.11,0.0,0.0,0.0,1.0,90.0,7750000000.0,-2.4601614517314423,-6.142062850839454,6.337462170474347,-2.6264202168019213,1.0582581725972888,-1.2051268528338432,2.527972200985927,-0.17681578276380883,-0.11397379904335962
155,7.8,-4.01,-11.4,5.48,-2.3,0.914,-1.44,0.888,-4.5,0.508,0.0,0.0,0.0,1.0,90.0,7800000000.0,-3.4906837793884944,-10.032886668177891,5.853405831568392,-2.341854727538032,0.9458527693546169,-1.3944824718952886,1.4644864762581082,-2.5351696427892243,0.37741064868910607
156,7.85,-5.28,-11.5,6.49,-1.33,0.713,-1.25,-0.698,-3.83,2.41,0.0,0.0,0.0,1.0,90.0,7850000000.0,-4.680440133389143,-11.118536752306836,6.2127771825309415,-1.4597436740244314,0.7644148346264527,-1.2780001852900174,0.062161774175121476,-3.2415165939330755,1.9832384400501493
157,7.9,-4.7,-13.5,7.57,-0.42200000000000004,0.426,-0.617,-0.423,-5.43,4.02,0.0,0.0,0.0,1.0,90.0,7900000000.0,-4.6934457975970085,-12.880797185178128,6.97895956168804,-0.555063202140313,0.5007233660067165,-0.7450994540971372,-0.25245492034962935,-4.435362986803374,3.592362361954494
158,7.95,-3.69,-11.3,8.68,0.617,0.0464,0.0398,0.47200000000000003,-3.14,5.14,0.0,0.0,0.0,1.0,90.0,7950000000.0,-4.026232371725905,-11.711022258604013,7.939234663367254,0.46671384493522794,0.14671643968268377,-0.11231070190749359,0.21733808831020623,-3.7287254948175166,4.815058529865153
159,8.0,-0.11699999999999999,-8.16,6.81,1.17,0.608,0.35600000000000004,4.21,-0.266,2.92,0.0,0.0,0.0,1.0,90.0,8000000000.0,-1.426896683518589,-9.083299031069668,7.301756701546829,1.0798220933206661,0.5061467055173512,0.26524306919284246,2.8064911327295743,-1.839763188245485,3.3178857730895044
160,8.05,-4.34,-12.8,6.61,1.43,0.638,0.17,0.23,-5.16,2.44,0.0,0.0,0.0,1.0,90.0,8050000000.0,-3.3638840733752176,-11.833622976160726,6.911244827420524,1.3850988890936808,0.6088862672229945,0.18845776694081495,1.135693571294095,-3.650995962024762,2.624320582588516
161,8.1,-6.59,-10.1,8.27,2.38,0.139,0.765,-1.76,-3.01,3.51,0.0,0.0,0.0,1.0,90.0,8100000000.0,-5.509000520490332,-10.550758540979972,7.67829241642166,2.2524303165903854,0.2427527906775972,0.6532681697806944,-0.7420997143198123,-3.3013242275273496,3.32404310471357
162,8.15,-3.17,-4.3,6.42,2.55,-0.585,0.37799999999999995,1.88,1.99,0.8390000000000001,0.0,0.0,0.0,1.0,90.0,8150000000.0,-3.9537470207837373,-5.925256078682025,6.967958575516205,2.511844508028073,-0.40222881302628416,0.43134597774837546,0.9582740040296243,-0.414837251243966,1.3607586219745553
163,8.2,-5.01,-4.13,5.86,2.54,-2.34,-0.542,-0.46299999999999997,1.4,-0.845,0.0,0.0,0.0,1.0,90.0,8200000000.0,-4.656073308299807,-4.596783528991043,6.342491543275604,2.536389768739047,-1.9121322031461427,-0.35336903410756226,0.03660922011190515,0.5751803296625918,-0.38187984569615563
164,8.25,-0.46399999999999997,-8.11,7.69,3.06,-0.528,-0.18100000000000002,3.56,-3.51,0.0177,0.0,0.0,0.0,1.0,90.0,8250000000.0,-1.8686703726989347,-7.196530461866823,7.103189886449257,2.99286077121855,-0.8336219967592629,-0.21440449650012833,2.3214502436918827,-1.6533392736560613,-0.06619562096503107
165,8.3,-0.713,-3.15,7.15,2.33,0.764,-0.17,3.29,0.382,-1.08,0.0,0.0,0.0,1.0,90.0,8300000000.0,-1.1002393974725204,-4.202136001989423,7.129615284136299,2.414994315275618,0.41123858840171157,-0.1786054337366346,2.9495333328577393,-0.5430349263039744,-0.867142081683616
166,8.35,-0.7040000000000001,-1.76,5.27,1.43,0.214,0.449,3.57,0.9390000000000001,-3.13,0.0,0.0,0.0,1.0,90.0,8350000000.0,-0.8367709927945051,-2.394978293815051,6.079821338159091,1.5562994526380591,0.2575510807416984,0.32737231677973333,3.3518922121045005,0.26543462721323197,-2.654891368630806
167,8.4,1.64,0.51,2.61,-0.141,0.281,-0.248,5.97,2.86,-5.87,0.0,0.0,0.0,1.0,90.0,8400000000.0,0.8100892041862571,-0.24532165154148178,4.121030432178473,0.07663381155211568,0.2758223745092697,-0.13649490362837158,5.049677121417671,1.6808041111698053,-5.194957018084137
168,8.45,-2.21,0.34,3.53,-1.59,0.8,-0.884,2.32,3.09,-4.72,0.0,0.0,0.0,1.0,90.0,8450000000.0,-1.1980354095646175,0.1878108749906543,3.7873806721699617,-1.37629827357379,0.6842594656012091,-0.739136193752242,3.279541785433612,2.449538959036209,-4.819721615242462
169,8.5,-2.04,-1.12,6.98,-2.47,1.23,-1.11,2.54,4.15,-4.16,0.0,0.0,0.0,1.0,90.0,8500000000.0,-1.7578763962666706,-0.7799568910290015,5.589684867238705,-2.329761673038725,1.1094982935141755,-1.03812793489904,2.7999652552749783,3.3771628776981157,-4.298514759598439
170,8.55,-1.48,-1.72,5.98,-2.58,1.33,-1.69,3.47,3.33,-0.8190000000000001,0.0,0.0,0.0,1.0,90.0,8550000000.0,-1.5731102030033042,-1.4755799824860172,5.810026398474805,-2.547913479103516,1.2813123631696657,-1.5636695759450225,3.234467999319896,3.3514348658882267,-1.5495574984197327
171,8.6,-5.92,-8.68,7.56,-2.39,0.395,-1.85,-1.16,-2.39,1.73,0.0,0.0,0.0,1.0,90.0,8600000000.0,-4.463454112534773,-6.806783346110551,6.797925147888432,-2.4102483232310488,0.5907013695047646,-1.7945102091251257,0.38475263258681647,0.21940656335396724,1.0414254658348456
172,8.65,-7.59,-12.7,8.16,-2.37,-0.682,-1.14,-3.44,-5.42,3.1,0.0,0.0,0.0,1.0,90.0,8650000000.0,-6.542364222557024,-11.167708170553242,7.566846424810928,-2.375160684366844,-0.400982366109192,-1.266841721511387,-2.0955149671709186,-2.856963942404659,2.667782458546396
173,8.7,-6.51,-9.3,6.74,-1.59,-0.466,-0.0164,-2.75,-1.37,2.37,0.0,0.0,0.0,1.0,90.0,8700000000.0,-6.520844682211186,-9.785621809917549,7.100073211125315,-1.6906761437048339,-0.4516438357388214,-0.25873112464628045,-2.519934048116553,-2.045805554089433,2.4325221926274216
174,8.75,-1.11,-12.3,5.54,-0.616,-0.573,0.318,2.63,-4.15,1.56,0.0,0.0,0.0,1.0,90.0,8750000000.0,-2.9230535287251427,-11.646238192754227,6.219377376056526,-0.7537988206460754,-0.5462040779682438,0.2062315657668028,0.8196844527911242,-3.1936713560792125,1.743194357018388
175,8.8,-1.35,-10.1,6.84,0.7509999999999999,-0.621,0.503,2.43,-2.02,2.8,0.0,0.0,0.0,1.0,90.0,8800000000.0,-1.8770952114594102,-10.502036737083781,6.5697326524481685,0.5580492953156347,-0.6044847510243371,0.44548735785137716,1.8639385436106017,-2.553418181820022,2.578113482339516
176,8.85,-2.09,-8.79,5.79,1.42,0.217,0.306,1.8,-1.02,1.24,0.0,0.0,0.0,1.0,90.0,8850000000.0,-2.0186602910279734,-9.235145605535884,6.129556312398467,1.3094775565914518,0.03561283263355752,0.33303214547552235,1.8224757800745262,-1.716918381813267,1.5209497662655274
177,8.9,-5.35,-13.1,10.2,2.21,-0.0819,0.5710000000000001,-1.31,-5.77,5.05,0.0,0.0,0.0,1.0,90.0,8900000000.0,-4.233742210155112,-12.095101834975623,8.427411644669236,2.0945318207952424,-0.05595269083580778,0.5248826664220437,-0.2088655045861878,-3.927927710575463,4.309042208926687
178,8.95,-2.93,-9.88,5.73,2.17,-0.706,0.9229999999999999,1.37,-3.34,-0.175,0.0,0.0,0.0,1.0,90.0,8950000000.0,-3.3668550164114537,-10.455947369474341,6.904663154983621,2.160323266322441,-0.5624668970945901,0.8458462697509006,0.8149938883787542,-3.6072053637130157,0.7664676681129485
179,9.0,-2.95,-10.1,9.02,3.32,-0.655,0.8590000000000001,1.26,-4.64,2.06,0.0,0.0,0.0,1.0,90.0,9000000000.0,-3.089678861702924,-10.192549941960875,8.098817822524415,3.171302038213695,-0.6345682936393584,0.8564508761274454,1.1035705118127495,-4.170608350917638,1.7884104361533157
180,9.05,-0.618,-0.618,5.59,2.87,-0.526,0.382,3.44,3.53,-2.32,0.0,0.0,0.0,1.0,90.0,9050000000.0,-1.4462045072665506,-3.1074729025100734,6.6825347897304574,2.908633926534018,-0.5499723369910453,0.4739468789881499,2.618693441469003,0.03017478690286346,-1.4573997746731513
181,9.1,0.0239,-0.8640000000000001,5.78,2.26,0.0977,0.155,4.07,2.15,-2.63,0.0,0.0,0.0,1.0,90.0,9100000000.0,-0.46869927159100744,-1.4473240454376497,6.173034068585647,2.3431701565012597,-0.045308676538685755,0.21681076313998082,3.5598337849477515,1.186567378008553,-2.3838014273386916
182,9.15,1.24,-2.08,3.03,0.818,0.26899999999999996,0.0306,5.41,0.11,-5.57,0.0,0.0,0.0,1.0,90.0,9150000000.0,0.667452943990595,-1.9154982522764519,4.3987218430726545,1.0135627953057174,0.1995993658044974,0.06668697873627233,4.759625591390777,0.5992857112252823,-4.901027188202779
183,9.2,-0.982,-0.7609999999999999,4.94,-0.813,0.7070000000000001,-0.42100000000000004,3.38,1.44,-3.56,0.0,0.0,0.0,1.0,90.0,9200000000.0,-0.42930505779834904,-1.0611803738581091,4.704285360065081,-0.5787915978423774,0.5949638973469755,-0.32648801425756224,3.864968956623767,1.057906446180687,-3.84156147401439
184,9.25,-1.98,0.584,4.4,-2.07,0.795,-0.848,2.63,3.47,-3.76,0.0,0.0,0.0,1.0,90.0,9250000000.0,-1.4603966813525886,0.15623764234236281,4.532509601832558,-1.8787918604678686,0.7508312309877944,-0.7469328379656965,3.0641189528733843,2.3737352253905497,-3.7771246061463595
185,9.3,-2.32,-0.11699999999999999,4.97,-2.62,1.41,-1.11,2.52,3.92,-2.54,0.0,0.0,0.0,1.0,90.0,9300000000.0,-2.0319660323454816,-0.04595564534601726,4.77948248400398,-2.5249595383195085,1.2644528388273977,-1.0396388966077743,2.7112698235349555,3.217243041969539,-2.799746145507681
186,9.35,-2.1,-4.38,6.06,-2.89,1.43,-1.66,2.96,0.946,-0.44299999999999995,0.0,0.0,0.0,1.0,90.0,9350000000.0,-2.077203269574582,-3.253107840362668,5.502362895678595,-2.843193296248173,1.3934464751419258,-1.5397762143610993,2.8725658712577324,1.978250074480358,-0.937821446658615
187,9.4,-4.63,-18.7,6.49,-3.05,-0.158,-2.21,0.16899999999999998,-12.1,1.13,0.0,0.0,0.0,1.0,90.0,9400000000.0,-3.7746147586871395,-14.683663501729725,6.059905743853006,-3.0234824623015886,0.18456566254017925,-2.080113062892362,1.1193631471306014,-5.701620742225237,0.6958410521632363
188,9.45,-6.36,-10.7,11.6,-1.95,-0.044,-1.3,-2.38,-2.88,7.2,0.0,0.0,0.0,1.0,90.0,9450000000.0,-5.49369508732377,-11.735789790096106,9.187411632125816,-2.087645807021391,0.0064682246276987765,-1.4511830775547039,-1.1498965988886196,-4.1623895726322315,5.8343893003852925
189,9.5,-7.19,-10.7,9.34,-0.006409999999999999,-0.49700000000000005,-0.42100000000000004,-3.6,-2.43,5.39,0.0,0.0,0.0,1.0,90.0,9500000000.0,-6.621606049267995,-10.969314934038149,9.273551224938489,-0.2732735079971469,-0.38583218281163845,-0.620645791770657,-2.738734450154303,-3.2173483083809913,5.483303690028642
190,9.55,-4.2,-10.3,5.53,1.15,-0.257,0.5920000000000001,-0.665,-2.21,1.31,0.0,0.0,0.0,1.0,90.0,9550000000.0,-5.011426115775192,-10.47402831124297,7.1602339246575335,0.9675027532842397,-0.28544666743830155,0.35699359730876845,-1.3939634986349407,-2.667826575759776,2.186225088386287
191,9.6,-4.1,-9.44,6.17,1.27,-0.35200000000000004,0.9590000000000001,-0.342,-1.75,1.39,0.0,0.0,0.0,1.0,90.0,9600000000.0,-4.405398524749702,-9.708856763619366,6.601225027860702,1.2312127031571019,-0.3373047530086228,0.842333309571814,-0.7117884210613459,-2.167140105091455,1.557175082164056
192,9.65,-1.41,-8.5,5.63,1.64,-0.363,0.973,2.77,-1.38,0.354,0.0,0.0,0.0,1.0,90.0,9650000000.0,-2.413691296944667,-8.814314114011475,6.05294709503746,1.5875838164625953,-0.35732638961942254,0.9476772555754801,1.546074416888026,-1.7377448206926056,0.6066181491891882
193,9.7,-5.8,-11.3,9.94,2.14,-1.29,0.9309999999999999,-1.61,-4.89,3.85,0.0,0.0,0.0,1.0,90.0,9700000000.0,-4.665323514981381,-10.653698461341572,8.247274147395228,2.0691673102001196,-1.0840618578901797,0.9342319877532539,-0.5005701086451031,-3.457341414654805,3.169020799578223
194,9.75,-2.53,-6.16,7.14,2.96,-1.71,0.474,1.38,-0.708,-0.0203,0.0,0.0,0.0,1.0,90.0,9750000000.0,-3.2454993236620293,-7.328403698868385,7.622193339214728,2.8457742757019067,-1.571790351631107,0.563191315526482,0.7189380467837709,-1.9575395089652285,0.6493284881856516
195,9.8,-1.97,-6.4,8.1,3.25,-0.415,0.24100000000000002,1.52,-2.24,-0.0649,0.0,0.0,0.0,1.0,90.0,9800000000.0,-2.397391428930886,-6.641393753294093,7.891925976625696,3.198168730100121,-0.6704239904777792,0.3034395196623745,1.238409009167387,-2.1116254276664694,0.08505911820374468
196,9.85,-0.7020000000000001,-0.599,5.44,2.21,0.0409,0.475,2.79,2.3,-3.26,0.0,0.0,0.0,1.0,90.0,9850000000.0,-1.2700879153099134,-2.1700791185171857,6.507759594614674,2.336706566456545,-0.11616321983439648,0.4417521889044933,2.2445814548470957,0.29497425004048683,-2.5576727499677747
197,9.9,1.74,0.5720000000000001,4.06,0.715,0.128,0.465,5.32,2.62,-4.84,0.0,0.0,0.0,1.0,90.0,9900000000.0,0.7313865996514277,-0.1409663089436224,5.125945162743482,0.9229410004112377,0.07408777644312747,0.46049466040309617,4.238922531939672,1.5633063188711673,-4.360803625855012
198,9.95,1.48,0.0934,2.29,-0.8590000000000001,0.55,0.0386,5.2,2.04,-6.57,0.0,0.0,0.0,1.0,90.0,9950000000.0,1.2291563385894175,0.032462559269440805,3.52499140748066,-0.630513167499744,0.4449166619206668,0.12036167449290885,4.862159908349973,1.8233489718059421,-6.106158169674561
199,10.0,-1.98,-1.5,4.72,-2.16,1.12,-0.41,2.09,1.09,-3.82,0.0,0.0,0.0,1.0,90.0,10000000000.0,-0.9046832118667956,-1.1015453393085382,4.199600055514833,-1.9638837960769857,0.9709388672151613,-0.3072178051891245,3.064475411458399,1.4232974790219204,-4.300000780273862
200,10.0,-2.62,-2.03,5.05,-2.79,1.6,-0.865,1.91,1.69,-2.8,0.0,0.0,0.0,1.0,90.0,10000000000.0,-2.04523547917582,-1.788593045552897,4.679669730178871,-2.6840723887592013,1.461100771489149,-0.7569038171866669,2.3158235971395515,1.5687872437803974,-3.1149395118328265
201,10.1,-2.33,-4.45,5.41,-3.33,1.39,-1.66,2.53,0.6559999999999999,-1.41,0.0,0.0,0.0,1.0,90.0,10100000000.0,-2.2345817018524956,-3.7580090506116512,5.091957225508106,-3.2471767821117687,1.4056993273001943,-1.484983169170703,2.4547122429602495,1.0708498048815445,-1.767968375280442
202,10.1,-5.44,-17.0,8.52,-3.06,0.166,-1.77,-0.7290000000000001,-10.4,2.98,0.0,0.0,0.0,1.0,90.0,10100000000.0,-4.365935771313806,-13.556957963701713,7.027163407968768,-3.084000427398082,0.43973062983357813,-1.714764744186403,0.39014522517260586,-5.186649449399159,1.9831185195130194
203,10.2,-5.37,-11.5,10.2,-2.01,-0.249,-1.27,-1.3,-3.92,5.53,0.0,0.0,0.0,1.0,90.0,10200000000.0,-5.03356036774533,-12.034828392723728,8.818299692934739,-2.147712172477447,-0.09692548460211858,-1.3561937981998853,-0.7058765735136017,-4.495675554173576,4.785298382730096
204,10.2,-4.96,-8.88,9.0,-0.299,-0.215,-0.88,-1.41,-0.74,4.84,0.0,0.0,0.0,1.0,90.0,10200000000.0,-4.984648465940745,-9.700285101868129,8.920873532809077,-0.5360484906196676,-0.18892867134625663,-0.9722846477722662,-1.162485034188937,-2.4469051403697106,4.828514991391516
205,10.3,-4.24,-11.9,6.64,1.18,-0.319,0.405,-0.902,-3.81,2.3,0.0,0.0,0.0,1.0,90.0,10300000000.0,-4.489514960708486,-11.328053181044362,7.6332699288205,0.9599620716448498,-0.2902797280399863,0.13808717182101682,-0.9935662522227225,-3.1904912859767407,2.8308859343737742
206,10.3,-2.57,-9.22,5.87,1.69,-0.139,0.73,0.9520000000000001,-1.52,0.919,0.0,0.0,0.0,1.0,90.0,10300000000.0,-3.2131866591843337,-9.768113826797697,6.637865011823005,1.5963919724474342,-0.1724031758253395,0.6152894304380543,0.2680904833443315,-2.2792163045181235,1.3204188111298938
207,10.4,-2.11,-7.46,6.82,1.69,-0.0782,0.675,1.63,-0.336,1.22,0.0,0.0,0.0,1.0,90.0,10400000000.0,-2.479653204782565,-8.06013130460515,6.7406843357003075,1.6779972933807596,-0.09900044102207878,0.6634283152066947,1.15125870625658,-1.2191662458052315,1.2410839150618074
208,10.4,-6.96,-12.3,9.76,2.63,-0.713,1.0,-3.11,-5.89,3.39,0.0,0.0,0.0,1.0,90.0,10400000000.0,-5.4587356199992,-11.1975944528717,8.445154900221771,2.5079309036070545,-0.5774264090665135,0.934773613615804,-1.612073331208016,-3.767167428579305,2.9388145417678975
209,10.5,-4.13,-7.79,6.56,3.35,-1.37,0.9259999999999999,-0.244,-2.63,-0.815,0.0,0.0,0.0,1.0,90.0,10500000000.0,-4.57522978299457,-8.676006538966545,7.3809432548691625,3.2420268018760283,-1.1949965433118959,0.9277002941090142,-0.7249080094526841,-3.1468276997977496,-0.026850634291773368
210,10.5,-0.943,-1.03,4.75,2.94,-1.52,0.467,2.59,2.73,-3.59,0.0,0.0,0.0,1.0,90.0,10500000000.0,-2.1600792998747713,-3.0180335021932034,5.8957176297605915,2.9787270079765182,-1.4482379049801846,0.5562820721966608,1.4247365260098461,0.05905912784356593,-2.8418825506447267
211,10.6,0.711,-1.9,3.12,1.83,-0.465,0.9990000000000001,3.81,0.647,-5.83,0.0,0.0,0.0,1.0,90.0,10600000000.0,-0.2510346994559489,-2.1906991952440245,4.328763605143418,1.977293927961233,-0.682102916307694,0.9132028624826776,2.971527142110938,0.3797886157635473,-5.202616023833782
212,10.6,0.0814,0.10800000000000001,2.28,0.56,0.405,0.511,3.19,1.89,-6.85,0.0,0.0,0.0,1.0,90.0,10600000000.0,-0.029991462653817635,-0.48968338166284875,3.1721912453975625,0.7417305048444156,0.16496327204339534,0.588945455358261,3.113201999733712,1.2036287842051268,-6.504115859701831
213,10.7,3.19,-0.218,5.28,-1.19,0.512,0.22699999999999998,6.53,1.53,-3.77,0.0,0.0,0.0,1.0,90.0,10700000000.0,2.1110526285244537,-0.2886402274255092,4.362095999512887,-0.9423066470346353,0.43537290321581557,0.2971437306532484,5.328920134383973,1.3816685600789502,-4.344053831084146
214,10.7,-2.95,-1.49,2.97,-2.55,1.02,-0.486,0.754,1.02,-5.76,0.0,0.0,0.0,1.0,90.0,10700000000.0,-1.2541540375976248,-1.1776351811407393,3.5762270512683747,-2.343855759571066,0.8909119532463148,-0.33422955260435216,2.3621855293138583,1.1843735925655505,-5.462708703097391
215,10.8,-4.1,-3.86,2.86,-2.93,1.57,-0.563,0.046,-0.133,-5.21,0.0,0.0,0.0,1.0,90.0,10800000000.0,-3.1464203496086496,-3.162559872509404,3.1719009892077885,-2.8548425447098467,1.4200546484676555,-0.5186651259469757,0.8601903967991336,0.4657289676549733,-5.263058645943787
216,10.8,-1.61,-5.42,5.94,-3.66,1.48,-1.39,2.92,-0.254,-1.06,0.0,0.0,0.0,1.0,90.0,10800000000.0,-2.124820242849297,-4.833044417906415,4.734554102703399,-3.556759902642886,1.466763838343769,-1.2211384123666382,2.1959314561709427,0.07310734366974608,-1.9424724267441662
217,10.9,-4.99,-17.2,5.32,-3.61,0.3,-1.98,-0.58,-10.5,-0.282,0.0,0.0,0.0,1.0,90.0,10900000000.0,-4.029941936897896,-13.984475943464979,5.065051350078926,-3.603173272611352,0.5576261925475781,-1.8329353591286364,0.3958012603432757,-5.694661796722708,-0.6306321148209764
218,10.9,-8.7,-15.7,12.6,-1.47,-0.299,-1.02,-5.05,-7.79,8.03,0.0,0.0,0.0,1.0,90.0,10900000000.0,-7.135167448014413,-15.253947489278033,9.31869664045033,-1.7435231408391954,-0.10985346171619847,-1.1775439440099134,-3.135680639079447,-6.837696329022326,6.2116170171479546
219,11.0,-4.75,-8.59,11.1,-0.122,0.41200000000000003,-0.321,-1.38,-0.435,6.81,0.0,0.0,0.0,1.0,90.0,11000000000.0,-5.549216479037511,-10.322689058326947,10.324281978472126,-0.32991750498010575,0.2967726414629981,-0.48699515474330013,-1.9971605386655913,-3.344941258281687,6.684363708780101
220,11.0,-3.86,-11.7,6.76,1.33,-0.147,0.5529999999999999,-0.461,-3.66,2.26,0.0,0.0,0.0,1.0,90.0,11000000000.0,-4.426018742818037,-11.341886076167865,8.312166141385564,1.1171594707674226,-0.04901320249565533,0.35145264437993917,-1.0009943725582249,-3.516809993165319,3.188937584774429
221,11.1,-1.54,-7.98,4.46,1.47,-0.42200000000000004,0.81,2.1,-0.457,-0.674,0.0,0.0,0.0,1.0,90.0,11100000000.0,-2.5070405654295724,-8.8541219740017,6.137533222900551,1.4247575487632818,-0.33964299670095577,0.7211351676402734,1.0099318902684666,-1.8476433845909515,0.13706077365374458
222,11.1,-4.21,-8.71,9.19,2.01,-0.24600000000000002,0.7390000000000001,-0.396,-1.73,3.45,0.0,0.0,0.0,1.0,90.0,11100000000.0,-3.639376254537231,-8.74747309528748,7.86071795732032,1.9349581088381131,-0.2666767584096187,0.7355378775766995,0.09821612917630096,-1.7834673811561812,2.7544166745140304
223,11.2,-2.87,-10.6,7.6,2.98,-0.853,1.25,1.09,-4.53,0.9640000000000001,0.0,0.0,0.0,1.0,90.0,11200000000.0,-3.1278007679169506,-10.118325885233215,7.713536853332765,2.846001003053045,-0.723537440944237,1.1502990842862393,0.7413660745596049,-3.281737168576736,1.3399151411723047
224,11.2,-3.29,-8.42,9.8,3.56,-0.7040000000000001,0.557,0.527,-3.71,2.1,0.0,0.0,0.0,1.0,90.0,11200000000.0,-3.2356506251688337,-8.861580739946211,8.891391529150642,3.4684484419010357,-0.7083139431542279,0.6719792214122118,0.6023544187738629,-3.5153601975306623,1.9404128189871859
225,11.3,-1.33,-1.68,2.46,2.45,-0.976,0.534,2.34,1.65,-6.0,0.0,0.0,0.0,1.0,90.0,11300000000.0,-1.968541102115316,-3.547278414192827,5.2607288647752,2.580589147849069,-0.91689384252435,0.5607398621208646,1.7291791239579979,-0.6975882748184894,-4.33283417650083
226,11.3,-1.47,-1.1,1.61,1.71,-0.391,0.7509999999999999,2.0,1.24,-7.26,0.0,0.0,0.0,1.0,90.0,11300000000.0,-1.637050036673189,-1.736315393993353,3.1998117283047014,1.8216300913683963,-0.5071194934062253,0.7141282567103078,1.904800477457544,0.3593916223903497,-6.645413643337149
227,11.4,3.22,1.46,0.0023899999999999998,0.10400000000000001,-0.153,0.475,6.58,3.21,-9.04,0.0,0.0,0.0,1.0,90.0,11400000000.0,1.5925107490142631,0.6289280010046727,1.3947964827983792,0.3242406830109932,-0.231191016814712,0.5213421944118692,4.936564005551116,1.9144360116434203,-8.537233599114021
228,11.4,1.08,-0.10800000000000001,2.49,-1.67,1.08,0.128,4.71,1.86,-6.4,0.0,0.0,0.0,1.0,90.0,11400000000.0,1.2517309636682639,0.08360820056674312,2.013063083421809,-1.414291280845437,0.7904837439521608,0.20422831260853985,4.789642279311771,1.884740459014576,-6.848732766515653
229,11.5,-3.34,-1.64,4.17,-3.18,1.53,-0.514,0.831,1.34,-4.19,0.0,0.0,0.0,1.0,90.0,11500000000.0,-1.80141318394701,-1.1918456664472383,3.2307016955923453,-2.9535945632329135,1.3667117918356548,-0.374809925685798,2.2225502202878893,1.5875773910174895,-4.748226487987025
230,11.5,-4.44,-4.12,4.59,-3.67,1.53,-0.9570000000000001,1.39,2.83,-3.17,0.0,0.0,0.0,1.0,90.0,11500000000.0,-3.5558683740349784,-3.358652282793053,3.998055722238094,-3.578139995964558,1.493945279696955,-0.8441736637571525,1.6826597908923668,2.265335226102718,-3.5013638473345097
231,11.6,-3.32,-15.3,6.91,-3.6,0.8059999999999999,-1.58,1.48,-9.3,0.846,0.0,0.0,0.0,1.0,90.0,11600000000.0,-3.399034193467556,-12.195137562883168,5.641912550236419,-3.597196948862928,0.9579011008677785,-1.4373995275210356,1.551239407253917,-4.043707380512029,-0.06677072050303723
232,11.6,-3.1,-13.0,7.93,-2.64,0.0794,-1.56,1.23,-5.73,3.0,0.0,0.0,0.0,1.0,90.0,11600000000.0,-3.2001996334328,-12.790728205824763,6.933588397532986,-2.7627353119538673,0.2733766050808444,-1.5362404216498147,1.3429227627834825,-4.963602197260382,2.35610207551114
233,11.7,-7.48,-9.06,9.09,-1.26,0.273,-1.26,-3.61,-1.0,5.06,0.0,0.0,0.0,1.0,90.0,11700000000.0,-6.0459342481178275,-10.030024688851963,8.150930501345167,-1.452686094672752,0.27308315741406075,-1.313534396099835,-1.868938130910801,-2.8014050592697783,4.492290653942193
234,11.7,-5.95,-10.9,7.79,0.34700000000000003,-0.168,0.0337,-2.32,-2.59,4.06,0.0,0.0,0.0,1.0,90.0,11700000000.0,-5.982145302656854,-10.673797964650845,7.947177233331545,0.11623780676797035,-0.07060704979953564,-0.2273891976543212,-2.1614417421361196,-2.686080771678894,4.150763523451717
235,11.8,-5.24,-12.0,9.08,1.29,-0.0953,0.7759999999999999,-1.49,-3.92,5.0,0.0,0.0,0.0,1.0,90.0,11800000000.0,-5.488676206453362,-11.655175013048744,8.586680683409691,1.1394959750913811,-0.08984769376203128,0.5815467876642071,-1.726026616099475,-3.3591999839939213,4.821694657186509
236,11.8,-2.96,-9.84,7.47,1.31,0.13,1.05,1.13,-2.28,2.75,0.0,0.0,0.0,1.0,90.0,11800000000.0,-3.8073030925058147,-10.311962667264527,7.956289634645303,1.2881373134686758,0.08145673467419501,0.9592154077421902,0.12604352872532743,-2.7704821807327917,3.1849721617657307
237,11.9,-3.04,-10.1,5.6,2.0,-0.687,0.9,1.39,-3.11,0.386,0.0,0.0,0.0,1.0,90.0,11900000000.0,-3.2971061482322215,-10.155112566857158,6.626111995611007,1.908722417156092,-0.5173216209745499,0.911475714596389,0.9456913600950838,-2.9556935601190153,0.9736710546117471
238,11.9,-3.98,-9.96,6.72,3.19,-1.41,0.877,0.495,-3.86,0.48200000000000004,0.0,0.0,0.0,1.0,90.0,11900000000.0,-3.7511774953280783,-10.010731128413173,6.679113731067683,3.0257100499623304,-1.212892970750438,0.8836812491834842,0.6534279755665351,-3.449004561587607,0.5852310479895944
239,12.0,-0.991,-5.08,6.09,3.7,-1.36,0.474,3.13,-0.28300000000000003,-1.41,0.0,0.0,0.0,1.0,90.0,12000000000.0,-1.9158739898229864,-6.3620363540570715,6.34654609349577,3.6135401695466363,-1.3275181830072915,0.5533947635438541,2.259430280207665,-1.7219074217288792,-0.9910820799353379
240,12.0,-1.27,-2.08,6.49,2.81,-0.377,0.16699999999999998,2.52,1.35,-1.88,0.0,0.0,0.0,1.0,90.0,12000000000.0,-1.4864179736011152,-3.19336961917018,6.427528865597193,2.913032748129311,-0.5868782694866014,0.24188191704162953,2.4284039730411475,-0.04614150062407396,-1.693363153790035
241,12.1,1.4,-1.13,4.84,1.46,-0.0336,0.373,5.25,1.23,-3.87,0.0,0.0,0.0,1.0,90.0,12100000000.0,0.43282562001066327,-1.66649547984526,5.531333814338171,1.6463130955240641,-0.15576608286474497,0.34758978212607566,4.258146644749376,0.6500104854325073,-3.4129941287927545
242,12.1,1.81,0.7020000000000001,1.18,-0.684,0.285,0.038,5.77,2.77,-7.55,0.0,0.0,0.0,1.0,90.0,12100000000.0,1.3485395056179987,0.08616894286344046,3.074909659085514,-0.38519892335415373,0.18767706012305618,0.09799738935377195,5.2385501242472206,1.8064926427225612,-6.6813960922695514
243,12.2,-3.0,-0.0718,3.11,-2.02,0.77,-0.508,1.19,2.6,-5.35,0.0,0.0,0.0,1.0,90.0,12200000000.0,-1.5429012811956944,-0.03072659167904565,3.0947188729927952,-1.81037993510985,0.6414207204279276,-0.3905598906488473,2.613154870848638,2.239361292321775,-5.62953930291899
244,12.2,-2.6,-0.716,5.52,-2.84,1.45,-0.65,1.91,3.06,-2.33,0.0,0.0,0.0,1.0,90.0,12200000000.0,-2.245789704203272,-0.5378224918513631,4.463843669937152,-2.707978353390107,1.2714624558445586,-0.5997214173085751,2.1571744538106272,2.687030471274874,-3.0227698604478475
245,12.3,-1.7,-5.31,3.63,-3.55,1.54,-1.36,3.12,-0.175,-3.2,0.0,0.0,0.0,1.0,90.0,12300000000.0,-1.8828820033895008,-4.0691889777954975,3.993120550515013,-3.442032927626668,1.480705792406523,-1.2126607467200088,2.781545469733431,1.1257552021104054,-3.1627888701558344
246,12.3,-7.05,-21.3,6.47,-3.44,0.433,-1.84,-2.31,-14.7,1.05,0.0,0.0,0.0,1.0,90.0,12300000000.0,-5.318613990617691,-16.81982671097453,5.39137363341935,-3.4402607191436423,0.6643376829896708,-1.7184239277394462,-0.5202092170479995,-7.507402337207794,0.16548453648672323
247,12.4,-6.8,-11.6,11.7,-2.12,-0.162,-1.17,-2.67,-3.87,7.42,0.0,0.0,0.0,1.0,90.0,12400000000.0,-6.30362067493273,-12.957204259900998,8.952732563626611,-2.2892884574889987,0.020458708370893697,-1.2762825572809628,-1.914301083079666,-5.5231514514577205,5.896844964623957
248,12.4,-4.6,-9.67,9.16,-0.29,-0.0458,-0.532,-0.875,-1.43,5.37,0.0,0.0,0.0,1.0,90.0,12400000000.0,-5.170845274331006,-10.524704042586677,9.06973952702468,-0.5463559181869344,-0.031169809044369064,-0.6762392966398876,-1.2403372972314608,-3.2902834625276185,5.480616062591514
249,12.5,-1.95,-8.75,5.57,1.27,0.0183,0.32299999999999995,1.69,-0.565,1.59,0.0,0.0,0.0,1.0,90.0,12500000000.0,-3.0292335345018984,-9.211439721864233,7.09405929820689,1.0371003231804359,0.007376866160761393,0.12935101630520796,0.6599217223845555,-1.8036054825531527,2.4068721814804874
250,12.5,-3.6,-10.8,7.41,1.74,0.0281,0.624,0.23399999999999999,-3.01,2.83,0.0,0.0,0.0,1.0,90.0,12500000000.0,-3.4087488085853703,-10.386959546587924,7.2724147221872535,1.6498716946717362,0.023524248618774654,0.5281388099495734,0.3837208957576676,-2.4617095561894433,2.741160196239239
251,12.6,-5.34,-10.6,7.99,2.18,-0.168,0.7509999999999999,-1.2,-3.41,2.77,0.0,0.0,0.0,1.0,90.0,12600000000.0,-4.692880848416996,-10.544607763188258,7.677507344726533,2.1120251085012494,-0.12571066807967918,0.7078102896277177,-0.6432871389169468,-2.9790145144395703,2.7639447915448323
252,12.6,-6.34,-10.4,8.44,2.8,-1.48,1.17,-2.08,-4.13,2.26,0.0,0.0,0.0,1.0,90.0,12600000000.0,-5.788087165543711,-10.43759909452686,8.107951066858455,2.711785354207709,-1.18096744276405,1.0804292558212887,-1.5749636312994357,-3.6068922999326394,2.3658080345090644
253,12.7,-2.99,-6.2,6.8,3.54,-1.84,0.8240000000000001,0.95,-1.19,-0.649,0.0,0.0,0.0,1.0,90.0,12700000000.0,-3.9275766843842943,-7.301815429582987,7.36958388466753,3.433803319028212,-1.6944829669564694,0.873695071614411,0.062419479091185615,-2.288445788414403,-0.01601213111667743
254,12.7,0.826,-0.539,6.78,2.88,-0.451,0.649,4.2,2.99,-1.73,0.0,0.0,0.0,1.0,90.0,12700000000.0,-0.7668176711515993,-2.2973955199133975,7.03675086729784,2.9510107444997167,-0.7255660816253766,0.6925450908261451,2.745548890745372,0.5910158299228567,-1.3701318240773481
255,12.8,1.44,0.35200000000000004,6.04,1.56,0.365,0.541,4.81,2.68,-2.87,0.0,0.0,0.0,1.0,90.0,12800000000.0,0.7005445962567736,-0.3368677238488482,6.474062947717291,1.7383603289791023,0.12419859761054719,0.5703689024491172,4.084299777643665,1.7305842107539828,-2.5550882016374334
256,12.8,-0.139,-0.711,2.66,-0.303,0.23600000000000002,0.326,3.46,1.15,-6.27,0.0,0.0,0.0,1.0,90.0,12800000000.0,0.14231269317908868,-0.6137221124674445,4.32094015125826,-0.041249471218785416,0.21131379844533532,0.373357821617661,3.679455192387915,1.4138678734602772,-5.490018625179418
257,12.9,1.4,1.64,5.17,-2.02,0.802,-0.205,5.12,3.9,-3.62,0.0,0.0,0.0,1.0,90.0,12900000000.0,0.9785769842966923,1.0540110696953842,4.800253247647515,-1.7662775046757166,0.6715740824484134,-0.0929163253155838,4.61361659267846,2.770085704449822,-4.012628254268465
258,12.9,-3.48,-2.97,6.8,-3.01,1.56,-0.588,0.737,0.35700000000000004,-1.41,0.0,0.0,0.0,1.0,90.0,12900000000.0,-1.986030186004727,-1.9237193432547528,5.929154601984617,-2.8505254395713298,1.3638319128974548,-0.49205455762955147,2.0997163905787226,1.4537157059852892,-1.9564467359961433
259,13.0,0.5870000000000001,-3.21,3.29,-3.53,1.21,-1.21,5.17,1.57,-3.94,0.0,0.0,0.0,1.0,90.0,13000000000.0,-0.2751650894009916,-2.875554974718089,4.439293468380443,-3.442875313724975,1.2439667394219924,-1.070864776831764,4.090727513477741,1.5171503466506429,-3.5235340142552958
260,13.0,-3.7,-10.2,5.17,-3.48,1.01,-2.19,0.912,-3.79,-0.682,0.0,0.0,0.0,1.0,90.0,13000000000.0,-2.5524141459383554,-8.295575349659371,4.851793501021119,-3.475239756410309,1.0616607966717182,-1.973115650382589,2.0293929649812488,-1.377969959787806,-1.2786073031980862
261,13.1,-10.6,-18.1,12.0,-2.18,-0.988,-1.39,-6.56,-10.4,7.34,0.0,0.0,0.0,1.0,90.0,13100000000.0,-7.903433504680263,-15.55075777472882,8.887114082794378,-2.3460803380116317,-0.5354265718755797,-1.5030057118745999,-3.540638526853965,-6.2996058193306,5.530440860899293
262,13.1,-6.59,-13.3,14.1,-0.133,0.374,-0.5529999999999999,-3.14,-5.15,9.85,0.0,0.0,0.0,1.0,90.0,13100000000.0,-7.030102410391033,-13.88521830520324,11.829903630703129,-0.4167690871130756,0.17319493794539575,-0.7371076810198063,-3.2808333635480458,-5.672480774368,8.943067433595104
263,13.2,-3.54,-10.8,5.53,1.09,0.299,0.473,-3.12,-5.25,9.68,0.0,0.0,0.0,1.0,90.0,13200000000.0,-4.709455545662372,-11.602185881682963,8.273468888484643,0.8967967010161744,0.271221728632216,0.23848545985295178,-3.176536407178698,-5.442011954407728,9.52527418126764
264,13.2,-0.4,-4.97,2.89,1.19,-0.618,0.664,3.23,2.7,-2.03,0.0,0.0,0.0,1.0,90.0,13200000000.0,-1.8440025584338553,-6.694430473827798,5.234381757073515,1.152404472928135,-0.42165621650763313,0.5815367866066685,0.9779608932733415,-1.0004373028002878,0.39614065726975944
265,13.3,-5.28,-8.73,8.32,1.82,-0.439,0.608,-1.51,-1.49,2.9,0.0,0.0,0.0,1.0,90.0,13300000000.0,-4.128673938271842,-8.200732463206732,6.976281291379478,1.7343985565889621,-0.435170430501587,0.6028715083156527,-0.6354267607418635,-1.2675001992998778,2.374290793193553
266,13.3,-6.77,-13.5,9.56,2.93,-1.33,1.41,-2.86,-7.15,3.21,0.0,0.0,0.0,1.0,90.0,13300000000.0,-5.884950463100043,-12.122140661437857,8.43484785310182,2.7766957596801642,-1.13241803862527,1.2535813638044035,-2.0780132796385047,-4.476481274216697,3.0345348673390964
267,13.4,-4.2,-6.23,8.4,3.63,-1.44,0.5539999999999999,-0.499,-1.17,0.861,0.0,0.0,0.0,1.0,90.0,13400000000.0,-4.764589238837861,-7.762011934274137,8.41517525435623,3.5205863743946977,-1.37208470118559,0.6895763774513225,-1.0540580692587551,-2.6727522204625567,1.3173544917111373
268,13.4,-1.34,-3.47,4.93,2.69,-0.469,0.884,2.07,0.0779,-3.55,0.0,0.0,0.0,1.0,90.0,13400000000.0,-2.4875035888272907,-4.585963441360948,6.447716685593807,2.7965008091341526,-0.6684047704436595,0.8463214013720423,0.971824509768572,-1.17223525066623,-2.5280522066606164
269,13.5,1.18,0.6609999999999999,2.87,1.39,-0.444,0.662,4.49,3.17,-6.01,0.0,0.0,0.0,1.0,90.0,13500000000.0,-0.04889878894939104,-0.703259772548058,4.428016465545822,1.570346557948962,-0.4935494870655819,0.6977208274413819,3.2532834219353317,1.1965112403223068,-5.278931848159008
270,13.5,1.22,-1.23,1.23,-0.12300000000000001,0.077,0.33299999999999996,4.37,2.73,-6.16,0.0,0.0,0.0,1.0,90.0,13500000000.0,0.794820301262746,-1.0930426070099368,2.6226654884660925,0.09412695656427772,-0.0489796389481586,0.40368159281477417,3.977449371337302,2.033049541478841,-5.975011171128031
271,13.6,-2.42,-1.56,0.364,-1.49,1.1,-0.014,1.11,0.8109999999999999,-8.47,0.0,0.0,0.0,1.0,90.0,13600000000.0,-1.342785382194458,-1.438586649086959,1.3475988876236118,-1.2868775771922127,0.8463006586071553,0.06694519554720235,2.1179718283457705,1.3664054353732937,-7.946153378269765
272,13.6,-1.84,-0.294,4.75,-3.06,1.65,-0.5710000000000001,2.13,3.07,-3.56,0.0,0.0,0.0,1.0,90.0,13600000000.0,-1.67339447988756,-0.5916032803313443,3.2683295265862613,-2.832643843521258,1.472539910235711,-0.4473684910792982,2.125771906076787,2.2957386439722796,-4.480914921757358
273,13.7,-1.23,-3.61,4.14,-3.77,1.79,-1.09,3.24,1.26,-3.11,0.0,0.0,0.0,1.0,90.0,13700000000.0,-1.3785716256881755,-2.825188421762611,3.760406701975577,-3.6498088203205854,1.719903496100867,-0.9654603433971701,2.848324208900448,1.7307295838119638,-3.3978366526390036
274,13.7,-6.51,-18.7,7.03,-3.77,0.446,-1.43,-1.93,-12.2,1.24,0.0,0.0,0.0,1.0,90.0,13700000000.0,-4.790572813380721,-14.572400433206306,5.606164512424192,-3.754588639909653,0.7272830614406034,-1.3399738369744527,-0.25031341490255965,-5.8686665525239,0.2662417233602441
275,13.8,-7.92,-14.5,12.1,-2.25,-0.29600000000000004,-1.33,-3.84,-6.82,7.5,0.0,0.0,0.0,1.0,90.0,13800000000.0,-6.871398712665748,-14.518824792731566,9.272078408554671,-2.4429237433339095,-0.07005495664101624,-1.331932928462194,-2.578145784599572,-6.38763155612468,5.98120307480357
276,13.8,-5.2,-10.8,9.71,-0.358,0.361,-0.657,-1.56,-2.59,5.71,0.0,0.0,0.0,1.0,90.0,13800000000.0,-5.7600483491506775,-11.766929520261879,9.519294848839369,-0.6253363974096364,0.2658213200442215,-0.7877995870941736,-1.9179007052186272,-4.315973539320167,5.7669417166528945
277,13.9,-4.72,-9.45,8.02,1.18,0.42100000000000004,0.191,-1.64,-2.62,5.59,0.0,0.0,0.0,1.0,90.0,13900000000.0,-5.0684968938273895,-10.052423298346188,8.672910022756179,0.9485132564966747,0.3867359216507632,0.0013121473312759369,-1.7376882296719194,-3.3907976014310637,5.627150730913022
278,13.9,-3.5,-7.04,5.63,1.58,0.055,0.501,0.201,0.7240000000000001,0.932,0.0,0.0,0.0,1.0,90.0,13900000000.0,-4.025568368757321,-7.823258326725341,6.955120115139433,1.499028545809593,0.12824863546946375,0.4041622744404708,-0.4804917507154156,-1.146121394044349,1.917791909883646
279,14.0,-6.17,-11.0,9.09,2.41,-0.708,0.794,-2.3,-3.82,3.7,0.0,0.0,0.0,1.0,90.0,14000000000.0,-5.451448781180236,-10.174017324030082,8.160307088398147,2.293192052784474,-0.5233529161345689,0.7184508696325084,-1.6604026118674595,-2.60475731083375,3.325808356969912
280,14.0,-5.99,-10.4,9.63,3.02,-1.02,1.07,-2.02,-4.29,3.12,0.0,0.0,0.0,1.0,90.0,14000000000.0,-5.809543331332912,-10.341242099181626,8.989981289573814,2.926806065684441,-0.9103382965957079,1.0018710806233369,-1.8935935593010407,-3.5240793455657347,3.163211347928177
281,14.1,-4.3,-5.88,6.89,3.15,-1.25,0.76,-0.373,-0.988,-0.645,0.0,0.0,0.0,1.0,90.0,14100000000.0,-4.805814470058664,-7.039964937424773,7.804495355565066,3.1213813576247302,-1.175001319571698,0.8068737409738996,-0.9075222356208905,-2.14061468832256,0.15457051003679068
282,14.1,-0.943,-0.5770000000000001,4.4,2.41,-1.23,0.86,2.57,2.94,-4.06,0.0,0.0,0.0,1.0,90.0,14100000000.0,-2.2373430919279227,-2.2574316102208476,5.882582523865601,2.5012159399530383,-1.217856083367561,0.8497043329153321,1.3475740444228959,0.6309274885485046,-3.1751104565725714
283,14.2,3.0,-0.934,3.62,1.38,-0.365,0.9329999999999999,6.15,1.55,-5.33,0.0,0.0,0.0,1.0,90.0,14200000000.0,1.2450829987108003,-1.2781046616850977,4.6053046095208785,1.5237663187327208,-0.55331408643001,0.9168576208962239,4.461841214201765,1.1322936075142822,-4.877560213716075
284,14.2,1.7,-0.192,1.36,-0.502,0.29100000000000004,0.501,4.84,1.81,-7.72,0.0,0.0,0.0,1.0,90.0,14200000000.0,1.547567478458047,-0.47439741566413096,2.7732584271577583,-0.24224896590508105,0.10457203522504321,0.5815917062945577,4.707068929169435,1.5019913283202384,-7.123202340828561
285,14.3,-0.342,-0.953,2.54,-1.89,1.01,-0.0121,3.1,1.49,-6.31,0.0,0.0,0.0,1.0,90.0,14300000000.0,0.2911519643177929,-0.828558838994075,2.641578867249761,-1.6787194493489481,0.8100778291328262,0.10295532519597883,3.6649201798515003,1.4954499061834943,-6.48073958522899
286,14.3,-2.6,-0.7879999999999999,5.29,-3.07,1.73,-0.682,1.41,2.73,-2.94,0.0,0.0,0.0,1.0,90.0,14300000000.0,-1.6312393176185263,-0.7985456699561804,4.136671119240759,-2.8916049674291973,1.5268774719898002,-0.5298784559279811,2.2026542509149976,2.168913232710498,-3.683412278420483
287,14.4,-2.05,-5.05,4.33,-3.52,1.59,-1.42,2.42,-0.0847,-2.85,0.0,0.0,0.0,1.0,90.0,14400000000.0,-1.9096825920817784,-3.9445820790325943,4.245809502948598,-3.4394249220163626,1.5760623160499576,-1.2474975999746656,2.343598215753982,0.9395375672275013,-3.0249828253112128
288,14.4,-4.8,-18.8,7.32,-3.52,0.37,-1.77,-0.435,-12.3,1.46,0.0,0.0,0.0,1.0,90.0,14400000000.0,-3.8315191491129528,-14.93745123069753,5.981258091279681,-3.5096683583341552,0.63630345009015,-1.668740891922763,0.5417386728981706,-6.282804439841527,0.518334872948337
289,14.5,-5.87,-13.1,10.8,-2.13,-0.13699999999999998,-0.976,-2.06,-5.41,5.96,0.0,0.0,0.0,1.0,90.0,14500000000.0,-5.186950400658338,-13.577754862476644,8.70154452606112,-2.306906117258264,0.033748539495180196,-1.110250711209853,-1.1454313260146556,-5.80667805332364,4.817470248681656
290,14.5,-5.86,-7.48,8.92,-0.507,0.644,-0.6709999999999999,-2.31,0.6709999999999999,4.79,0.0,0.0,0.0,1.0,90.0,14500000000.0,-5.634476161116508,-9.06547355799388,8.824867513188458,-0.737790433167435,0.5092539999381562,-0.7561252168214978,-1.9006283392893029,-2.2730194622445654,4.795767612025182
291,14.6,-5.99,-10.3,8.24,0.912,-0.18600000000000003,0.405,-2.46,-2.15,4.05,0.0,0.0,0.0,1.0,90.0,14600000000.0,-5.870871729170095,-9.97901166962027,8.494696744125106,0.700457963183349,-0.03248510306610908,0.179978094916468,-2.263368524973839,-2.205910779349242,4.206581213081875
292,14.6,-4.24,-11.7,9.14,1.67,-0.0788,0.9520000000000001,-0.565,-4.02,4.32,0.0,0.0,0.0,1.0,90.0,14600000000.0,-4.786468634409225,-11.252526726749418,8.858984890488339,1.5456818107014065,-0.06857348328308735,0.8023849390743009,-1.1620140656175073,-3.1955203023284118,4.296186773568464
293,14.7,-2.51,-9.72,5.47,1.91,-0.527,0.991,1.51,-2.64,0.007540000000000001,0.0,0.0,0.0,1.0,90.0,14700000000.0,-3.272793921668543,-10.118471542437828,6.945827886909371,1.863285788047771,-0.4257775753571973,0.9544470744171891,0.5707280034463902,-2.892476727017831,0.9079825202825131
294,14.7,-4.43,-11.0,7.47,2.78,-1.26,1.03,-0.35700000000000004,-4.81,1.08,0.0,0.0,0.0,1.0,90.0,14700000000.0,-4.042245907321384,-10.770794320341992,7.241734513278433,2.6624555960525713,-1.0758003009204082,1.0153580907057036,-0.03088310147824913,-3.9385108653620478,1.043883314312683
295,14.8,-2.84,-5.44,6.49,3.37,-1.21,0.8690000000000001,1.08,-0.532,-1.04,0.0,0.0,0.0,1.0,90.0,14800000000.0,-3.242845764838555,-6.826056640776196,6.817363634022681,3.2792760230458544,-1.1803681923870835,0.8973636877178909,0.6895000693079537,-2.0802143800665354,-0.6024686826382406
296,14.8,-0.433,-0.7809999999999999,2.85,2.69,-0.266,0.7809999999999999,3.4,2.67,-5.49,0.0,0.0,0.0,1.0,90.0,14800000000.0,-1.3745167216185825,-2.352771524622062,4.577699109099457,2.765559131752995,-0.4678962039624598,0.8035508802903727,2.447199439438097,0.5110900927898494,-4.463815745456541
297,14.9,0.929,-1.83,2.86,1.64,-0.26899999999999996,0.59,4.65,0.597,-5.88,0.0,0.0,0.0,1.0,90.0,14900000000.0,0.15714287381519942,-1.9659255388451924,3.608019932573882,1.7843232100243525,-0.31291708293652537,0.6313853741818642,3.875666987205719,0.5579550788394873,-5.582658624323576
298,14.9,3.49,2.05,2.0,-0.485,0.345,0.307,7.14,4.04,-6.88,0.0,0.0,0.0,1.0,90.0,14900000000.0,2.3732338272027302,1.0058216007709317,2.7002571349065274,-0.19401926404602277,0.19972924126436392,0.3698647320922698,5.992514724022325,2.457456367240884,-6.607610826498708
299,15.0,-0.0982,-0.371,3.47,-2.25,1.08,-0.252,3.88,2.19,-5.12,0.0,0.0,0.0,1.0,90.0,15000000000.0,0.7299224204577173,-0.013013444542542052,3.134794013783763,-1.9863747875788398,0.8856326830343102,-0.1314848466849764,4.622595682165623,2.3115554318585687,-5.432338069471581
300,15.0,-3.69,0.0766,4.54,-2.79,1.61,-0.7490000000000001,0.7559999999999999,3.76,-3.39,0.0,0.0,0.0,1.0,90.0,15000000000.0,-2.208982494629877,0.05329966282360035,3.928063833938529,-2.6869562642297016,1.4500567724082876,-0.6293277865768943,2.1151938150710246,3.1017009922071366,-3.8188085475105558
301,15.1,-2.49,-6.25,5.43,-3.71,1.54,-1.72,2.38,-1.09,-1.34,0.0,0.0,0.0,1.0,90.0,15100000000.0,-2.3958373003321105,-4.611082877232374,4.77593990349172,-3.578821701940459,1.5201401411718625,-1.508631656606291,2.286914848509134,0.8150729428286576,-1.8604496538161783
302,15.1,-2.78,-25.2,8.3,-3.62,0.37200000000000005,-1.99,1.84,-18.4,2.92,0.0,0.0,0.0,1.0,90.0,15100000000.0,-2.6512756180551893,-19.846688709387756,6.765349835976667,-3.614719871396624,0.6255140023333214,-1.8967125477568025,1.9971004668436274,-9.667001904937077,1.916298808780754
303,15.2,-7.15,-11.1,10.5,-1.72,1.09,-0.9490000000000001,-2.96,-3.3,6.26,0.0,0.0,0.0,1.0,90.0,15200000000.0,-5.642577738119316,-13.374221509283773,8.873642409052032,-1.9629477918349585,0.9874396356162695,-1.132663296328309,-1.2174696683800486,-6.193718584766165,5.347998457669011
304,15.2,-4.95,-8.52,8.87,0.0736,-0.12,-0.5589999999999999,-1.03,-0.318,5.19,0.0,0.0,0.0,1.0,90.0,15200000000.0,-5.18206724512534,-9.782143529583228,8.871586124021263,-0.18753344931318372,0.12452716100360883,-0.6701739033665934,-1.0958997125968901,-2.9884367982564783,5.223173336670803
305,15.3,-3.5,-8.34,6.12,1.39,-0.10099999999999999,0.5579999999999999,0.377,-0.267,2.13,0.0,0.0,0.0,1.0,90.0,15300000000.0,-4.06362326354593,-8.714970977469285,7.31825486782761,1.1877229995184961,-0.05120269174960346,0.3199843214579726,-0.14075679456329626,-1.5038572199510438,2.7794414973792714
306,15.3,-4.68,-9.41,6.43,1.92,-0.155,0.626,-0.542,-1.83,1.78,0.0,0.0,0.0,1.0,90.0,15300000000.0,-4.473465772088215,-9.229285812430492,6.816815262910523,1.8261047833052546,-0.1320811346782283,0.5666952477481128,-0.4009541438129769,-1.6817724201386424,1.9898423048678535
307,15.4,-6.92,-11.7,11.3,2.11,-0.48100000000000004,0.82,-2.61,-4.76,5.91,0.0,0.0,0.0,1.0,90.0,15400000000.0,-6.100220930775448,-11.057590961284074,9.347672256721422,2.0735978472350065,-0.4039573055402409,0.7709104409828949,-1.833471497912913,-3.3609861824955267,5.086925175269824
308,15.4,-4.9,-10.2,8.25,2.88,-1.17,1.29,-0.512,-4.18,1.86,0.0,0.0,0.0,1.0,90.0,15400000000.0,-5.302167360789737,-10.422981564625351,8.72801200345059,2.77660032801713,-1.0008546356021082,1.1894022729028846,-0.9765264492318695,-3.8077689000551262,2.537523899522474
309,15.5,-2.53,-5.7,5.27,3.56,-1.79,0.868,1.5,-1.09,-2.39,0.0,0.0,0.0,1.0,90.0,15500000000.0,-3.4588915098447517,-6.928019431278715,6.775887776414882,3.4595496388244467,-1.6157534761827415,0.9302865852704094,0.6294462266857426,-2.325190232269129,-1.3554191829893725
310,15.5,-0.275,0.764,3.59,2.6,-1.04,0.358,3.23,3.99,-4.99,0.0,0.0,0.0,1.0,90.0,15500000000.0,-1.3418511234743193,-1.2359973086491705,4.977383653236901,2.710214449594121,-1.1671286707828326,0.46890709766062305,2.3158478938773106,1.119829118092742,-4.226884719367652
311,15.6,0.737,0.517,2.32,1.13,0.11,0.191,4.1,2.76,-6.62,0.0,0.0,0.0,1.0,90.0,15600000000.0,0.04042329010099399,0.06120424733011709,3.4772318010914396,1.3326207513103592,-0.17199518592653018,0.2448573993383124,3.4728310465689054,2.014563904673068,-6.11754240535961
312,15.6,0.177,0.747,4.89,-0.96,0.821,0.063,3.73,2.83,-4.01,0.0,0.0,0.0,1.0,90.0,15600000000.0,0.13123618765494288,0.5686866467155812,4.274770603638821,-0.6660319386967934,0.601742623704177,0.09824331310965412,3.6395994423049025,2.4593949797456984,-4.452498921116703
313,15.7,-0.479,-1.66,4.48,-2.36,0.85,-0.205,3.41,1.12,-4.08,0.0,0.0,0.0,1.0,90.0,15700000000.0,-0.27452344877011386,-1.080520511848857,4.390627145305196,-2.142793257635225,0.795183783947055,-0.14623253117188345,3.4907093333298005,1.728737401763555,-4.158209660646401
314,15.7,-0.575,-0.23,4.7,-2.97,1.24,-0.7559999999999999,3.65,3.72,-3.22,0.0,0.0,0.0,1.0,90.0,15700000000.0,-0.47431699327306864,-0.4511433255849804,4.565274852879663,-2.8639326142123402,1.141782784521487,-0.6378292354626935,3.594005872495726,2.8149973588630512,-3.416986138711234
315,15.8,-3.67,-5.7,2.72,-3.65,1.38,-1.7,0.8540000000000001,-0.313,-4.12,0.0,0.0,0.0,1.0,90.0,15800000000.0,-2.5991978632846013,-4.335247818051734,3.5235764242645726,-3.5492077080298507,1.327400669845493,-1.4941551506404878,1.8171725950387279,1.1086336557316103,-3.972395407188356
316,15.8,-4.68,-21.6,7.44,-3.7,0.281,-1.59,-0.41,-14.6,1.99,0.0,0.0,0.0,1.0,90.0,15800000000.0,-3.9827694424932933,-17.11100253746482,5.734484138705627,-3.680664913906653,0.512049498837269,-1.5714256385709588,0.37290038565017003,-7.460632851501389,0.7381379097246481
317,15.9,-6.23,-13.7,11.7,-1.58,0.68,-0.7040000000000001,-2.46,-5.76,7.27,0.0,0.0,0.0,1.0,90.0,15900000000.0,-5.477003112925451,-14.586892560061203,9.102149604125307,-1.8493548151446642,0.6429158543774169,-0.8721039771977056,-1.464172937602544,-6.532915384813374,5.898572895564062
318,15.9,-5.19,-7.31,8.17,0.369,0.312,-0.478,-1.58,0.9059999999999999,4.22,0.0,0.0,0.0,1.0,90.0,15900000000.0,-5.2861683878106245,-9.202060379211625,8.575930590239034,0.08455459108397956,0.3850675665407163,-0.5543759265638144,-1.5392842558445454,-2.4748891769629005,4.572432311940401
319,16.0,-5.0,-10.1,8.56,1.43,-0.16,0.469,-1.41,-2.08,4.27,0.0,0.0,0.0,1.0,90.0,16000000000.0,-5.095888651972105,-9.866527546027921,8.566937656781858,1.2574821259087472,-0.0396468698955138,0.27067342219136836,-1.4554462512142288,-2.25947189472268,4.3334985492858165
320,16.0,-5.82,-11.3,6.97,1.94,-0.522,0.7909999999999999,-2.01,-3.8,1.98,0.0,0.0,0.0,1.0,90.0,16000000000.0,-5.5773665319652075,-10.927283837697509,7.665430930334449,1.852485163974237,-0.4154944858855573,0.6901625807679591,-1.8150620965600806,-3.09985021508627,2.4741396066076766
321,16.1,-4.99,-11.9,7.87,2.37,-0.73,1.13,-0.996,-5.13,2.01,0.0,0.0,0.0,1.0,90.0,16100000000.0,-5.186813288298533,-11.647084378248175,7.780914627612604,2.3036422947397406,-0.6605559229623079,1.0447610804974568,-1.2839184213606267,-4.207323690883257,2.107450554181769
322,16.1,-3.49,-8.21,7.29,2.89,-0.9570000000000001,1.39,0.604,-2.45,0.494,0.0,0.0,0.0,1.0,90.0,16100000000.0,-4.058564340466644,-9.103674253036662,7.503782446985625,2.8148152067403887,-0.8915439599679933,1.3230939230559755,-0.05964506236161049,-3.2486805267242542,0.8327594079651581
323,16.2,-2.99,-3.6,7.59,3.34,-1.85,0.982,0.745,0.785,-0.345,0.0,0.0,0.0,1.0,90.0,16200000000.0,-3.348052113132997,-5.031006934321496,7.552454247664549,3.27265885029886,-1.6383690412536223,1.048102774571747,0.4621494825839726,-1.04825472385589,-0.09771811611013048
324,16.2,1.38,-1.39,3.02,2.58,-0.991,0.723,4.69,1.51,-5.74,0.0,0.0,0.0,1.0,90.0,16200000000.0,-0.20426494260271655,-2.3366959943607593,4.993783622924382,2.6688151316820736,-1.1339417048614349,0.7860037446099352,3.203817152975593,0.34730687548299777,-4.555348625614427
325,16.3,-0.19399999999999998,-1.35,2.27,0.46299999999999997,0.23399999999999999,0.439,3.11,0.665,-6.74,0.0,0.0,0.0,1.0,90.0,16300000000.0,-0.19743955740557295,-1.6065502447661242,3.456147547018988,0.7458375147819729,-0.06804707340656702,0.5062480906500373,3.142978734419169,0.5206126657210958,-6.281311311326384
326,16.3,0.5529999999999999,0.848,1.51,-1.25,0.513,0.0887,4.07,2.92,-7.41,0.0,0.0,0.0,1.0,90.0,16300000000.0,0.301544403601979,0.20979387198199695,2.3575042312083823,-0.9940865667701002,0.3847024606935988,0.1696193208097127,3.7441316511031895,1.829510061039218,-7.1730208646269995
327,16.4,-1.8,0.268,3.28,-2.7,1.24,-0.498,2.03,3.19,-5.26,0.0,0.0,0.0,1.0,90.0,16400000000.0,-1.0958192533568212,0.25286586489244206,2.8782734685665754,-2.48126171229299,1.0511468450678445,-0.3686177648211097,2.632555135779339,2.5716752505835108,-5.661657258090274
328,16.4,-1.73,-1.68,5.12,-3.14,1.64,-0.812,2.55,2.55,-2.63,0.0,0.0,0.0,1.0,90.0,16400000000.0,-1.5175001717058212,-1.1774366798194011,4.143777584946945,-3.0555343092645484,1.5099788261986586,-0.7260740928773741,2.5790199236122517,2.5598510902500435,-3.266525606714253
329,16.5,-1.05,-11.8,4.41,-3.82,0.9520000000000001,-1.68,3.43,-6.05,-2.17,0.0,0.0,0.0,1.0,90.0,16500000000.0,-1.2066488616416273,-9.038033894192452,4.294065937025943,-3.721977413388579,1.0752040028583245,-1.4951325353744076,3.1308617414386415,-2.1369360422068167,-2.4002261275818193
330,16.5,-6.72,-22.1,9.54,-3.09,0.496,-1.55,-2.53,-14.9,4.34,0.0,0.0,0.0,1.0,90.0,16500000000.0,-4.872598711293765,-18.703766396391188,7.255511656876559,-3.1710343322275953,0.6238905844620343,-1.5393668435342682,-0.5400819853163727,-9.099355115390566,2.924825003245568
331,16.6,-10.1,-9.78,10.7,-0.9009999999999999,0.59,-1.32,-6.27,-1.78,6.53,0.0,0.0,0.0,1.0,90.0,16600000000.0,-8.348414529151155,-12.100262891411997,9.200001360271855,-1.1920719510136426,0.597483157939378,-1.3625125504472013,-4.255807185446038,-5.106550601548566,5.77305909992854
332,16.6,-3.39,-9.58,9.34,0.6,-0.326,-0.0286,0.162,-1.39,5.28,0.0,0.0,0.0,1.0,90.0,16600000000.0,-5.051454323162286,-10.235291969554964,9.279033773246635,0.3702141378247503,-0.12209118065434754,-0.287107471980534,-1.3909568503061913,-3.0791233510665625,5.3835226524470015
333,16.7,-2.66,-10.8,7.37,1.59,0.00122,0.713,0.9470000000000001,-2.93,2.77,0.0,0.0,0.0,1.0,90.0,16700000000.0,-3.461323127921755,-10.653170748606644,8.201341943920124,1.4335947178032524,-0.026007608366420132,0.5191827555025245,0.12515652014249334,-2.9977746378267924,3.318734130677555
334,16.7,-1.41,-7.06,3.75,1.72,-0.195,0.708,2.48,0.27899999999999997,-1.47,0.0,0.0,0.0,1.0,90.0,16700000000.0,-2.0973526620086202,-7.994258104965791,5.688461018421201,1.6832761140425163,-0.15768578959320317,0.6714078981163634,1.6522204917461014,-1.210250960737959,-0.4645593657397633
335,16.8,-7.67,-11.4,10.9,2.51,-1.52,1.11,-3.69,-4.74,4.95,0.0,0.0,0.0,1.0,90.0,16800000000.0,-5.802730065934616,-10.514474832960902,8.630489760698037,2.4039944945343583,-1.2191954873532866,1.0250024339140067,-1.8120914815933822,-3.13577536904135,3.8131611823997096
336,16.8,-5.77,-9.01,6.8,3.06,-1.71,1.31,-1.81,-3.52,-0.29100000000000004,0.0,0.0,0.0,1.0,90.0,16800000000.0,-5.78096710330635,-9.40117775831722,7.597137934971003,2.975884575053184,-1.6016284045809766,1.2547684468703926,-1.8107351648915389,-3.345374949124809,0.5707079942271536
337,16.9,1.98,-2.32,6.06,3.06,-1.27,0.7090000000000001,5.45,1.71,-2.17,0.0,0.0,0.0,1.0,90.0,16900000000.0,-0.620527177722642,-4.161172685242049,6.729389559514599,3.04921436911294,-1.3432248806350287,0.8147679622834496,2.8976910177529778,-0.5876013924082506,-1.5945621322571841
338,16.9,-0.5429999999999999,-2.66,2.11,2.33,0.313,0.645,2.66,0.089,-6.74,0.0,0.0,0.0,1.0,90.0,16900000000.0,-0.5689776188192294,-3.050319063034885,4.121641981052426,2.4222201753996004,-0.05270116971949235,0.6779004073377635,2.743553700907851,-0.21850643162042033,-5.659665791763491
339,17.0,2.56,2.51,2.05,0.182,0.44799999999999995,0.244,5.89,4.49,-6.95,0.0,0.0,0.0,1.0,90.0,17000000000.0,1.5115492640441186,1.0642648053543518,2.952154261605646,0.46924904988578664,0.33744316364880783,0.32808834623932154,4.783954508955306,2.350045640232104,-6.679081807403426
340,17.0,0.603,-0.0215,0.469,-1.67,0.691,0.0893,4.22,2.14,-8.38,0.0,0.0,0.0,1.0,90.0,17000000000.0,0.9074346094034165,0.26080904805037386,1.5503587967063084,-1.3956977887704858,0.6129332060240539,0.13557632512289544,4.418242336137548,2.2354630376571873,-8.022876003301986
341,17.1,-4.26,-2.37,6.37,-2.54,1.49,-0.7040000000000001,-0.302,0.795,-2.03,0.0,0.0,0.0,1.0,90.0,17100000000.0,-2.5285079260885297,-1.6859648501549218,4.271152730875101,-2.3932734394797976,1.296340105427314,-0.5412931137976739,1.3572694982783728,1.4496715110829936,-3.288261768683296
342,17.1,-0.455,-2.23,5.67,-3.14,1.28,-1.22,3.98,2.23,-1.85,0.0,0.0,0.0,1.0,90.0,17100000000.0,-1.1497863245915982,-2.088545764726803,5.060832979275019,-3.0442521378388587,1.2836079391958397,-1.0884690607144123,3.058052283779632,1.8753509770585954,-2.1519768707524163
343,17.2,-2.33,-10.1,5.87,-3.46,1.05,-1.88,2.14,-4.13,-0.501,0.0,0.0,0.0,1.0,90.0,17200000000.0,-1.934536637477798,-8.016946925024344,5.517625584732669,-3.406691353578232,1.1015815424039508,-1.726604136630006,2.462715732943315,-1.400647041017986,-0.847638417458445
344,17.2,-7.28,-17.4,8.38,-2.8,-0.22399999999999998,-1.27,-3.16,-10.1,3.25,0.0,0.0,0.0,1.0,90.0,17200000000.0,-5.488854444064407,-14.960317777935524,7.133499280340826,-2.877792096345085,0.06869377046066028,-1.3584882300281445,-1.1834912244673506,-6.146258724272908,2.3896615160475614
345,17.3,-5.39,-9.05,9.27,-1.23,-0.24,-0.764,-1.68,-1.06,4.96,0.0,0.0,0.0,1.0,90.0,17300000000.0,-5.4231238333144445,-10.586738282339201,8.339601422950834,-1.4412858199567657,-0.17183916046845915,-0.8792096874350057,-1.5054661595097143,-3.371637651546201,4.420332814722425
346,17.3,-4.13,-13.0,8.95,0.414,-0.47600000000000003,0.32,-0.639,-4.78,4.79,0.0,0.0,0.0,1.0,90.0,17300000000.0,-4.563297066576643,-12.372529284285658,8.684184805051945,0.1761086123446387,-0.40884006271071693,0.08759745426251242,-0.943582001353909,-4.13991795344742,4.712384799037703
347,17.4,-0.6609999999999999,-6.8,4.8,1.62,0.18,0.759,2.99,1.06,0.22399999999999998,0.0,0.0,0.0,1.0,90.0,17400000000.0,-1.9685728270058451,-8.248910100953221,6.491476729285001,1.4348590798636587,0.04998173373393355,0.6288845953461958,1.607259008210443,-1.3032943384995526,1.1663794396621059
348,17.4,-7.52,-9.32,9.8,1.95,-0.387,0.853,-3.61,-2.0,4.58,0.0,0.0,0.0,1.0,90.0,17400000000.0,-5.659840407105725,-9.041506339071711,8.359211359107952,1.8839468280724962,-0.2905126582592063,0.8095672257944397,-1.7760180993272345,-1.6833564416943037,3.8632775649155615
349,17.5,-4.83,-11.2,5.27,2.3,-1.99,1.04,-0.711,-4.61,-0.755,0.0,0.0,0.0,1.0,90.0,17500000000.0,-5.10806098388763,-10.63877123107353,6.615283248244836,2.2466521308415057,-1.6147463160148292,0.9953429233770924,-1.0853774131270062,-3.2798790742494925,0.2146516698933345
350,17.5,-3.69,-11.9,8.22,3.38,-1.85,1.01,0.203,-6.46,1.05,0.0,0.0,0.0,1.0,90.0,17500000000.0,-4.165160684544582,-11.572068390365006,7.521181478065955,3.234678177470115,-1.798055051900492,1.007159503386608,-0.24989313513261868,-5.014676893101177,0.874610569053474
351,17.6,-1.36,-5.16,0.6779999999999999,3.08,-0.972,0.888,2.4,-1.2,-7.47,0.0,0.0,0.0,1.0,90.0,17600000000.0,-2.2999468661999947,-6.827197900740524,3.6580542481868945,3.0998333233057664,-1.1543963048820227,0.9110926939659747,1.4685040673693313,-2.933720493586189,-5.717968816677972
352,17.6,0.127,2.55,0.51,2.12,-0.868,0.555,3.64,5.32,-8.22,0.0,0.0,0.0,1.0,90.0,17600000000.0,-0.686215828684124,0.11184042523611026,1.8809080310839315,2.245637637725797,-0.9312374419375034,0.6240094937733417,2.8766712618791983,1.5687927032495974,-7.694674768413607
353,17.7,7.25,2.06,-2.27,0.306,0.312,0.59,10.6,4.06,-11.3,0.0,0.0,0.0,1.0,90.0,17700000000.0,4.590750865620416,1.553460168061869,-0.4623712986760633,0.5547072787539225,0.037488140210873766,0.5965908968742856,7.885079525408274,2.9277790231119236,-10.543027541615924
354,17.7,-3.31,-1.15,2.36,-1.52,1.19,-0.203,0.47100000000000003,1.03,-6.43,0.0,0.0,0.0,1.0,90.0,17700000000.0,-0.6626343466664641,-0.44707494354161725,1.1309196295111126,-1.2539735865735555,0.9355207559413046,-0.04804214486778935,3.07721278077096,1.8925155859767875,-7.2935694425385424
355,17.8,-4.97,-2.49,6.01,-3.21,0.922,-0.496,-0.703,0.722,-2.21,0.0,0.0,0.0,1.0,90.0,17800000000.0,-3.526697582387394,-1.9588203020356163,3.885268481294257,-2.9591913220048998,0.9249854306387961,-0.4091873664291729,0.6258283219029188,1.2539839377867543,-3.2773441883304235
356,17.8,0.0599,-5.86,4.56,-3.32,1.29,-1.48,4.66,-1.16,-2.71,0.0,0.0,0.0,1.0,90.0,17800000000.0,-1.141888953144489,-4.84565673135697,4.266169306429969,-3.2737357610559705,1.2094032743140792,-1.272480364324879,3.241899408865109,-0.06287603692876709,-2.8291193835651716
357,17.9,-3.83,-14.3,6.43,-3.51,1.62,-1.86,0.779,-8.07,0.46799999999999997,0.0,0.0,0.0,1.0,90.0,17900000000.0,-2.92927381873477,-11.841782081339204,5.487699468125003,-3.479705344907584,1.529338582937152,-1.7461408115577044,1.644763557290094,-4.430867322382445,-0.22426183959061818
358,17.9,-7.78,-11.1,7.96,-2.42,0.563,-1.36,-3.47,-3.61,3.27,0.0,0.0,0.0,1.0,90.0,17900000000.0,-6.154629852571807,-11.292870591407862,6.883367790796509,-2.5558792806350636,0.7763714929434783,-1.4348327170494541,-1.6720476018566408,-3.9830733426597513,2.53634620015656
359,18.0,-5.5,-10.2,8.92,-0.5670000000000001,0.0415,-1.1,-1.72,-2.08,5.0,0.0,0.0,0.0,1.0,90.0,18000000000.0,-5.719351880842088,-10.484156478571228,8.033091736284895,-0.8220211990041519,0.2037626021264879,-1.1648893998885446,-1.7031436909511426,-2.944921758554814,4.482732257167866
360,18.0,-8.41,-15.4,10.5,1.16,-0.0538,0.5710000000000001,-4.78,-7.18,6.51,0.0,0.0,0.0,1.0,90.0,18000000000.0,-7.508423651593367,-14.121834224865708,9.42571598284774,0.9058581151566156,0.0030708648426569507,0.23459083883966603,-3.6984171508959327,-5.2552125561486385,6.0843558758030865
361,18.1,-2.78,-9.62,3.59,1.73,-0.465,0.8590000000000001,1.19,-1.89,-0.963,0.0,0.0,0.0,1.0,90.0,18100000000.0,-4.364389414670095,-10.790519102036857,6.1313252619463565,1.6243255929050653,-0.3616480591960045,0.737991764094479,-0.5283866159281425,-3.4194448311245655,0.5166599538341012
362,18.1,-2.8,-7.4,8.21,1.55,-0.665,0.7390000000000001,1.37,-0.22399999999999998,2.99,0.0,0.0,0.0,1.0,90.0,18100000000.0,-3.3241920122853346,-8.281566886150532,7.304783122797677,1.5595302521123398,-0.598018679001525,0.7388046255627034,0.7026751569480525,-1.6762876448937534,2.4706985443913916
363,18.2,-6.98,-11.9,7.0,2.97,-0.975,1.33,-2.72,-5.47,0.9229999999999999,0.0,0.0,0.0,1.0,90.0,18200000000.0,-5.755020194007254,-10.959173118140875,7.132726312662396,2.789144542982174,-0.8917610153644766,1.2154284896235374,-1.5168540664336447,-3.7458075247124194,1.2479541351953618
364,18.2,-1.32,-6.62,8.57,3.53,-1.41,1.1,2.87,-1.52,1.32,0.0,0.0,0.0,1.0,90.0,18200000000.0,-2.8060765058872112,-7.748225686321279,7.944098908221992,3.435004835359617,-1.2955707062683308,1.1223696468641702,1.327923780508661,-2.5316002300908136,1.304873321171083
365,18.3,-3.47,-1.96,5.2,2.84,-1.08,0.6509999999999999,0.371,1.63,-3.08,0.0,0.0,0.0,1.0,90.0,18300000000.0,-3.247534045929392,-3.4649930787263106,6.394994307784404,2.9162935758740978,-1.1275989188807158,0.7423497668279104,0.7073798497431578,-0.2613925632183065,-2.159353733025063
366,18.3,-0.314,-1.88,2.07,1.8,-0.517,0.706,3.28,0.612,-6.7,0.0,0.0,0.0,1.0,90.0,18300000000.0,-1.2969619173754017,-2.2921130856703664,3.9534393781479387,1.943135118170972,-0.6518227306825388,0.7130444307147301,2.3756671487388,0.21505456285650504,-5.74664761870754
367,18.4,-0.266,1.2,0.622,0.0272,-0.0819,0.262,3.25,3.14,-8.33,0.0,0.0,0.0,1.0,90.0,18400000000.0,-0.611452374201978,0.29201782963192,2.072768194942044,0.27286806212070824,-0.20774124871990574,0.3494107899015616,2.9426526817292284,1.8106508323724446,-7.787600331753771
368,18.4,2.48,0.177,2.97,-1.65,0.757,-0.184,6.08,2.43,-5.87,0.0,0.0,0.0,1.0,90.0,18400000000.0,1.4441231883199357,0.2069057169252875,2.57927539860783,-1.4034429505088177,0.5439812457945767,-0.08062690072118078,4.977153038889971,2.1485139869869543,-6.272618489893853
369,18.5,-0.898,-2.23,4.71,-2.72,1.8,-0.607,3.14,1.01,-3.62,0.0,0.0,0.0,1.0,90.0,18500000000.0,-0.1132066947859438,-1.596381636489729,3.782116557890505,-2.5511863654714926,1.5226659325010834,-0.5049907742734892,3.7857999587005082,1.5274396252492175,-4.176942601352173
370,18.5,-2.38,-3.61,2.94,-3.38,2.0,-1.31,2.27,1.0,-4.36,0.0,0.0,0.0,1.0,90.0,18500000000.0,-1.6204481353669942,-3.086440232811146,3.3067231780419872,-3.2737266475700038,1.8946027037281812,-1.1539920507310995,2.8028371693401914,1.2397143714472714,-4.321565449032358
371,18.6,-6.95,-13.7,6.19,-3.85,1.41,-2.03,-2.08,-7.43,0.38,0.0,0.0,0.0,1.0,90.0,18600000000.0,-5.164185766227096,-10.940374620261721,4.934396711978353,-3.7761080839802403,1.5170022145954423,-1.8602327756032664,-0.36357478431428003,-3.4897287706850104,-0.6071387599321612
372,18.6,-7.81,-14.7,9.99,-2.59,-0.105,-1.32,-3.46,-7.18,5.45,0.0,0.0,0.0,1.0,90.0,18600000000.0,-6.9234465512631065,-13.72246194385355,7.788396394379387,-2.7420869511501285,0.2531446639254462,-1.4246952182361168,-2.3715381364597574,-5.502820176473236,4.1782454759617895
373,18.7,-6.81,-11.1,9.84,-0.703,0.38,-0.636,-2.9,-2.95,6.03,0.0,0.0,0.0,1.0,90.0,18700000000.0,-6.848013374107585,-11.781865021943677,8.946572067161753,-0.964459038735261,0.35198982405865265,-0.78884628888023,-2.7142340388317496,-4.110223215030262,5.6412065442712525
374,18.7,-4.43,-8.61,5.24,0.8759999999999999,0.0843,0.19699999999999998,-0.5539999999999999,-0.44299999999999995,1.44,0.0,0.0,0.0,1.0,90.0,18700000000.0,-5.240222303042965,-9.434714446759124,6.8541300712300615,0.6400097401546105,0.14340699510626975,0.005946519567039066,-1.3133700145997818,-2.109704704464125,2.322083650648474
375,18.8,-4.27,-8.74,6.26,1.42,-0.151,0.623,-0.235,-0.8809999999999999,2.02,0.0,0.0,0.0,1.0,90.0,18800000000.0,-4.595099868069038,-8.920632112629894,6.518730641818505,1.3199868183286645,-0.08599373714949793,0.5034172675065515,-0.6140708896215231,-1.4394301155026477,2.0834253445037567
376,18.8,-6.49,-11.0,9.14,1.72,-0.445,0.8270000000000001,-2.22,-3.63,4.27,0.0,0.0,0.0,1.0,90.0,18800000000.0,-5.855061025033829,-10.459344816613491,7.9984953322159855,1.6687089023425423,-0.3657299568881541,0.7642908437083551,-1.6554804483507257,-2.6344148658759847,3.810907665769136
377,18.9,-7.65,-12.7,9.77,2.5,-0.9390000000000001,1.31,-2.03,-4.39,3.42,0.0,0.0,0.0,1.0,90.0,18900000000.0,-7.0485559975649466,-12.117408463445074,8.998549135202872,2.3934088786089323,-0.8124196597522706,1.2042434749671997,-1.8983480828898023,-3.5921095776311276,3.502074873684972
378,18.9,-2.27,-6.92,6.18,3.24,-2.14,0.9279999999999999,2.09,-1.43,-0.665,0.0,0.0,0.0,1.0,90.0,18900000000.0,-3.871187653381368,-8.271375079128937,7.407415746658935,3.1314470630904054,-1.8468649632296998,0.9815349739824006,0.6880074584832092,-2.4126503328514373,0.20991731691181226
379,19.0,-0.998,-4.3,3.36,3.42,-1.9,0.695,2.74,-0.284,-4.77,0.0,0.0,0.0,1.0,90.0,19000000000.0,-1.9607411956750003,-5.332594967071862,5.122560029194552,3.383000775634033,-1.8882675499993102,0.7505294453727634,2.018679282804157,-1.251443579925885,-3.724418584584532
380,19.0,-0.132,3.12,0.469,1.83,0.00367,0.584,3.3,5.88,-8.3,0.0,0.0,0.0,1.0,90.0,19000000000.0,-0.7447704365412879,0.9222458239048477,2.495522531066037,2.0291313581527,-0.4140774772077904,0.616272802823342,2.849587422292505,2.638852766251076,-7.3393129506250645
381,19.1,-0.5820000000000001,-0.20600000000000002,3.97,0.0724,0.58,0.077,3.02,2.01,-4.88,0.0,0.0,0.0,1.0,90.0,19100000000.0,-0.6365407587701547,0.087354512285448,3.3278976721663347,0.3232991049887899,0.36050365200465395,0.18150913632806354,2.9600962007811464,2.2958053047864295,-5.396356430320978
382,19.1,-1.61,-3.83,4.56,-1.61,0.8859999999999999,-0.142,2.35,-1.31,-4.05,0.0,0.0,0.0,1.0,90.0,19100000000.0,-1.2838155028810656,-2.8114509724381707,4.023446639892054,-1.362105478094389,0.7699682595771278,-0.07930509244596085,2.5644622346682246,0.3287911095103473,-4.3326805954016745
383,19.2,-0.251,0.517,3.33,-2.86,1.01,-0.434,4.07,3.96,-4.77,0.0,0.0,0.0,1.0,90.0,19200000000.0,-0.5970734591093934,-0.3484285043760176,3.6319806397718595,-2.6679345089951876,0.957000011669788,-0.3652613862655923,3.540770317353272,2.3096633469843475,-4.6781805818447335
384,19.2,-0.778,-1.44,0.0144,-3.22,1.69,-1.58,3.85,3.4,-7.15,0.0,0.0,0.0,1.0,90.0,19200000000.0,-0.7173755446256639,-1.1561811997363125,1.5897764008513184,-3.1492122107412146,1.5281506770306907,-1.34458804435963,3.741298871332521,2.9044563861115815,-6.631017882635447
385,19.3,-3.03,-9.8,2.47,-3.29,1.59,-1.87,1.62,-3.48,-3.43,0.0,0.0,0.0,1.0,90.0,19300000000.0,-2.255091042780502,-7.552526056829331,2.0866820963101804,-3.2719476522452102,1.5763434448820408,-1.7681770496925613,2.365683432937475,-0.5783485675385318,-4.102084456410493
386,19.3,-11.9,-26.8,12.8,-2.38,-0.402,-1.44,-7.63,-19.3,8.2,0.0,0.0,0.0,1.0,90.0,19300000000.0,-8.668205608023197,-21.795475407876012,8.134586981499412,-2.4943688217980338,0.034826241118223855,-1.5035995823157873,-4.11629646240664,-10.791255282566551,5.617059235130437
387,19.4,-5.14,-11.1,10.3,-0.8240000000000001,0.759,-0.992,-1.34,-2.9,6.59,0.0,0.0,0.0,1.0,90.0,19400000000.0,-6.322223014977338,-13.880924356938563,9.357010605176168,-1.0381806727450633,0.5990995022718768,-1.091146152628496,-2.3159295789236927,-6.486471772074781,6.385721876023942
388,19.4,-7.99,-9.34,7.22,1.21,0.109,0.0526,-4.33,-1.07,3.45,0.0,0.0,0.0,1.0,90.0,19400000000.0,-7.431164932091207,-10.520683101170171,8.150620760896915,0.9217302566720673,0.21721595395198595,-0.16905390563987122,-3.6220096904846564,-3.531715197797439,4.066383000444804
389,19.5,-3.27,-6.93,4.82,1.83,-0.5579999999999999,0.519,0.502,0.991,0.444,0.0,0.0,0.0,1.0,90.0,19500000000.0,-4.664313660552098,-7.8636112085792345,6.270411813975773,1.7135384384134889,-0.3868291980968645,0.3856576137798986,-0.9476805554820729,-1.0645145649573662,1.2045540557565197
390,19.5,-4.88,-9.81,9.38,2.15,-0.318,0.897,-0.991,-2.49,4.15,0.0,0.0,0.0,1.0,90.0,19500000000.0,-4.807728388446749,-9.303920941220062,8.025843147905597,2.0940354187456998,-0.3331977571057852,0.7979036898998837,-0.9757722558121,-1.8421356265884192,3.5315754511904753
391,19.6,-8.0,-11.9,6.83,2.5,-0.406,1.23,-3.86,-5.48,0.6629999999999999,0.0,0.0,0.0,1.0,90.0,19600000000.0,-6.930340895084372,-11.224994776004717,7.350763213396732,2.4479457676343577,-0.3899249606697157,1.1462612989277958,-2.846130144076407,-3.826638507141346,1.2652849171196148
392,19.6,-5.6,-8.68,6.04,3.22,-2.51,1.02,-1.51,-3.47,-1.19,0.0,0.0,0.0,1.0,90.0,19600000000.0,-6.045767535409718,-9.341722774153567,6.6108083831128095,3.1210044665453025,-2.0418788332945574,1.044468971888683,-1.9796792653313533,-3.6320875256855634,-0.6744894295635806
393,19.7,1.29,-2.42,3.73,3.02,-1.64,0.973,4.79,1.33,-4.63,0.0,0.0,0.0,1.0,90.0,19700000000.0,-1.1680523124561928,-4.219712997365793,4.984528380539708,3.0329511377691327,-1.7287364636667533,0.9868504225648612,2.4103081167768634,-0.9252034830075511,-3.7995027110131665
394,19.7,0.7879999999999999,-0.29,2.56,1.79,-0.228,0.299,3.91,2.32,-6.37,0.0,0.0,0.0,1.0,90.0,19700000000.0,0.13257043553144188,-1.3117622871411436,3.615828482546306,1.9493756126311819,-0.5593686922874066,0.4323029428953067,3.382825218437758,0.8450976697326968,-5.830299351531842
395,19.8,3.16,1.24,2.34,0.0589,0.0764,0.131,6.35,3.31,-6.71,0.0,0.0,0.0,1.0,90.0,19800000000.0,2.145575850056318,0.5765178422642419,2.8955950531509127,0.30130355167171263,-0.06398030583932413,0.18939142838196735,5.3069724336557815,2.1897342843486163,-6.525298442264384
396,19.8,-0.845,-0.836,4.14,-1.96,0.8859999999999999,-0.344,2.53,1.59,-4.74,0.0,0.0,0.0,1.0,90.0,19800000000.0,0.15707532925703327,-0.46873211113929036,3.5980890781940458,-1.6700475941431259,0.676240481666917,-0.24063066204445557,3.5061671575570266,1.8625713612130386,-5.114840348947606
397,19.9,-1.34,-0.163,3.88,-2.59,0.9059999999999999,-0.674,2.38,3.33,-4.5,0.0,0.0,0.0,1.0,90.0,19900000000.0,-0.8383634287135912,-0.24249322266211484,3.757234089877541,-2.472040333350714,0.8552681814803572,-0.5900145953045343,2.775872716193655,2.6630729454086306,-4.629091627858776
398,19.9,-2.63,-1.89,1.26,-3.48,1.53,-1.17,1.31,2.92,-6.32,0.0,0.0,0.0,1.0,90.0,19900000000.0,-2.0296625721549657,-1.4616327513501464,2.3474902387014476,-3.3507558186713187,1.3810164581498352,-1.057600872390766,1.825286615566783,2.8032300750661783,-5.964977706311771
399,20.0,-5.67,-15.3,5.55,-4.16,0.6,-1.6,-1.73,-8.89,-0.722,0.0,0.0,0.0,1.0,90.0,20000000000.0,-4.450204072039331,-11.70189466493824,4.155377899000602,-4.056235680147985,0.7724516172326946,-1.4948850120168564,-0.48023820208993895,-3.5755809372954364,-1.822813454229685
400,20.0,-5.44,-16.8,10.5,-2.77,-0.406,-0.963,-2.03,-9.0,5.55,0.0,0.0,0.0,1.0,90.0,20000000000.0,-5.108341471614462,-15.474444158949549,7.73705732465705,-2.9349257282845524,-0.14579309870038681,-1.0660774088963907,-1.4852244627653395,-6.534672891767624,4.002007257354724
401,20.1,-10.2,-10.2,9.67,-0.6829999999999999,0.272,-0.29100000000000004,-6.99,-1.94,5.55,0.0,0.0,0.0,1.0,90.0,20100000000.0,-8.49389852381167,-11.57140488600084,8.828246236195074,-0.9717500055418911,0.1797496024182385,-0.4412072312183952,-5.054949605423355,-4.028218419689729,5.224984228418841
402,20.1,-3.7,-7.91,5.9,0.948,-0.621,0.775,-0.446,0.363,1.76,0.0,0.0,0.0,1.0,90.0,20100000000.0,-5.306328636539722,-8.86199955107885,7.175186559999672,0.7018427917290351,-0.444191236814847,0.5393033777342335,-2.066147641451472,-1.6327510042755127,2.4875066619891455
403,20.2,-1.2,-8.83,6.93,1.42,-0.677,1.08,2.26,-0.975,2.18,0.0,0.0,0.0,1.0,90.0,20200000000.0,-2.5759392838529065,-8.838320127413452,7.036773230055876,1.3279152736253979,-0.6255948709675916,0.9752149668284835,0.739263498411646,-1.2739391920338177,2.244564025553576
404,20.2,-2.99,-13.8,8.22,2.35,-0.45799999999999996,0.9990000000000001,0.6829999999999999,-6.61,2.65,0.0,0.0,0.0,1.0,90.0,20200000000.0,-2.8512574841160485,-12.509916766424123,7.70473104799098,2.218944553164674,-0.4950056299516649,0.9943905561862819,0.7027778812492677,-4.184830629067408,2.5648749041946006
405,20.3,-5.82,-14.0,9.4,2.68,-0.462,1.07,-1.96,-7.7,2.93,0.0,0.0,0.0,1.0,90.0,20300000000.0,-4.825240629775328,-13.61256436208167,8.661747630445301,2.6208818777667884,-0.46928778649314956,1.0553472030278213,-1.023974757275341,-6.10240165731785,2.8533385371616173
406,20.3,-3.5,-5.32,5.11,3.36,-1.53,1.12,0.374,-0.318,-2.39,0.0,0.0,0.0,1.0,90.0,20300000000.0,-3.944058613531812,-7.476144757882964,6.656707656058119,3.265227536135826,-1.2957904229356765,1.107470523479,-0.11741901135170352,-2.9469344559638877,-1.2891108710117196
407,20.4,1.0,2.57,3.74,2.97,-1.29,0.654,4.43,6.08,-4.75,0.0,0.0,0.0,1.0,90.0,20400000000.0,-0.6566439058823246,-0.0420920555286175,5.01016171496024,3.007855156833448,-1.2912785191231508,0.7418809497200016,2.8314816170913226,1.977376993364218,-4.0233531358757455
408,20.4,1.56,-1.66,2.01,1.37,0.624,0.14300000000000002,4.9,0.693,-6.91,0.0,0.0,0.0,1.0,90.0,20400000000.0,0.817251967796701,-1.2393287118196954,3.3165041020694463,1.5800116575175893,0.2010987522590919,0.25906098730493493,4.172870140025318,1.2767324582332793,-6.303920686076573
409,20.5,0.8909999999999999,0.9840000000000001,4.53,-0.732,0.685,-0.305,4.52,3.11,-4.33,0.0,0.0,0.0,1.0,90.0,20500000000.0,0.8662886591722387,0.4059136700644659,4.001549479558198,-0.43554558015071776,0.5781526455781398,-0.1956870077796819,4.397976170956609,2.276803960841533,-4.7444435185592635
410,20.5,-0.359,-0.36200000000000004,4.93,-2.33,1.19,-0.657,3.56,2.46,-3.61,0.0,0.0,0.0,1.0,90.0,20500000000.0,0.05156693649025268,-0.1623352238703768,4.525680225098832,-2.0870862037434836,1.0549016695107711,-0.5675991994845675,3.8545671046257075,2.376739830872767,-3.848187213669779
411,20.6,-1.19,-0.828,3.17,-2.7,1.14,-1.17,3.07,3.2,-4.7,0.0,0.0,0.0,1.0,90.0,20600000000.0,-0.7739786151918461,-0.6549209119474825,3.7603688134104223,-2.621410039772168,1.1212099326611986,-1.0532568490080332,3.345792631389725,2.8258391087570405,-4.5211535855515645
412,20.6,-1.12,-5.24,3.7,-3.22,0.9109999999999999,-1.87,3.16,0.184,-3.25,0.0,0.0,0.0,1.0,90.0,20600000000.0,-1.0040559452101068,-4.047836197513211,3.7262893106892814,-3.143246676693538,0.9574152153102153,-1.7117181080396333,3.2253102712479476,1.3846811229326608,-3.516890886224768
413,20.7,-5.77,-20.5,7.01,-3.53,0.37200000000000005,-1.61,-1.84,-13.6,1.26,0.0,0.0,0.0,1.0,90.0,20700000000.0,-4.1730383023299025,-16.222282866939764,5.580016711355288,-3.4804090789821287,0.5012620585293903,-1.6297126163567879,-0.05943152781390504,-6.789659754392047,0.2570459383570509
414,20.7,-8.1,-11.6,13.1,-1.92,0.22,-0.9540000000000001,-4.69,-3.66,8.47,0.0,0.0,0.0,1.0,90.0,20700000000.0,-6.784162867077743,-12.801837247387066,9.825213724472697,-2.120081202511921,0.28210380127441437,-1.0849506805099498,-3.0622528925917716,-5.082389235941618,6.745611739774931
415,20.8,-7.87,-10.5,9.83,0.0376,0.0525,-0.0164,-4.65,-2.18,5.77,0.0,0.0,0.0,1.0,90.0,20800000000.0,-7.506160089136538,-11.098499306770549,9.827915639740198,-0.2390656109049556,0.10319744840380224,-0.22348129271977923,-4.091871867472178,-3.4990977645414145,5.974839026255074
416,20.8,-2.12,-8.82,4.98,1.64,-0.263,0.8420000000000001,1.21,-0.7190000000000001,0.5820000000000001,0.0,0.0,0.0,1.0,90.0,20800000000.0,-3.924782185862019,-9.412430997156662,7.09116010734602,1.3990594659739768,-0.18214212846957828,0.6355135498503022,-0.6537250977170874,-1.9825178531772072,1.714278286891287
417,20.9,-5.08,-8.67,9.12,1.86,-0.10800000000000001,0.738,-1.49,-1.11,4.0,0.0,0.0,0.0,1.0,90.0,20900000000.0,-4.692912193773305,-8.86303908978882,8.236485010216828,1.8008965665722063,-0.12437088457445918,0.7181384736227063,-1.196030897985984,-1.506547894496954,3.520090805227066
418,20.9,-1.89,-11.1,4.34,2.05,-0.456,0.888,1.97,-4.23,-1.53,0.0,0.0,0.0,1.0,90.0,20900000000.0,-2.8291934280070974,-10.518369432599064,6.03683317520003,2.0180590241581506,-0.3827749477314028,0.855081454125298,0.8570701947968884,-2.992226854228079,-0.469684980182818
419,21.0,-11.6,-11.7,10.4,3.01,-1.41,1.49,-7.73,-5.78,3.62,0.0,0.0,0.0,1.0,90.0,21000000000.0,-8.661098352809404,-11.39276481161426,8.499937081471915,2.88280976762778,-1.1831845201122948,1.3669550687741379,-4.711455081377401,-4.512993891588297,2.7613313260676926
420,21.0,-2.75,-6.93,8.13,3.11,-1.83,1.6,1.22,-2.51,0.33299999999999996,0.0,0.0,0.0,1.0,90.0,21000000000.0,-4.730677380411833,-8.090360645247939,8.291099486023013,3.080868763385117,-1.6871805545698177,1.554836746683027,-0.8650375161514856,-3.420334370050372,0.8428514540948913
421,21.1,4.72,3.58,4.14,2.64,-1.42,0.977,8.22,6.49,-4.54,0.0,0.0,0.0,1.0,90.0,21100000000.0,1.5532883967850015,0.5455965495274455,5.947711989578504,2.69652986304315,-1.478994515630991,1.0889826892500778,5.026408724607245,1.9858832698974886,-3.4098186830933734
422,21.1,1.3,1.45,-0.33,0.631,0.0171,0.415,4.37,3.31,-9.46,0.0,0.0,0.0,1.0,90.0,21100000000.0,1.3848712677191906,1.2148466425931397,2.4038047934832476,0.8958496203111828,-0.3132437306714355,0.5456154231839228,4.6007420978409055,2.708206333107541,-8.189706438675927
423,21.2,1.85,0.546,0.7609999999999999,-1.9,0.9470000000000001,-0.0354,5.12,2.56,-8.26,0.0,0.0,0.0,1.0,90.0,21200000000.0,1.6941457390297296,0.7199064127491759,1.4764051602517974,-1.541506128974868,0.6687330985394256,0.07719870733032363,4.9374692985907584,2.6273577975959266,-8.245241373478843
424,21.2,-1.64,-2.15,7.29,-2.7,1.54,-0.603,2.08,0.94,-1.24,0.0,0.0,0.0,1.0,90.0,21200000000.0,-0.5228020258909849,-1.4037974446136243,4.7583079368913195,-2.551453808865708,1.347620708041041,-0.4711799161429221,3.08446355348371,1.7068819212819835,-2.7108176173316796
425,21.3,0.503,-3.44,2.24,-3.48,1.95,-0.809,4.75,0.9229999999999999,-5.45,0.0,0.0,0.0,1.0,90.0,21300000000.0,0.15927660618542483,-2.9105682507480677,3.3366674440000827,-3.3609384988811257,1.8169922486363839,-0.7435316906526628,4.164527133939194,1.2792640096467736,-4.874882238071717
426,21.3,-3.12,-8.32,4.76,-3.54,1.12,-1.79,1.35,-2.38,-1.63,0.0,0.0,0.0,1.0,90.0,21300000000.0,-2.0211873834413314,-6.9134967055370815,4.1401702642342855,-3.517040059852531,1.2738987164422109,-1.587198160988422,2.33936849860637,-0.7169127059991258,-2.311294142005266
427,21.4,-7.93,-18.5,9.47,-3.07,0.5660000000000001,-1.61,-3.74,-11.2,4.43,0.0,0.0,0.0,1.0,90.0,21400000000.0,-5.950088404746486,-15.487400304907542,7.148977118191528,-3.1273210191252443,0.7223068931219004,-1.6055810968444146,-1.602967636725472,-6.435574621076003,3.0146005072046003
428,21.4,-6.29,-13.9,11.5,-1.35,0.172,-0.985,-2.61,-5.78,7.51,0.0,0.0,0.0,1.0,90.0,21400000000.0,-6.176103171050771,-14.31273870833445,9.605225715547556,-1.577894486435042,0.2935099964083378,-1.1052664042044595,-2.256005802827841,-6.07795015594614,6.566147944397726
429,21.5,-5.48,-12.0,8.31,0.8740000000000001,0.24,0.253,-1.93,-3.7,4.59,0.0,0.0,0.0,1.0,90.0,21500000000.0,-5.713248678673186,-12.601333789020414,8.874042404677931,0.5596093199506942,0.2518152198507013,-0.010227168801764996,-2.044598209773018,-4.7807470910363215,5.004911333630105
