,Time (s),Acceleration x (m/s^2),Acceleration y (m/s^2),Acceleration z (m/s^2),Gyroscope x (rad/s),Gyroscope y (rad/s),Gyroscope z (rad/s),Linear Acceleration x (m/s^2),Linear Acceleration y (m/s^2),Linear Acceleration z (m/s^2),Timestamps,Acceleration x (m/s^2)_kalman,Acceleration y (m/s^2)_kalman,Acceleration z (m/s^2)_kalman,Gyroscope x (rad/s)_kalman,Gyroscope y (rad/s)_kalman,Gyroscope z (rad/s)_kalman,Linear Acceleration x (m/s^2)_kalman,Linear Acceleration y (m/s^2)_kalman,Linear Acceleration z (m/s^2)_kalman
0,0.0579,2.2,5.04,7.98,-0.43799999999999994,0.26899999999999996,-0.21100000000000002,-0.0434,-0.767,0.40399999999999997,57900000.0,1.4269924751001866,3.5615257459131966,6.14444834068361,-0.40610045446808857,0.3444777212682307,-0.1911874853005136,-0.09809036816702135,-0.532531949056195,0.3794380101974558
1,0.10800000000000001,1.99,4.97,8.78,-0.39399999999999996,0.843,-0.214,0.026,-0.6659999999999999,0.993,108000000.0,1.5322799436417798,3.938109350869159,6.782719526287864,-0.3974571677397649,0.646692452130915,-0.2064392670935518,-0.06792302501456637,-0.567157828036598,0.559812493467214
2,0.158,1.29,4.76,8.48,-0.27,0.0519,-0.0647,-0.435,-0.726,0.5429999999999999,158000000.0,1.464090108314547,4.249745653469322,7.3741316823509155,-0.30178724572697224,0.25187582137711556,-0.105564571705107,-0.1964779823834018,-0.6259408698870843,0.552983940040721
3,0.20800000000000002,0.977,4.52,7.84,-0.511,0.11699999999999999,0.066,-0.76,-0.7959999999999999,-0.217,208000000.0,1.3047564656731712,4.36310767335372,7.556118212730298,-0.45929152940588924,0.16148572865794747,0.01714393995878527,-0.4176559777556227,-0.6958546474211179,0.21168997034337678
4,0.258,0.867,4.21,8.44,-0.251,0.48700000000000004,-0.0561,-0.711,-0.924,0.233,258000000.0,1.152779686481696,4.296852814691839,7.914897545899753,-0.30245229412486235,0.37986207921928006,-0.0352634931455645,-0.537253938147605,-0.7928190803490924,0.22137563637036908
5,0.308,0.364,4.32,8.18,-0.322,0.261,0.0984,-1.1,-0.726,-0.096,308000000.0,0.8722816039487681,4.30696756187355,8.023922596400366,-0.31717147412490143,0.30011267135368824,0.060378380488541994,-0.7696651235802667,-0.7641156311810128,0.07606729478363064
6,0.358,0.17,4.95,7.61,-0.7759999999999999,0.82,-0.0042,-1.08,0.168,-0.857,358000000.0,0.6200957303263483,4.58881651207079,7.85293049242002,-0.6626639669635104,0.648930486880967,0.0141696999697268,-0.8983956768923397,-0.36232807782991255,-0.35204337972534117
7,0.408,0.287,4.71,8.43,-0.33899999999999997,-0.446,-0.23199999999999998,-0.71,0.12,-0.177,408000000.0,0.5000069390106712,4.641983947848891,8.091685583709515,-0.41894879206397884,-0.08571286582157245,-0.16197561471344718,-0.8201298430278273,-0.1541902451964389,-0.2716797573322537
8,0.45799999999999996,0.785,4.36,8.77,-0.83,-0.29,-0.6779999999999999,-0.303,0.0121,0.0453,458000000.0,0.6029199061674251,4.518230297131172,8.372477519881365,-0.7284655109829125,-0.22277928310161108,-0.5312138965365156,-0.6051871282985565,-0.0824057251573686,-0.12612563658719514
9,0.508,0.536,4.22,9.03,-0.34700000000000003,0.445,-1.19,-0.361,0.10800000000000001,0.171,508000000.0,0.5787387382738951,4.387333998873804,8.644711500992107,-0.441226463907915,0.2252671315800394,-1.0026045709333808,-0.5036741354903098,-0.00020147771589043573,0.010318933345840525
10,0.5579999999999999,0.23199999999999998,4.43,10.1,0.535,-0.517,-0.853,-0.342,0.322,1.21,558000000.0,0.45341276175064976,4.406061013193349,9.24728233180752,0.29386061680522224,-0.27275691368685406,-0.8955558641300486,-0.4364592837964322,0.13890840634458154,0.561239155774889
11,0.608,-0.747,5.04,8.61,0.667,-0.701,-0.0983,-1.5,0.614,-0.107,608000000.0,0.019485546594178393,4.6843140374157235,8.983406101554193,0.5748301863767432,-0.5600865382945649,-0.32508398607943134,-0.8786276437217513,0.3440307961308692,0.25436748678802545
12,0.6579999999999999,-0.42100000000000004,4.93,8.37,0.185,-0.583,-0.083,-1.42,0.309,-0.21600000000000003,658000000.0,-0.13974902046041698,4.792152525755137,8.72941440875391,0.2812926366163326,-0.5754603252280129,-0.1518621703034338,-1.1037054093595553,0.3289060679030423,0.03836300931511827
13,0.708,0.242,4.76,9.3,0.46799999999999997,-0.723,0.203,-0.995,0.0275,0.8009999999999999,708000000.0,-0.0017450694497100905,4.778039954047236,8.965676137600205,0.42188108430628646,-0.6744520434836835,0.10205742459298373,-1.0585105833675739,0.1987723225379341,0.3885850619652566
14,0.758,-0.235,4.83,8.77,0.513,-0.315,-0.29100000000000004,-1.68,-0.127,0.431,758000000.0,-0.08606837924278068,4.800846692149102,8.884652887842071,0.4904925661953838,-0.4332777415815428,-0.17919257666976496,-1.316898162829987,0.058118252504989254,0.4080630659841995
15,0.8079999999999999,-0.0599,5.04,8.88,0.247,-0.0312,-0.17,-1.47,-0.0994,0.645,808000000.0,-0.07660829637397719,4.9058180100866045,8.882726317644922,0.30714551923648326,-0.16350373429687626,-0.17261488221892093,-1.3805511128266135,-0.009891164636410738,0.5168704619576947
16,0.858,-0.19899999999999998,5.22,8.53,-0.0877,-0.142,-0.16,-1.58,0.039,0.314,858000000.0,-0.12085395314918292,5.043721524995549,8.736673085232628,0.009831479518238595,-0.14907580977760312,-0.16358837274125845,-1.4634731197166115,0.011217880052240344,0.423707242690253
17,0.9079999999999999,-0.127,4.53,9.55,-0.254,-0.215,0.0844,-1.54,-0.585,1.3,908000000.0,-0.12307580467480132,4.8182343064925295,9.073446841672512,-0.18883053180618425,-0.19330763875348225,0.013858289629241266,-1.4952895828684474,-0.2462026473518683,0.8261229197474413
18,0.958,0.366,3.82,10.8,0.185,-0.36,0.188,-1.13,-1.27,2.6,958000000.0,0.053729440686886856,4.380080221317868,9.788359525754213,0.09265946957852611,-0.3051498657437644,0.13846439122469134,-1.343418389600445,-0.6882331013673555,1.6407318975951575
19,1.01,2.32,3.65,9.3,-0.151,-0.133,0.166,0.625,-1.45,1.09,1010000000.0,0.8730064175454266,4.059626830256515,9.58614493179327,-0.09081324388331341,-0.18964593732180737,0.1581673342864344,-0.5250374093686542,-1.0171304119691769,1.3878219580053766
20,1.06,3.46,3.73,7.99,0.0125,0.0776,-0.231,1.75,-1.3,-0.254,1060000000.0,1.8082276948821272,3.9149440403761995,8.92523026736467,-0.013019584574053167,-0.010337310030064883,-0.12029913337070161,0.42082214841607457,-1.139260981645412,0.633855969698601
21,1.11,3.01,3.62,7.9,-0.0797,0.0519,-0.243,1.33,-1.39,-0.358,1110000000.0,2.242679109063902,3.785484476609113,8.50071395637334,-0.06322915462872915,0.03142080436048393,-0.20809703816223668,0.7988179554619715,-1.2475190053675367,0.17837072852587066
22,1.16,2.03,3.5,6.88,-0.316,0.387,-0.0714,0.508,-1.44,-1.46,1160000000.0,2.165793701576688,3.660177040602933,7.829626155549019,-0.2535626432013851,0.2699966142427862,-0.11028425446189169,0.6779087666975924,-1.3306238193056241,-0.5740103821168755
23,1.21,1.13,4.14,5.25,-0.35,0.847,0.127,-0.18899999999999997,-0.639,-3.21,1210000000.0,1.791345026263469,3.870785227651432,6.761482230948976,-0.32617883566881156,0.6571369603470614,0.05950314140980725,0.3174865882836439,-1.032011211025432,-1.784523207048327
24,1.26,0.922,4.01,5.43,0.0571,2.41,1.16,0.006690000000000001,-0.685,-3.13,1260000000.0,1.4770690317491637,3.931890738764283,6.210156281633132,-0.037574372949643386,1.833220238988148,0.8469573589255918,0.18827116423718832,-0.882187102877954,-2.402400082370212
25,1.31,0.618,3.0,7.99,-0.727,0.871,0.94,0.32899999999999996,-1.64,-0.643,1310000000.0,1.166507893669034,3.522856802835702,6.947134779851961,-0.5567037709707623,1.1876186934223103,0.9135334876039513,0.24677996514464437,-1.2093772237834723,-1.5944392654744015
26,1.36,-0.0742,3.32,8.55,-0.24,1.84,0.134,0.129,-1.06,-0.22,1360000000.0,0.7179809100505467,3.433817025586936,7.610832093880345,-0.3182295472634646,1.6253338658539107,0.355742755438882,0.19781228145312524,-1.144882713673585,-0.9632621454943187
27,1.41,-0.462,3.44,9.2,-0.165,1.11,0.37799999999999995,0.396,-0.9640000000000001,0.483,1410000000.0,0.2914072677494939,3.4365309379157414,8.268857613104304,-0.20284950288267567,1.279570687364417,0.3716687933445755,0.2802099357271439,-1.0667855439539513,-0.2991021463303398
28,1.46,-0.606,3.69,10.7,-0.5589999999999999,0.271,1.14,0.35600000000000004,-0.47600000000000003,1.91,1460000000.0,-0.03301347685990458,3.5477859028948764,9.275518892747208,-0.47102665550355965,0.6028703186843649,0.9214437895140147,0.3117200824584196,-0.8117104530571546,0.7153731696845884
29,1.51,-1.64,2.79,10.2,-0.6779999999999999,0.389,0.902,-0.976,-1.19,1.27,1510000000.0,-0.613953452402175,3.215171624029058,9.65831803296085,-0.6268751327781268,0.459374056125174,0.9075309041505152,-0.22365676625144487,-0.9750391904408485,0.9700717670496513
30,1.56,-2.84,2.62,12.6,0.299,2.04,0.527,-1.56,-1.13,3.64,1560000000.0,-1.418689129989211,2.953933445975324,10.876378301886954,0.07029796348292283,1.5198947953018591,0.6352441963487292,-0.7792489343764946,-1.0419444194291487,2.1961700892603258
31,1.61,-3.09,2.67,10.5,0.892,0.643,1.11,-1.8,-1.76,1.87,1610000000.0,-2.022882905576612,2.829306835889801,10.720531612373803,0.6890299603252245,0.931542354636437,0.9749530102001751,-1.2036318931359662,-1.3519690896754415,2.0463845734167583
32,1.66,-3.43,2.28,9.2,0.136,1.53,0.7090000000000001,-1.89,-2.37,0.705,1660000000.0,-2.531568326837271,2.5882000843439417,10.09092611538869,0.2726049014294921,1.3330774122267426,0.7846518466673735,-1.4889932758815396,-1.7915098084249168,1.4303869932382953
33,1.71,-1.76,0.067,5.95,-1.22,3.02,-0.39299999999999996,0.7659999999999999,-4.48,-2.36,1710000000.0,-2.2526394820702755,1.4815720750904917,8.376295773809886,-0.8513090793630645,2.4649178831492407,-0.05801021053756117,-0.5514671896492499,-2.952281097778395,-0.31025410878106063
34,1.76,0.0814,-2.92,3.24,-3.78,1.98,-1.64,3.77,-6.45,-5.13,1760000000.0,-1.4088633632743852,-0.45040589878928117,6.249513525180644,-3.0565789218531614,2.139562307370045,-1.1899939582189454,1.2452070157141701,-4.462441500240417,-2.523602836998178
35,1.81,-2.5,-4.32,7.87,-2.98,3.2,-3.21,2.58,-5.64,-0.40700000000000003,1810000000.0,-1.803319002803558,-2.1488833168383685,6.9205071329419345,-2.998915907524554,2.8510628668211693,-2.635397770938729,1.8001546510033974,-4.97085917558157,-1.5516055200649168
36,1.86,-5.56,-3.84,8.66,-1.19,2.15,-3.17,0.7759999999999999,-3.41,1.18,1860000000.0,-3.1613927149393417,-2.8911635532939384,7.640777615122509,-1.6368235190316904,2.3806848944640686,-3.0179293970201453,1.3743566222304489,-4.29694918292731,-0.29718350682356953
37,1.91,-8.83,-2.93,6.47,-1.57,0.8590000000000001,-2.64,-2.15,-1.03,-0.45,1910000000.0,-5.210644849377661,-2.9082100280563052,7.155994493310973,-1.5865062335783713,1.3597106371155179,-2.7475042506847562,-0.09091444314334107,-2.8864248546226388,-0.36736068297357544
38,1.96,-10.6,-2.97,7.21,-1.57,-0.0428,-1.87,-4.11,0.276,0.6579999999999999,1960000000.0,-7.158945008596045,-2.9353314555759367,7.17835652995296,-1.5740772730651356,0.4186963122863968,-2.1196110996054625,-1.761871852747554,-1.521029528495519,0.10351075798447967
39,2.01,-10.9,-3.31,6.59,-0.677,0.247,-1.57,-4.68,0.83,0.247,2010000000.0,-8.511369662857103,-3.099784346472328,6.934736233016085,-0.8985886127374956,0.3034966905367759,-1.7263400540565768,-2.975099919685598,-0.5059588591219311,0.16940462822131414
40,2.06,-9.14,-4.42,6.48,-0.166,0.498,-1.73,-3.14,0.391,0.391,2060000000.0,-8.73862526838316,-3.6792654098425417,6.746443939891323,-0.3469579872750861,0.43399865718071134,-1.7289589211196157,-3.0436580962371034,-0.11869165230064876,0.2711668039737153
41,2.11,-9.82,-5.72,4.58,-0.265,1.12,-1.57,-4.03,-0.402,-1.28,2110000000.0,-9.129551781704496,-4.575003054886841,5.849386042968616,-0.28524457473037823,0.8942711692175533,-1.615216810578119,-3.45373536008474,-0.2410116839542968,-0.44116803804320937
42,2.16,-10.3,-7.3,5.37,-0.44299999999999995,0.7390000000000001,-1.02,-4.6,-1.45,-0.0434,2160000000.0,-9.552679335285205,-5.771083515294141,5.6508869656941085,-0.40403254858992593,0.7900920141201915,-1.1893128078515205,-3.930301271248967,-0.7629994435604603,-0.258502939432978
43,2.21,-10.8,-7.55,4.61,-1.0,-0.00733,0.257,-5.1,-1.43,-0.545,2210000000.0,-10.003596964823302,-6.551901758438903,5.219887712709113,-0.8527890395116501,0.255061820880366,-0.15441193968448252,-4.416610036234717,-1.0509807915848441,-0.3900696113776311
44,2.26,-8.98,-7.18,5.69,-1.07,0.5529999999999999,0.976,-3.09,-0.956,0.917,2260000000.0,-9.633557354423433,-6.82759226054756,5.4145467890268675,-1.016346380984034,0.45496338423254445,0.6544478749722361,-3.8650644400728993,-1.0099722694812479,0.2101696645381519
45,2.31,-5.84,-6.12,8.02,0.41100000000000003,1.65,0.321,0.514,0.0296,3.77,2310000000.0,-8.262152544269595,-6.517009396982996,6.493385093245809,0.0584286889233081,1.256773025096631,0.415851159601807,-2.0444438475798226,-0.5611308941797017,1.844933383247476
46,2.36,-5.4,-5.35,5.19,0.376,0.748,0.273,1.3,0.574,1.18,2360000000.0,-7.227458871028347,-6.004775005046359,5.953693400055322,0.29755614640683054,0.9154118495105528,0.3136348296438487,-0.6539725864594066,-0.07103152632257531,1.5395792063828848
47,2.41,-5.02,-4.88,3.28,0.15,0.0648,0.207,1.83,0.903,-0.685,2410000000.0,-6.429442766608539,-5.511078607603629,4.846599108111398,0.18644810578482385,0.34469394444281165,0.23733288798452978,0.37875296110775514,0.3495122505828451,0.5179964182523848
48,2.46,-4.15,-5.1,2.33,-0.22,-0.315,0.289,2.77,0.6,-1.64,2460000000.0,-5.605403882392583,-5.330644214537653,3.8045527155463215,-0.11960254300021589,-0.09792761738729872,0.274302998118878,1.372927316616768,0.45766180395726613,-0.47300986933307065
49,2.51,-4.98,-5.51,2.21,-0.8959999999999999,-1.07,0.462,1.89,0.172,-1.86,2510000000.0,-5.379314800084925,-5.409368783232235,3.1442974490201974,-0.7042207296989643,-0.7501394871487749,0.40860852460743735,1.587903177860507,0.33432566071791137,-1.1099506686653497
50,2.56,-7.39,-5.4,3.74,-1.03,-0.5539999999999999,0.826,-0.539,0.289,-0.373,2560000000.0,-6.10619540977552,-5.405256593774371,3.3909595746676415,-0.9495286722223422,-0.6185397380242341,0.7072705930459069,0.7036312672510101,0.3147560449664013,-0.7715243631495154
51,2.61,-8.92,-5.45,4.22,-0.603,0.0189,1.14,-1.86,0.0765,0.257,2610000000.0,-7.123410927872766,-5.424895691768374,3.7342396532878297,-0.6885966410924105,-0.1908496316982916,1.0169076383131346,-0.3622128115832126,0.21188761082555718,-0.29920007741725857
52,2.66,-9.66,-4.73,4.87,0.0272,0.537,1.76,-2.2,0.392,1.1,2660000000.0,-8.040410477518673,-5.119885779942068,4.204523065994565,-0.14961017753303107,0.29750098126246355,1.5486231265353125,-1.1262831589249895,0.28965217827023154,0.3433478412918182
53,2.71,-8.59,-4.12,3.17,0.0437,-0.249,2.81,-0.5,0.0576,-0.473,2710000000.0,-8.239092053648887,-4.681006793547763,3.776158884632924,-0.004049885591320329,-0.069173777363082,2.4511941027279733,-0.8659024242162885,0.18946229985830684,-0.03153963867510956
54,2.76,-8.8,-4.1,3.78,-0.127,-0.528,1.3,-0.27,-0.535,-0.585,2760000000.0,-8.441865354887613,-4.425985979745243,3.7777493606305734,-0.09662988067122107,-0.3770231679032853,1.6274637037357813,-0.6181526547591557,-0.12332852415368942,-0.2857025630128642
55,2.81,-7.67,-3.7,3.46,0.308,1.06,0.8,0.893,-0.622,-0.195,2810000000.0,-8.162829162856053,-4.10732964926835,3.646179129945518,0.20805166560035193,0.5871472952231911,1.0353767853246298,0.010117536821309114,-0.33863282592696353,-0.2440496588793455
56,2.86,-5.91,-4.72,-0.163,-0.27,1.75,-0.975,2.85,-1.69,-3.36,2860000000.0,-7.34841124445469,-4.376248384849075,2.0689150991060226,-0.15191563167595684,1.3673631613269586,-0.4031368577017356,1.1908145536247672,-0.9220934899255041,-1.6749724677615467
57,2.91,-8.1,-4.93,1.22,-0.0535,0.183,-0.316,0.713,-1.52,-1.41,2910000000.0,-7.620117430211706,-4.619305991320307,1.717405453753699,-0.07780981726547055,0.5727148561698637,-0.3407865872838768,0.9921604737912277,-1.180243095872787,-1.553290423163688
58,2.96,-4.43,-4.79,-0.429,-0.972,0.384,-2.92,4.15,-0.807,-2.99,2960000000.0,-6.466861424990981,-4.69422853717465,0.82864491383944,-0.7511245242265331,0.4460966510058427,-2.186328067518569,2.3050500015403506,-1.019093209773526,-2.213063641935366
59,3.01,-7.82,-6.0,-0.369,0.0987,1.21,-2.15,0.271,-0.7020000000000001,-1.97,3010000000.0,-6.956033167304875,-5.26736959185573,0.3327369611137097,-0.11121663779306645,0.9586375260191685,-2.1603337945421712,1.459382308187189,-0.8821863811619736,-2.1014427102934725
60,3.06,-4.78,-5.05,-0.524,-1.08,-1.05,-2.83,2.63,1.14,-2.2,3060000000.0,-6.169377818198745,-5.171959842630362,-0.02201148425236199,-0.8406991629162892,-0.38905752031842955,-2.639509568298884,1.9460732244472263,-0.00909565274038815,-2.146702721321646
61,3.11,-6.12,-7.55,0.359,-1.47,-1.49,-1.3,0.308,-0.29,-1.12,3110000000.0,-6.151527254536565,-6.21575088263188,0.13575366262460486,-1.3145553232731066,-1.1277347356075065,-1.681031113528566,1.265035096494209,-0.13037773529208413,-1.6752149812474395
62,3.16,-8.24,-10.2,1.03,-0.629,0.451,-1.64,-2.43,-2.43,-0.161,3160000000.0,-6.906528722216624,-7.964553561303971,0.5060335808125169,-0.798340223204937,-0.06848287340978665,-1.6516715243667808,-0.2711964896039267,-1.123253055480387,-0.9798493328324134
63,3.21,-7.68,-9.53,1.2,-0.5379999999999999,0.29,-0.619,-2.28,-1.38,0.391,3210000000.0,-7.186145435241927,-8.651673394612668,0.7933837706422651,-0.6023070836460858,0.172041156762924,-0.9127493260935681,-1.1063677999272197,-1.2341050404019587,-0.35032079966000085
64,3.26,-7.26,-8.06,1.71,0.0589,1.15,-0.56,-2.09,0.244,1.07,3260000000.0,-7.212844602767774,-8.391970925559063,1.172926401363352,-0.1044259169340439,0.828202495300385,-0.6603415623297912,-1.5153183663595902,-0.5959245888108887,0.3019262996665856
65,3.31,-7.68,-7.63,1.88,0.762,-0.0226,-1.13,-2.83,0.868,1.32,3310000000.0,-7.381725389151165,-8.057519785559794,1.4657038497286798,0.5479826401443445,0.2573566748518926,-0.9964029714204516,-2.061904594859551,0.03613335656541594,0.7694514022991502
66,3.36,-6.4,-8.96,2.28,1.67,-1.42,-0.759,-2.06,-0.249,1.07,3360000000.0,-7.026822927289443,-8.45364460412297,1.8028788521346255,1.392848501043658,-0.8680655320839864,-0.8265306335957076,-2.061112725078462,-0.08697462808516179,0.9074709103400728
67,3.41,-3.27,-11.6,0.192,1.02,-2.46,-1.19,0.581,-2.85,-2.02,3410000000.0,-5.668697878576447,-9.834671621460709,1.1358634190100214,1.1120979447217507,-1.9361737751368318,-1.0866091036233803,-0.9626395583687948,-1.2799268657652354,-0.4368974373837694
68,3.46,-3.51,-11.8,1.39,1.55,-0.371,-1.41,-0.521,-2.98,-1.63,3460000000.0,-4.8883093118784355,-10.697311463927006,1.2410935622024155,1.441833013022461,-0.8860206354661613,-1.3180095885133722,-0.7790254473321098,-2.013943340270006,-0.9848001745703551
69,3.51,-3.16,-13.3,1.94,1.06,-1.5,-0.0714,-0.654,-4.58,-1.82,3510000000.0,-4.263510090480564,-11.839707208019579,1.5304892658912987,1.1543171959846976,-1.2979700076452914,-0.42600521895392407,-0.7270454100806663,-3.1218531987888833,-1.3683449890368882
70,3.56,-1.98,-10.7,1.44,0.995,-1.26,-0.325,0.203,-2.22,-2.94,3560000000.0,-3.438000804777124,-11.339456498652284,1.4930204651200714,1.0343532222734058,-1.272494029716219,-0.3537315029181999,-0.3403738187768466,-2.732472845827413,-2.0900885710171684
71,3.61,-0.826,-7.15,1.37,0.75,-1.13,-0.295,1.11,1.08,-3.59,3610000000.0,-2.493739176121961,-9.500582292959642,1.4420814726434148,0.8202385857982407,-1.176887676415133,-0.3117065020818828,0.2626272341468635,-1.0864154961807775,-2.778885627937955
72,3.66,-0.536,-7.24,1.52,0.0748,-1.12,-0.16699999999999998,1.08,0.9109999999999999,-3.69,3660000000.0,-1.7859989834735017,-8.508346907482288,1.4743451326547492,0.2589320860038753,-1.1387189007635137,-0.208162587973986,0.6024545621615103,-0.22401972951922688,-3.1972923159552433
73,3.71,-0.314,-6.2,2.09,-0.485,-1.24,0.131,0.96,2.01,-3.12,3710000000.0,-1.2538582077620553,-7.495146260885568,1.7292688599284995,-0.3012400476064523,-1.2066734470932847,0.03452326267649683,0.7511060736739189,0.7405312815032702,-3.161797685674465
74,3.76,-1.31,-6.55,3.85,-0.688,-0.175,0.5529999999999999,-0.192,1.81,-1.16,3760000000.0,-1.2741539463938882,-7.080294174669998,2.6073984200224434,-0.5924657666280808,-0.5144722843158682,0.405516311550964,0.3590044351315,1.2022805978875462,-2.242521767314647
75,3.81,-2.11,-8.28,5.46,-0.0663,0.0177,0.0777,-0.86,0.17,0.643,3810000000.0,-1.5763197221050849,-7.606879820448863,3.7885730957562593,-0.1962691224295649,-0.15741136180060145,0.1709492197437581,-0.14780349932151188,0.7565874449934457,-0.917417510533381
76,3.86,-3.1,-9.32,6.08,0.278,-0.8390000000000001,0.6409999999999999,-1.73,-0.956,1.15,3860000000.0,-2.127143716651208,-8.35881793484916,4.737382534576823,0.16084995403434288,-0.6147231581078504,0.5072913512945803,-0.8056105733193475,0.017167865013228867,0.03199265744828983
77,3.91,-1.69,-10.4,4.93,-0.547,0.617,-0.0256,-0.147,-2.02,-0.00233,3910000000.0,-1.9691123794720804,-9.254751914329281,4.817139437207132,-0.3721527404153129,0.21170131853161678,0.12598398908145758,-0.5317895347763173,-0.8623912041605686,0.016230828873459047
78,3.96,0.134,-11.6,4.16,-0.256,0.49,-0.735,1.85,-3.08,-0.369,3960000000.0,-1.2088184693963082,-10.284149644493834,4.545038125563655,-0.28469110032103556,0.39842578788716143,-0.4900881968151488,0.4584528282133471,-1.819856670269648,-0.16067686237063306
79,4.01,-0.821,-10.5,-0.524,-1.97,0.602,-0.841,0.517,-1.79,-4.81,4010000000.0,-1.0686186217165112,-10.37889264043924,2.446105202982183,-1.5537089283730559,0.5350138768853738,-0.7411811479345765,0.48279415126859254,-1.8069658627125502,-2.2957630920203416
80,4.06,-0.151,-8.27,-0.6970000000000001,-1.67,0.9059999999999999,-0.544,0.972,0.8759999999999999,-4.06,4060000000.0,-0.7368912918684358,-9.4532385545611,1.1446419082542734,-1.6412747070860054,0.78392697852474,-0.6000893249339863,0.6861842269016005,-0.6485797482782896,-3.1059450778171307
81,4.11,0.414,-8.23,-0.19399999999999998,-2.09,1.39,-1.48,1.27,1.22,-2.7,4110000000.0,-0.3208338091761373,-8.916323391678088,0.5903514252725561,-1.9791595174768846,1.1905715812924906,-1.2297043962942962,0.9289088999208347,0.15819044128303827,-2.9195248981817845
82,4.16,-1.15,-10.4,0.922,-1.08,0.569,-1.43,-0.897,-0.695,-0.664,4160000000.0,-0.6205847841359284,-9.567552019100653,0.7276769054661378,-1.30210299429167,0.7735282161379518,-1.3730247339554102,0.16977703129841615,-0.21017949228304994,-1.8837310586460876
83,4.21,-0.594,-10.5,0.845,-0.852,0.183,-0.484,-0.8059999999999999,-0.72,-0.231,4210000000.0,-0.6109741406815816,-9.976830544801881,0.7762568056720808,-0.9631807248796069,0.3773133877058829,-0.7368881615853666,-0.23590773798000675,-0.430297474839743,-1.1247553431782467
84,4.26,0.304,-10.3,0.376,-0.804,0.505,-0.285,-0.0728,-0.541,-0.297,4260000000.0,-0.28020282037982214,-10.118679097158944,0.6105227561457548,-0.8433195237972034,0.46298469987750696,-0.41354216607684735,-0.16809478266166633,-0.47809393782070286,-0.7446292423422757
85,4.31,1.04,-9.42,-0.359,-1.53,0.726,0.00252,0.586,0.371,-0.618,4310000000.0,0.1970622766263777,-9.812008563836322,0.20907317526731078,-1.3603818353665738,0.6394547875313219,-0.11583125951526602,0.14542436172490375,-0.11149269386857713,-0.6864778923449798
86,4.36,0.261,-9.73,-0.201,-0.405,1.27,-0.006640000000000001,-0.21,0.061,-0.0274,4360000000.0,0.22017633734977055,-9.776012420199148,0.039274471985410425,-0.6409905357576681,1.0625190003602556,-0.037700077301604684,-0.002345306696272309,-0.0370179694792197,-0.38381272844244974
87,4.41,-2.47,-11.4,0.467,-0.0681,0.8809999999999999,0.0654,-2.8,-1.56,0.79,4410000000.0,-0.7523464459246205,-10.48882761193731,0.21638247320694673,-0.2096106897172847,0.9407288396082296,0.036072591937341636,-1.1654859112402898,-0.6945742967471726,0.15523164321231342
88,4.46,-2.4,-12.1,1.91,0.7909999999999999,1.0,0.303,-2.68,-2.3,2.14,4460000000.0,-1.34798795601443,-11.19601817835173,0.9176574359955305,0.543837413338654,0.9804968167132202,0.22707097637134652,-1.7951536628322708,-1.3877261634696305,1.0666872977908777
89,4.51,-2.83,-12.1,3.07,2.1,0.373,0.8059999999999999,-2.84,-2.29,2.67,4510000000.0,-1.8837485187428464,-11.592802246665585,1.808876327235453,1.7156094912344848,0.5728969064043177,0.6413203284357448,-2.229554349971545,-1.7772881251055992,1.8029688974989886
90,4.56,-0.809,-11.9,0.929,2.34,-0.732,1.1,-0.375,-2.23,-0.585,4560000000.0,-1.495217335749083,-11.727640103609417,1.4445465851329047,2.185768145869743,-0.3026234932264138,0.9695259646191601,-1.458512981029602,-1.972749119081095,0.7063534599631889
91,4.61,0.0359,-13.6,-0.311,1.98,-1.08,0.525,0.815,-4.24,-2.95,4610000000.0,-0.9417047437147953,-12.549473460323961,0.7176286927556774,2.030827163260464,-0.8242041848417972,0.651447932597851,-0.5132872132385785,-2.9516477783466977,-0.9727361386503202
92,4.66,-0.278,-13.3,0.8640000000000001,1.63,-0.5920000000000001,0.772,0.72,-4.15,-2.64,4660000000.0,-0.7017695500301978,-12.878901460613765,0.7782365626889598,1.7290090136868144,-0.668406823325181,0.7377082864411506,-0.0005411277607773046,-3.469043362908755,-1.738385734080604
93,4.71,0.124,-11.0,0.8240000000000001,1.1,-0.313,0.809,1.37,-2.22,-3.37,4710000000.0,-0.4032464831675709,-12.054196988632185,0.7971857962620401,1.2553726324160275,-0.42994665862568726,0.7887206757959743,0.5692690323096081,-2.929761636730438,-2.4876640368947216
94,4.76,-0.127,-8.04,0.634,0.845,-1.04,0.583,1.3,0.46,-4.03,4760000000.0,-0.303380913706191,-10.29224921819482,0.7296155737616722,0.9463668818191118,-0.8392618404984756,0.6415184243263222,0.8730745092959243,-1.4662123257565427,-3.195943643909878
95,4.81,0.33299999999999996,-6.0,0.271,0.0278,-1.1,0.449,1.7,2.34,-4.69,4810000000.0,-0.0733235280919936,-8.408256257782527,0.539716956051746,0.2546968084244764,-1.0142040895966755,0.5037629660994136,1.2168734382091475,0.17714195234064034,-3.882051969618811
96,4.86,0.5720000000000001,-5.08,0.42100000000000004,-0.65,-0.59,0.293,1.89,3.3,-4.5,4860000000.0,0.15996670059443555,-6.947387798125652,0.4905599140477891,-0.42652924416763016,-0.7295843950542524,0.35295273857441145,1.4967295743490943,1.525454061769924,-4.165829265256868
97,4.91,-0.249,-5.6,2.14,-1.28,-0.43,-0.10300000000000001,1.01,2.98,-2.43,4910000000.0,0.012121586426301845,-6.355980082207116,1.173542413320866,-1.069182677247626,-0.5285782902245347,0.026698360690921075,1.2943690208988077,2.1534627409891196,-3.3686927886894935
98,4.96,-2.1,-9.39,6.81,-0.40299999999999997,-0.542,-0.204,0.7979999999999999,3.24,-1.97,4960000000.0,-0.7514291967452025,-7.6876997758026615,3.5074262800147737,-0.5675549438352484,-0.5375835817164994,-0.1383765308801796,1.0880008083454928,2.622581527863324,-2.7263778538251837
99,5.01,-4.44,-13.3,7.32,1.03,-1.36,0.843,-3.49,-4.56,2.96,5010000000.0,-2.084880506824681,-10.15110158123141,5.086095976324361,0.6353851431022132,-1.0893837767147594,0.5638418366591014,-0.8153286991943711,-0.4785398083952246,-0.11504994140432911
100,5.06,1.16,-9.57,3.51,-0.34,0.0861,-0.344,2.27,-0.998,-1.13,5060000000.0,-0.9118272344224552,-9.896039070268012,4.433483058629665,-0.09906841587148119,-0.30069309649413023,-0.0857592125547183,0.46741399809716144,-0.702819779316286,-0.5811405628197608
101,5.11,0.235,-12.0,2.83,0.501,0.22399999999999998,0.106,1.3,-3.37,-1.77,5110000000.0,-0.4972389466476032,-10.819528685874403,3.7695299640565567,0.35277604342700525,0.05134967077356861,0.05145299581219928,0.8135662766285487,-1.854390307116171,-1.1270947433939034
102,5.16,1.41,-7.93,-0.536,-1.44,1.12,-0.228,2.61,0.745,-4.94,5160000000.0,0.19224495476928044,-9.551230469771497,1.9867423001167597,-0.9971633031453171,0.7683604688521319,-0.1485079992604571,1.5604436255817293,-0.7320884174130764,-2.87807687341901
103,5.21,0.625,-10.7,-0.22,-1.17,1.87,-0.8079999999999999,1.89,-1.64,-3.84,5210000000.0,0.3486897687187285,-10.055458728365885,1.0729981225914946,-1.127307273492955,1.5075053675295718,-0.6204037536659142,1.6974585300244438,-1.1240845190016988,-3.319816155195942
104,5.26,-1.16,-10.5,-0.0886,-1.8,1.23,-0.7490000000000001,0.0344,-1.19,-2.89,5260000000.0,-0.19671504528382722,-10.250580815597258,0.5920160325230691,-1.6338369594737032,1.3213131912507636,-0.7124200724328178,1.0060326223720057,-1.1525439361063499,-3.122433802025582
105,5.31,-1.22,-9.53,-0.134,-1.86,0.385,-0.45799999999999996,-0.247,0.0511,-1.99,5310000000.0,-0.5666417061004878,-9.934296830660166,0.29139510098921223,-1.8041350833429661,0.6930939749253149,-0.5303712458585231,0.48507728676279716,-0.6328636638997653,-2.6023916895466477
106,5.36,-0.47600000000000003,-8.9,0.6559999999999999,-1.41,0.44799999999999995,-0.68,0.295,0.831,-0.292,5360000000.0,-0.533873923754655,-9.480313716546792,0.4423667936456281,-1.5073559698015906,0.5286482146423469,-0.6374372513601706,0.4060515836318599,-0.0008320234141598881,-1.5414016474915104
107,5.41,-0.934,-9.61,0.508,-0.846,0.892,-0.795,-0.52,0.17800000000000002,0.141,5410000000.0,-0.6785230795104491,-9.537236645726795,0.4695434943423472,-1.0093627044066036,0.772439059348733,-0.7501803881320714,0.021040453567717055,0.07637974442925409,-0.7688004464619036
108,5.46,-1.54,-9.6,0.42100000000000004,-0.9520000000000001,0.9740000000000001,-0.5539999999999999,-1.42,0.207,0.45799999999999996,5460000000.0,-0.9899546666522738,-9.564785473928012,0.44944312655223073,-0.9661692782637359,0.9076763300530895,-0.6098046462681104,-0.5780801766511348,0.13277580066301603,-0.20542278833164707
109,5.51,-1.73,-10.8,1.53,-0.355,0.765,-0.5720000000000001,-1.85,-1.05,1.94,5510000000.0,-1.2574876711767276,-10.106957121649923,0.8968685128044019,-0.5059659821969609,0.811947655966786,-0.5827537666688022,-1.106887984401503,-0.37789451175393257,0.7798094046333826
110,5.56,-3.16,-10.1,1.65,0.457,0.8590000000000001,-0.11800000000000001,-3.52,-0.326,1.98,5560000000.0,-1.945262901130132,-10.10390360614776,1.2087171096640823,0.21913608227767123,0.8435174381131669,-0.25020186399875244,-2.1101528265666394,-0.35548875655770606,1.3309671558861769
111,5.61,-1.21,-12.0,2.23,1.03,0.401,0.847,-1.42,-2.21,2.23,5610000000.0,-1.6794588092517515,-10.93615543419588,1.6315989806164108,0.8297070667033095,0.5466104178003297,0.5348946648883732,-1.8232179015951693,-1.1561847914268966,1.7438256845356752
112,5.66,0.551,-11.5,0.168,2.06,0.23800000000000002,0.505,0.672,-1.71,-0.662,5660000000.0,-0.8731280289830572,-11.183643205464774,1.025567615063916,1.756103151871515,0.33954830310151995,0.5135037047664132,-0.7858170728201386,-1.3952977461450007,0.6390099506813558
113,5.71,1.94,-14.3,-0.8140000000000001,1.56,0.45399999999999996,0.684,2.33,-4.62,-2.57,5710000000.0,0.14384289928755556,-12.551502880875177,0.2638591872908408,1.6084397387733884,0.4163396512057025,0.635501365906679,0.5096013129559323,-2.787581655278376,-0.8346481916935722
114,5.76,2.04,-13.5,0.19399999999999998,1.66,-0.23600000000000002,0.5660000000000001,2.79,-4.03,-2.29,5760000000.0,0.8293206126989243,-12.967825839902716,0.23493264682606957,1.6472639847375812,-0.021347551124090758,0.5857700495883451,1.4576898367600208,-3.3240030942504504,-1.5029823706748473
115,5.81,1.1,-11.9,-0.409,1.38,-0.35,0.312,2.02,-2.66,-3.63,5810000000.0,0.9271736373670152,-12.499125868922134,-0.03170007940515501,1.446017339813166,-0.2418568635615662,0.3898754589180651,1.6914734319049818,-3.037315932376032,-2.4797624774546314
116,5.86,0.785,-9.77,-0.127,0.856,-0.809,0.44799999999999995,1.78,-0.775,-3.91,5860000000.0,0.8757766071334054,-11.301233388469367,-0.07116084983952073,1.0017412177040212,-0.6223814850278755,0.4314661521910551,1.7282788370380757,-2.0605478567390803,-3.136563600964052
117,5.91,0.97,-8.42,0.00479,0.33899999999999997,-0.966,0.528,1.98,0.423,-4.12,5910000000.0,0.9098392155421954,-10.036576328382157,-0.03971193666487349,0.5027048550068398,-0.8529322952590541,0.5005403935662089,1.8329333297959962,-0.988261617588011,-3.5881823060233806
118,5.96,1.59,-7.41,0.907,-0.0883,-0.638,0.39,2.64,1.4,-3.27,5960000000.0,1.1557234259628748,-8.883695554554858,0.35229238805193186,0.05768514303346278,-0.7087235082979078,0.4214438360932215,2.1684758665334702,0.0428842197692858,-3.44206497042783
119,6.01,0.462,-7.54,2.03,-0.156,-0.7829999999999999,0.14,1.5,1.28,-2.13,6010000000.0,0.904936216053611,-8.29390849679125,1.0469795459552147,-0.10321726223600217,-0.7585593053114645,0.22005830714046176,1.8905532770744302,0.5770161427349214,-2.8395317504351674
120,6.06,-0.249,-7.67,2.78,-0.298,-0.8440000000000001,0.151,0.695,1.19,-1.31,6060000000.0,0.48777796844324245,-8.020056953601214,1.764570052125705,-0.24988638185824988,-0.8158857157809256,0.17064402496261982,1.3934952960411129,0.8416755139880046,-2.1371322303636267
121,6.11,0.409,-8.03,2.19,-0.723,-0.6459999999999999,0.0789,1.24,0.915,-1.74,6110000000.0,0.4592990326166867,-8.024421128509923,1.9407275446835373,-0.6061353717797224,-0.7019009361488134,0.10499711331006982,1.329678770073955,0.8733337966701059,-1.9547591146705972
122,6.16,0.369,-9.75,3.71,-0.7,-0.799,-0.0677,1.08,-0.65,0.11800000000000001,6160000000.0,0.4266551214353209,-8.781827858935223,2.673328918276463,-0.6768143253577193,-0.7670495566363298,-0.018575318726483644,1.2258734393825084,0.2156255779092966,-1.0028959362889345
123,6.21,-1.86,-9.82,4.72,0.073,-0.177,0.401,-1.21,-0.67,1.25,6210000000.0,-0.3999911331143834,-9.237511658054363,3.5207924365288505,-0.1122129461837782,-0.37115588657221177,0.28164939913093157,0.2131453838728281,-0.1667484248878563,0.03169060614193486
124,6.26,1.25,-8.72,1.5,-0.732,-0.0715,-0.37200000000000005,1.98,0.45399999999999996,-1.89,6260000000.0,0.1964953981996479,-9.010360864132064,2.684044383181111,-0.5789053129152799,-0.17010181195864962,-0.18606570124644872,0.9477251046922449,0.10126331725622328,-0.8507981022825476
125,6.31,-0.532,-15.5,3.95,0.312,-1.15,-0.0573,-0.13,-6.23,0.8220000000000001,6310000000.0,-0.06686219661290227,-11.85885213900108,3.208237723748365,0.09193592834752162,-0.8275643536320927,-0.09392814018671149,0.4996548519109526,-2.6322964617748994,-0.08260707997431394
126,6.36,-0.19399999999999998,-8.99,-0.0838,-0.7090000000000001,0.433,0.488,0.374,0.26,-3.28,6360000000.0,-0.11282365012158685,-10.599629435286156,1.8451060583907852,-0.5111594117692084,0.018211129029095163,0.3224672206187523,0.447413148071832,-1.3835306419257494,-1.5509304068704517
127,6.41,0.804,-8.37,0.44299999999999995,-0.5870000000000001,0.188,-0.0897,1.44,1.0,-2.38,6410000000.0,0.2186162951352067,-9.62098020909335,1.264537018684199,-0.5682664932498199,0.1321309448859851,0.027543321176510427,0.8600867206934981,-0.35442742054030485,-1.9316600927708194
128,6.46,-1.28,-10.4,0.17,-0.912,-0.536,0.121,-0.665,-0.9440000000000001,-2.26,6460000000.0,-0.32314686992072256,-9.962914474508851,0.8113228727633077,-0.8270937868385011,-0.31615143181623506,0.09441571343818743,0.2260233569309379,-0.6089788141657175,-2.0824420414724916
129,6.51,0.0934,-10.1,0.0886,-0.6970000000000001,-0.7859999999999999,-0.131,0.637,-0.508,-1.92,6510000000.0,-0.17256145555554697,-10.023085464252695,0.5120655397993836,-0.7291347134845052,-0.6313962744985907,-0.06687921083208369,0.396889210622805,-0.5653806306821754,-2.007844545989007
130,6.56,-0.204,-10.1,-0.0838,-0.868,0.259,-0.0903,0.24600000000000002,-0.389,-1.67,6560000000.0,-0.18392676878266856,-10.056845657387177,0.26533592822464214,-0.8336986212735639,-0.033985011460703096,-0.08363782360898424,0.33415617813993925,-0.48922726663290317,-1.8526978037523056
131,6.61,-0.8140000000000001,-10.1,0.0144,-0.706,0.386,0.0386,-0.371,-0.40700000000000003,-1.14,6610000000.0,-0.4117038730818033,-10.07578752032361,0.16143107096744447,-0.7375430370891022,0.24780388053560753,0.003828753944333657,0.04098354684499256,-0.453725168152889,-1.525409019789811
132,6.66,-0.37799999999999995,-9.82,0.10099999999999999,-0.38799999999999996,-0.033,-0.0372,0.0891,-0.057,-0.738,6660000000.0,-0.3995196187516814,-9.963514807789297,0.13640842285321486,-0.47434124436790065,0.0593985547209982,-0.025529136692582693,0.06098823336708507,-0.282436768776453,-1.1638109595771722
133,6.71,-0.534,-10.1,-0.304,-0.22899999999999998,0.295,-0.162,-0.109,-0.305,-0.966,6710000000.0,-0.44813547025558076,-10.023422293804265,-0.04595116819613884,-0.2896021706525735,0.21747530399248,-0.12318008378574781,-0.00968532663899093,-0.29217857821212967,-1.0729711954255128
134,6.76,-0.62,-10.0,-0.484,-0.239,0.271,-0.0971,-0.251,-0.244,-0.9990000000000001,6760000000.0,-0.5102660344689391,-10.013141568151875,-0.2273337280587832,-0.25149932493827865,0.25338769015088153,-0.10451862672303464,-0.11001324971660434,-0.271377197962952,-1.0390017657851314
135,6.81,-0.589,-10.0,-0.41200000000000003,-0.242,0.141,-0.142,-0.257,-0.233,-0.777,6810000000.0,-0.538729061384497,-10.007373351855868,-0.30379835706848507,-0.24434644384754722,0.1779811862969782,-0.13133821261375944,-0.17112381496107076,-0.25480761746702857,-0.9186839622646485
136,6.86,-0.895,-10.0,-0.373,-0.21899999999999997,0.302,-0.0421,-0.605,-0.239,-0.597,6860000000.0,-0.6675241807889029,-10.004136973378072,-0.33245262931004044,-0.2252608669157061,0.2611915834177341,-0.06748432009055734,-0.35151027943718793,-0.24798258347011642,-0.7709585880234008
137,6.91,-0.747,-9.98,-0.256,-0.26,0.322,-0.0292,-0.45,-0.175,-0.33799999999999997,6910000000.0,-0.6962553916774746,-9.993542353158745,-0.3007959497729439,-0.2514190189154675,0.30199098027772064,-0.04009019401288573,-0.39245792800790563,-0.2164719271773096,-0.5721331021778072
138,6.96,-0.615,-9.91,0.0886,-0.111,0.265,-0.147,-0.322,-0.11199999999999999,0.121,6960000000.0,-0.666880845311133,-9.956873118750202,-0.13955905135156388,-0.14568514805367377,0.2771718774301024,-0.11658889495942328,-0.36316464811311067,-0.17136556632181413,-0.2538289286927949
139,7.01,-0.9740000000000001,-9.96,-0.0144,-0.062,0.304,-0.132,-0.6779999999999999,-0.158,0.0719,7010000000.0,-0.7779071544538906,-9.958245614575077,-0.08773453395375586,-0.08267121373781007,0.2951721961068276,-0.12761622263500877,-0.49405919974751505,-0.16559490844476313,-0.10424600147982616
140,7.06,-1.59,-10.2,-0.488,0.0773,0.091,0.11599999999999999,-1.21,-0.451,-0.396,7060000000.0,-1.0714859832929942,-10.064358558580171,-0.2534721664145321,0.03778522914981941,0.15818288730867613,0.0467019716077649,-0.7917156173819888,-0.2888202192947654,-0.23822678305405068
141,7.11,-0.9840000000000001,-10.5,-0.0766,0.268,-0.136,0.379,-0.45,-0.7240000000000001,-0.0571,7110000000.0,-1.0398590287879714,-10.255574251606495,-0.18023483731331622,0.21113425261815424,-0.0391990863825287,0.2844759336204411,-0.6496454286001816,-0.4767116114899306,-0.15504880424867218
142,7.16,-0.134,-10.4,0.433,0.752,-0.243,0.23600000000000002,0.583,-0.596,0.257,7160000000.0,-0.7123829005191125,-10.318966743691051,0.07368686473534222,0.6183997882198631,-0.1759392824844654,0.24978925722441436,-0.1371661787947256,-0.5282150740105516,0.034174381826506034
143,7.21,0.0646,-11.2,1.13,1.34,-0.18899999999999997,0.18,0.8640000000000001,-1.47,0.455,7210000000.0,-0.4314966430703548,-10.705677768390153,0.5110736738361619,1.1617562972028925,-0.18470236618812594,0.19985195795434946,0.27907428260139283,-0.9348362072080769,0.22742810820864048
144,7.26,0.14400000000000002,-10.2,1.23,1.81,-0.058,0.271,1.05,-0.579,-0.193,7260000000.0,-0.22344946886377817,-10.483721011734756,0.8087589823337761,1.6498761483172402,-0.09969142949002988,0.2507615315247888,0.5995909521390499,-0.7812018529405494,0.034356932736536505
145,7.31,-0.711,-10.0,-0.52,1.5,-0.0519,0.11199999999999999,0.28,-0.51,-2.78,7310000000.0,-0.3997033495034058,-10.271401797592045,0.25856072556168086,1.5370211690183293,-0.06762577587596855,0.15147151268729547,0.4667192224303035,-0.6641088710371902,-1.2580666238538094
146,7.36,-0.958,-9.92,1.48,0.7070000000000001,-0.243,0.273,0.0883,-0.5760000000000001,-1.3,7360000000.0,-0.6015325765673261,-10.117161366631978,0.7643212047942793,0.9120249907627784,-0.18529308847986675,0.23843052900817638,0.3093893078349943,-0.6260673426677832,-1.277323464175548
147,7.41,-0.68,-8.14,1.49,0.242,-0.382,0.28,0.44799999999999995,1.13,-1.48,7410000000.0,-0.6298992535461074,-9.24932791611236,1.064802499284369,0.40750404157065645,-0.3172735638674877,0.2681753273948836,0.3670174860011991,0.13212494679318132,-1.3703976416313708
148,7.46,-0.496,-8.4,2.35,-0.14800000000000002,-0.282,0.125,0.674,0.853,-0.6729999999999999,7460000000.0,-0.5814934745539746,-8.876533035763691,1.5969632534783433,-0.010783978444868447,-0.2936067744469603,0.16572703965936275,0.4946471976658302,0.44336693848833003,-1.0501350738731343
149,7.51,-0.6990000000000001,-9.11,3.47,-0.233,-0.203,0.0648,0.474,0.17300000000000001,0.539,7510000000.0,-0.6239731333425764,-8.979008322712982,2.3725302276562767,-0.17811002911656731,-0.23281416738069202,0.09350927410399718,0.4860630123480832,0.3266344368378774,-0.32036424473496994
150,7.56,-0.6509999999999999,-7.69,3.33,-0.275,-0.18,-0.0225,0.504,1.63,0.49200000000000005,7560000000.0,-0.6337435953006584,-8.413225122658602,2.7689890077996107,-0.251067043649961,-0.1973785136683449,0.010499499995278577,0.49352041890199777,0.8893700993012558,0.05269387822438232
151,7.61,-1.9,-8.05,3.52,-0.305,0.0568,-0.18,-0.8059999999999999,1.32,0.812,7610000000.0,-1.0915065863940043,-8.253795140846325,3.079959574814476,-0.29167793169287376,-0.02683747380972662,-0.1258113342585136,-0.04676247890665536,1.0752970868622527,0.4013863581332917
152,7.66,-2.5,-9.22,2.91,-0.493,0.1,-0.0347,-1.47,0.198,0.389,7660000000.0,-1.6006895351985282,-8.677890658955043,3.0095845729169812,-0.4432710850200021,0.05826411320896285,-0.060617138573607246,-0.6384814698706343,0.6965189652700391,0.3956982299299404
153,7.71,0.376,-13.3,2.76,-0.9259999999999999,0.593,0.134,1.53,-3.77,0.546,7710000000.0,-0.886098618318704,-10.70666890025904,2.9062392665219865,-0.8067602873453319,0.41704508111935423,0.07864004571639492,0.2630768473716044,-1.2319265747446222,0.46472058913433556
154,7.76,0.871,-8.64,-0.871,-0.501,0.524,0.12300000000000001,2.12,0.9009999999999999,-2.76,7760000000.0,-0.250891777416435,-9.799547991186824,1.342200556075774,-0.5765263726152169,0.48880646222024926,0.11038156006203051,1.03510301171986,-0.3110231074289316,-1.016152300293109
155,7.81,1.02,-10.9,-1.17,-0.408,0.7509999999999999,-0.40399999999999997,2.25,-1.29,-2.73,7810000000.0,0.2085469440382114,-10.282568201290385,0.3019755181114796,-0.4496279877329958,0.6647251725438692,-0.2576812372860626,1.54020324616774,-0.7337020597480226,-1.8031943278741913
156,7.86,-0.972,-10.5,-0.462,-0.607,1.09,-0.298,0.10300000000000001,-0.805,-1.75,7860000000.0,-0.2182313211759434,-10.378005338631393,-0.014363273742362348,-0.5681272595159863,0.9500632833083056,-0.28653110328503667,0.94267793864679,-0.7644853633320268,-1.7787661530677916
157,7.91,-1.37,-9.79,0.304,-0.615,0.424,-0.332,-0.391,-0.0678,-0.579,7910000000.0,-0.6346059871751631,-10.119912685055018,0.11746117124594635,-0.6034218897334553,0.5971011906613815,-0.3190661035806408,0.38819385702372855,-0.4636874047209927,-1.2278033234134023
158,7.96,-1.44,-10.3,0.136,-0.415,0.0293,-0.221,-0.6,-0.536,-0.46399999999999997,7960000000.0,-0.9257631367747694,-10.198958326561764,0.1251375336349169,-0.4615424136072326,0.21613505838836988,-0.2488954638898222,-0.022653289458844816,-0.49490879419230827,-0.8770455984106289
159,8.01,-1.01,-10.1,0.0287,-0.444,0.284,-0.109,-0.233,-0.314,-0.35100000000000003,8010000000.0,-0.9562155117342718,-10.155522807687426,0.08520571414082928,-0.44833318651563897,0.2616690380874262,-0.14879406187499322,-0.11010611178560968,-0.416800374350841,-0.635472218696273
160,8.06,-1.2,-9.58,-0.73,-0.456,0.45299999999999996,-0.273,-0.47600000000000003,0.195,-0.863,8060000000.0,-1.0443457988116411,-9.902909083074041,-0.2523459304588941,-0.4541062071976321,0.39004252736646605,-0.23766891283168334,-0.2622285518299521,-0.15265200652458638,-0.7399586939100157
161,8.11,-0.924,-9.45,-0.986,-0.642,0.322,-0.32,-0.321,0.341,-0.826,8110000000.0,-1.000839726651316,-9.70411403642475,-0.5561295376316444,-0.5955880409752969,0.3443894006881913,-0.2965804468822918,-0.2866631149849675,0.060485115211115686,-0.7794710168215576
162,8.16,-0.584,-9.94,-0.335,-0.763,0.0825,-0.341,-0.124,-0.156,0.179,8160000000.0,-0.8501484394111798,-9.807651059018195,-0.4645665943902183,-0.7216472883857299,0.16867474466664056,-0.3283645977488566,-0.21903501208312784,-0.032983594122566254,-0.33931698900154855
163,8.21,-0.5820000000000001,-9.45,0.0646,-0.629,0.47,-0.439,-0.28800000000000003,0.314,0.9259999999999999,8210000000.0,-0.7532103898348932,-9.650667528341287,-0.24545496851396603,-0.6518849745323491,0.37084888346600775,-0.4075291354140981,-0.24770758732154832,0.1168285958254741,0.2417484329104212
164,8.26,-1.6,-10.5,0.539,-0.33899999999999997,0.48,-0.569,-1.56,-0.715,1.63,8260000000.0,-1.059332405526039,-10.023464240813531,0.07936371886389842,-0.4162862536750206,0.4440838032474424,-0.5230686943814677,-0.7933004917408241,-0.24231822845180623,0.8792685068522426
165,8.31,-1.53,-10.2,-0.0527,-0.029,0.57,-0.249,-1.7,-0.512,1.12,8310000000.0,-1.229482934295343,-10.10095083381362,0.024680190194147876,-0.12466425293540656,0.5285672537495474,-0.32696040407898724,-1.1702659157220547,-0.3587549127527889,0.9898184723750665
166,8.36,-1.15,-11.8,0.493,0.196,0.8170000000000001,-0.231,-1.44,-2.02,1.62,8360000000.0,-1.200749135036465,-10.846712989063983,0.2185970332672711,0.11679215927390496,0.7220911472348868,-0.2582964894778233,-1.2824093973700854,-1.076007135609473,1.2792137001797474
167,8.41,-1.8,-12.4,0.48100000000000004,0.414,0.612,0.0728,-2.2,-2.69,1.48,8410000000.0,-1.4173836576182044,-11.528495645814694,0.32725004127750335,0.34058617586985285,0.6482254991040062,-0.021382285431812448,-1.6639028548991164,-1.7728579692875375,1.3714198336658232
168,8.46,-0.63,-11.5,1.86,1.67,0.0263,0.988,-0.836,-1.75,2.44,8460000000.0,-1.1327374312449696,-11.515988078479202,0.961914706987887,1.3416191383737694,0.23094466902015098,0.7008754261670551,-1.3196976116739128,-1.7629889080661851,1.8621387794412265
169,8.51,3.08,-10.2,1.14,2.61,0.263,0.9159999999999999,3.37,-0.45399999999999996,0.665,8510000000.0,0.3902047481161748,-10.938362570464742,1.0356543487216674,2.2966949503036043,0.2524521967145963,0.8548065923766818,0.6300704165564881,-1.1978253300195942,1.3123825175197938
170,8.56,3.73,-12.2,-0.0599,1.74,1.13,0.433,4.41,-2.59,-1.73,8560000000.0,1.5975705675385687,-11.492131831209951,0.5820189566659244,1.8775101986173635,0.8412427742786167,0.5529852932617819,2.2015972703882865,-1.7989048060199058,-0.0847561512422319
171,8.61,-2.37,-9.98,0.9740000000000001,1.32,0.649,0.706,-1.33,-0.511,-1.37,8610000000.0,0.16325841287549547,-10.828413010885589,0.7443262524962442,1.4577116068411857,0.7122575033352977,0.6624740715320537,0.7333158867539384,-1.2428444036641646,-0.6749724915453118
172,8.66,-1.69,-8.78,0.395,0.858,-0.753,0.5429999999999999,-0.325,0.495,-2.5,8660000000.0,-0.5067110762146322,-9.929304874469212,0.5996809898267906,1.0061357961359898,-0.2708568358266823,0.5769850697703658,0.29331512812599436,-0.49251997001657855,-1.5130710780799383
173,8.71,-0.223,-9.21,1.57,0.0828,-1.11,0.579,1.23,-0.0322,-1.58,8710000000.0,-0.4041469899993101,-9.6135810711362,1.001460297835562,0.31087478745260533,-0.8338798387333833,0.578426838857815,0.6827471232543496,-0.293774145454886,-1.543806544020545
174,8.76,1.0,-8.29,2.06,-0.275,-0.8740000000000001,0.5,2.54,0.857,-1.12,8760000000.0,0.10346468785184826,-9.032622844886486,1.439769038153156,-0.13028205054160963,-0.860798464185464,0.5223089622677184,1.4549104039726557,0.20307928385445356,-1.3491839096405673
175,8.81,0.496,-7.35,1.79,-0.425,-0.7829999999999999,0.344,2.09,1.82,-1.29,8810000000.0,0.24536970614386594,-8.294070721438297,1.5847889018119066,-0.35220121382353897,-0.8085995899692926,0.39472101113288516,1.7189524285971758,0.901194232502422,-1.3220051505498203
176,8.86,0.172,-8.79,2.8,-0.7170000000000001,-0.32299999999999995,0.139,1.8,0.445,-0.0824,8860000000.0,0.21884590419200392,-8.511748482049997,2.087970456995683,-0.6268904207818404,-0.48278661957146135,0.21174130120801862,1.7526483909930446,0.7042297155171826,-0.7527472525755937
177,8.91,-0.8,-9.15,4.2,-0.281,-0.0513,-0.13699999999999998,0.8140000000000001,0.156,1.58,8910000000.0,-0.14947599418000382,-8.791895460237274,2.9624969136368042,-0.3664389878238092,-0.193280730384774,-0.03779854102395763,1.3624000640734328,0.46752834778070285,0.3185090446781681
178,8.96,-1.36,-8.78,2.03,-0.319,-0.183,-0.304,0.11599999999999999,0.569,-0.534,8960000000.0,-0.5870912391018612,-8.786674079723468,2.5763785834840056,-0.33071799150007286,-0.18638287459400038,-0.2282774675231264,0.8442022478482688,0.5113393264314279,-0.07298456561451488
179,9.01,-2.07,-9.89,3.9,-0.36200000000000004,-0.8420000000000001,0.207,-0.73,-0.489,1.44,9010000000.0,-1.1231759764507059,-9.270956051247309,3.1244495795038074,-0.35427296785756707,-0.6262691019574718,0.08318283978701846,0.18971882928602335,0.07943700573320711,0.6218160705251017
180,9.06,-0.192,-10.2,4.12,-0.146,0.765,0.32899999999999996,1.26,-0.742,1.78,9060000000.0,-0.7865475448832262,-9.67874036456281,3.5366763701149195,-0.19744586773422315,0.30720270556128426,0.2590759020013039,0.634694222797423,-0.2752231933897093,1.1536832811644304
181,9.11,-1.26,-13.0,1.09,-0.0687,-0.28800000000000003,-0.212,0.265,-3.54,-1.14,9110000000.0,-0.9577048325427836,-11.13653776978821,2.5235828801903963,-0.1005017420114074,-0.09214846148355732,-0.07799976721595869,0.4809917709550915,-1.6848095567584018,0.10036616950038724
182,9.16,1.29,-8.09,0.759,-0.254,0.13699999999999998,0.331,2.88,1.32,-1.51,9160000000.0,-0.14513947426935148,-9.799323844719211,1.7929233327341803,-0.21608413345292435,0.06159866429592087,0.21465768028099397,1.478392940294149,-0.3874655268154541,-0.6391545205803417
183,9.21,1.73,-9.11,-1.04,-0.607,1.19,-0.364,3.33,0.355,-3.06,9210000000.0,0.5327402001521966,-9.496759419473847,0.6198968461044787,-0.5104391843981655,0.8186994273390736,-0.199397512406639,2.2482089250639037,-0.06690172078230838,-1.7508676959515521
184,9.26,-2.54,-10.8,-0.146,-0.682,0.762,-0.225,-1.03,-1.27,-1.72,9260000000.0,-0.5780828122141073,-10.06878968005845,0.30276249738905586,-0.63962244946008,0.7806569704970422,-0.21771722190404574,0.8852751964093193,-0.5863463938985327,-1.7366924858527801
185,9.31,-0.496,-10.2,-0.0407,-0.462,-0.0935,-0.253,0.93,-0.5770000000000001,-1.25,9310000000.0,-0.548409139555675,-10.126381620133204,0.16054523117770317,-0.505874840632694,0.1941414663781067,-0.24296360593198088,0.9038697872346918,-0.5823110434284117,-1.5131910413098328
186,9.36,-0.28300000000000003,-9.99,0.486,-0.51,1.01,-0.159,1.02,-0.315,-0.47600000000000003,9360000000.0,-0.4524613623790673,-10.06651966188922,0.2953060510120985,-0.5089810300027842,0.7415416335466662,-0.18288392327752467,0.9521515663699375,-0.46689794425574926,-1.0368868034451957
187,9.41,-1.39,-10.6,-0.634,-0.647,1.51,-0.094,-0.115,-0.8690000000000001,-1.21,9410000000.0,-0.7913899482188171,-10.300679858353316,-0.08949103051166502,-0.6129077044269223,1.257138664919124,-0.11928353735608499,0.5084773185790558,-0.6405078537613519,-1.116384759855094
188,9.46,-0.831,-9.47,-0.611,-0.507,0.816,-0.275,0.405,0.255,-0.7879999999999999,9460000000.0,-0.8057093250224128,-9.936070437311423,-0.30543187051663395,-0.533160468844272,0.9611567266968245,-0.23070556705217876,0.4654560437085145,-0.2538671301371516,-0.9655822036253228
189,9.51,-1.64,-9.8,-0.445,-0.418,0.384,-0.256,-0.557,-0.059,-0.342,9510000000.0,-1.1073128502200942,-9.876345250436179,-0.3632227413446662,-0.446445997947225,0.5739135006688503,-0.2488048627730291,0.04036421865777595,-0.1697321131707994,-0.6792175572672694
190,9.56,-1.16,-9.78,-0.376,-0.509,0.415,-0.2,-0.175,-0.0296,-0.0347,9560000000.0,-1.126359713367676,-9.834056401992365,-0.36851340620509915,-0.49354842927259707,0.46729050313765863,-0.21388282410952345,-0.04917466149403463,-0.10922925806258685,-0.3832388653028341
191,9.61,-0.309,-10.3,-0.141,-0.396,0.7240000000000001,-0.321,0.5529999999999999,-0.526,0.452,9610000000.0,-0.8308768715797381,-10.03857267616805,-0.27430709678067583,-0.4200956061785679,0.639529690225616,-0.2905299144858272,0.2011828191366137,-0.28917246043516953,0.00032384955608411037
192,9.66,-1.83,-10.0,-0.0575,-0.187,0.627,-0.374,-1.18,-0.257,0.693,9660000000.0,-1.1920688215634692,-10.021642007264479,-0.1845339404529407,-0.24457735741902298,0.6311228789749971,-0.3502564666274579,-0.3730516599983855,-0.27528181316283123,0.3184181881398749
193,9.71,-2.43,-9.95,0.0551,-0.138,0.452,-0.0928,-1.9,-0.191,0.888,9710000000.0,-1.6395920231318986,-9.990196163876105,-0.08530888857105393,-0.16432585649343906,0.5109404021032646,-0.16603496161506934,-1.007888983592314,-0.23889264984666955,0.5799845036149118
194,9.76,-1.08,-10.5,0.6920000000000001,0.0345,0.5870000000000001,0.141,-0.545,-0.7559999999999999,1.57,9760000000.0,-1.4372945243565625,-10.213963887888305,0.2365508255015039,-0.014612322531895955,0.5619725874158743,0.05366215333778679,-0.8154403003199702,-0.46215674904805026,1.0346245724817642
195,9.81,-1.78,-12.9,0.991,0.368,0.262,0.46299999999999997,-1.1,-3.19,1.78,9810000000.0,-1.5611856042906822,-11.39294305491664,0.5489450446736842,0.27349026286526656,0.36070601649501255,0.346561511139684,-0.933747600816946,-1.6399189672030805,1.3769197244005627
196,9.86,-1.31,-10.8,2.08,1.13,-0.0415,0.522,-0.414,-1.0,2.56,9860000000.0,-1.4703797442205153,-11.132683194582858,1.1829078240472426,0.918432031123949,0.09084594480204278,0.472095530359776,-0.7176596235885859,-1.363630230238376,1.9202199509380067
197,9.91,0.534,-9.61,1.45,2.18,-0.461,0.47200000000000003,1.7,0.126,1.11,9910000000.0,-0.7457785722256355,-10.464333124370405,1.2935025066837378,1.8683779440933521,-0.2794150147129247,0.47202717620367257,0.2874959398502126,-0.720473711193824,1.548146554494152
198,9.96,1.77,-10.1,-0.596,2.16,-0.08,-0.0561,3.06,-0.442,-2.06,9960000000.0,0.1636978441060689,-10.304416892115546,0.5111175725111703,2.0879659915471005,-0.14561753617213463,0.09412879201982866,1.4401800236833153,-0.6002410670220314,-0.10880517109131782
199,10.0,-1.36,-11.0,-0.591,1.43,-0.258,-0.14300000000000002,-0.17600000000000002,-1.54,-2.9,10000000000.0,-0.3871325404298819,-10.609728539230751,0.05476454295420696,1.592525288615898,-0.22102052606683412,-0.07554736546600449,0.7682441177869997,-1.0059874371273627,-1.3905921633099696
200,10.1,-2.47,-9.96,3.09,0.677,-0.2,0.312,-1.3,-0.6459999999999999,0.272,10100000000.0,-1.1401077402822661,-10.324543812064354,1.3115622438991767,0.9031454892613833,-0.2069168089248465,0.20175994292513127,-0.09163995039518091,-0.8505607787793515,-0.6270879706404479
201,10.1,0.637,-7.92,1.62,0.355,-0.583,0.13,1.84,1.31,-1.49,10100000000.0,-0.4976674113592532,-9.269119664745118,1.4392768430440306,0.49039836606171733,-0.4592497783497328,0.15041252222803272,0.7114502029965389,0.08227388230925559,-1.023358907244061
202,10.2,-0.517,-7.94,1.98,-0.0907,-0.43200000000000005,-0.0225,0.629,1.26,-1.2,10200000000.0,-0.504656321887141,-8.685730430609377,1.6631736949739764,0.052838121366149626,-0.44096655074395524,0.026685953941372173,0.6771710721968792,0.5907639811954191,-1.1044769668023477
203,10.2,-0.275,-8.16,2.83,-0.196,-0.7020000000000001,-0.10400000000000001,0.7559999999999999,1.07,-0.314,10200000000.0,-0.4216335125324642,-8.454971994305517,2.1463205822236766,-0.1345340574118914,-0.616106923183559,-0.06682563549107735,0.709944633566495,0.7976769430258066,-0.7414700440550948
204,10.3,-0.0023899999999999998,-8.62,3.65,-0.278,-0.593,-0.16,0.8590000000000001,0.649,0.5820000000000001,10300000000.0,-0.2700732383437133,-8.527407533247535,2.7689480637690584,-0.2425622249341056,-0.6006033326574407,-0.13349601726763682,0.771915249170984,0.7334848031771588,-0.13369926663289255
205,10.3,-1.28,-9.03,5.03,-0.256,-0.313,-0.141,-0.5539999999999999,0.294,2.07,10300000000.0,-0.6351707723764572,-8.748009860396593,3.7051802801593317,-0.2526807208799572,-0.40763591091574336,-0.13886545112748439,0.2206585419845658,0.5437346824992436,0.8782948956508038
206,10.4,-1.7,-8.74,5.36,-0.155,-0.462,-0.0427,-1.08,0.595,2.43,10400000000.0,-1.0201160657919395,-8.744493999353654,4.3903903323676206,-0.17912828627279842,-0.4441114975042361,-0.07005481192314028,-0.3200975570980543,0.5658687939305238,1.5908769825498144
207,10.4,-1.54,-8.37,2.63,-0.17800000000000002,-0.7020000000000001,0.248,-0.965,0.982,-0.28,10400000000.0,-1.2080587374971972,-8.580117646015639,3.6614668361411726,-0.1782787022956136,-0.6171417683373825,0.1575274891982362,-0.5882193526094041,0.7455358602070913,0.7317231624619635
208,10.5,0.294,-12.2,2.92,-0.386,0.0544,0.409,1.0,-2.87,0.0693,10500000000.0,-0.6650510885249941,-10.168989159853847,3.35444823457221,-0.3346904052228852,-0.16657090857275375,0.33746721460731566,0.072091747917162,-0.8154927322325866,0.4275217678156942
209,10.5,0.0934,-9.67,0.591,-0.0547,-0.542,0.415,0.948,-0.314,-2.21,10500000000.0,-0.3908642454588327,-9.949968345134051,2.21018924396516,-0.12386091749967626,-0.4184650041679106,0.3929453503760824,0.43625552042996657,-0.5989703320719355,-0.7836946589456064
210,10.6,2.73,-9.49,-1.57,-0.757,-0.48700000000000004,-0.396,3.54,-0.0758,-4.21,10600000000.0,0.737356059785528,-9.748074766405352,0.6449290134308721,-0.6006072319317943,-0.46444854273907715,-0.17157998729035945,1.7266546737346409,-0.37308849823694024,-2.3571403643071203
211,10.6,-1.06,-10.8,-0.488,-1.17,0.493,-0.214,3.36,0.0711,-3.68,10600000000.0,0.08759581199383915,-10.20979541531702,0.17581791917805173,-1.0293532661177085,0.17795142891029098,-0.2019333862010662,2.405727107202245,-0.1813075314373985,-2.9646308496126226
212,10.7,-1.54,-9.79,0.33299999999999996,-0.898,-0.408,-0.0781,-0.976,-0.124,-1.22,10700000000.0,-0.5007945969235837,-10.025534987057947,0.24090219075507852,-0.9304458009890537,-0.21519259850731254,-0.11332511637321704,0.9997550974730562,-0.15656467046466807,-2.163452446364925
213,10.7,-0.251,-10.1,1.2,-0.675,-0.0831,-0.154,0.225,-0.33299999999999996,0.0555,10700000000.0,-0.4104916144716572,-10.058220013423941,0.6380351422884553,-0.7380981221825718,-0.12656508629451566,-0.14242979643043815,0.6776463193963695,-0.23274165229727697,-1.1444536088843211
214,10.8,-1.51,-10.2,0.263,-0.535,0.495,0.0239,-1.06,-0.40700000000000003,-0.563,10800000000.0,-0.8079737125166577,-10.120451287451838,0.48274461863127416,-0.5851676414345177,0.2904739280805484,-0.023413460358273033,-0.044789856575243925,-0.3079787099703223,-0.8774354812661558
215,10.8,-0.912,-9.44,-0.19399999999999998,-0.47100000000000003,0.0,0.0526,-0.395,0.337,-0.745,10800000000.0,-0.8455801447122788,-9.821781252034649,0.2025254645978839,-0.49920073780871516,0.09558048504433256,0.03097753706947934,-0.19039169169002373,-0.029505394276844066,-0.8166177756997257
216,10.9,-0.369,-9.88,-0.12,-0.396,-0.245,-0.126,0.153,-0.0962,-0.444,10900000000.0,-0.6732921614860402,-9.847335203205906,0.06897758133453091,-0.4214917927766945,-0.1329319488569725,-0.0813468444139989,-0.04762467176307422,-0.058301176914102984,-0.645502313116696
217,10.9,-1.15,-10.7,0.615,-0.41700000000000004,0.10099999999999999,-0.0732,-0.68,-0.8909999999999999,0.493,10900000000.0,-0.8456262941473107,-10.221594486333906,0.2950686907545578,-0.4181095223431303,0.024024663172047322,-0.07551741808112343,-0.3105382629939317,-0.41782372646206234,-0.12267338283010853
218,11.0,-0.22699999999999998,-9.72,1.47,-0.369,0.614,-0.145,0.215,0.0804,1.54,11000000000.0,-0.6219873629387572,-10.001430201802512,0.7815716546397123,-0.38113061968328155,0.41986855122244315,-0.12523527972045206,-0.09204278212873734,-0.20271273509713877,0.6408680835818941
219,11.0,-1.43,-10.3,0.7020000000000001,-0.0742,0.134,-0.159,-1.08,-0.45799999999999996,0.863,11000000000.0,-0.9140911289401401,-10.132481249573567,0.7486234866021537,-0.15001546580054131,0.22806508741022705,-0.14939542845171383,-0.5027915524868157,-0.3129344987638254,0.7428766417709229
220,11.1,-0.43799999999999994,-13.0,1.89,0.294,0.365,0.325,-0.0696,-3.21,2.01,11100000000.0,-0.7419799313516846,-11.391118589817692,1.221232422823826,0.1843229645435855,0.31994155502122834,0.19005550221816692,-0.32268973616908997,-1.5637593997330792,1.3247715899754446
221,11.1,-1.48,-10.5,2.02,1.24,-0.5429999999999999,0.8190000000000001,-0.841,-0.745,1.85,11100000000.0,-1.0087807845988985,-10.999980735335157,1.551977524219701,0.9792353798724076,-0.2590489539132219,0.640093149325669,-0.5381801428947849,-1.2102552676372493,1.5659697121911271
222,11.2,1.57,-11.9,2.4,2.49,-0.88,0.486,2.57,-2.17,1.35,11200000000.0,-0.07652847994060274,-11.395025187318506,1.9031176130165832,2.11682340118589,-0.6756759716946908,0.5298326774910546,0.7540631504117526,-1.624630672309446,1.4667909931300054
223,11.2,1.26,-9.6,-1.94,1.97,-0.185,-0.341,2.23,-0.109,-4.21,11200000000.0,0.4066384991502963,-10.607136617463556,0.31180067653752297,2.0062671261637326,-0.34645699598152857,-0.09328666425447218,1.3676921787021818,-0.9702483108798516,-1.1401343914600566
224,11.3,-3.2,-10.5,1.49,1.06,0.525,-0.11,-2.34,-1.2,-1.53,11300000000.0,-0.8971935477794744,-10.560111241525899,0.799656816793137,1.2937390515429525,0.2382469424425736,-0.1052457957582668,-0.17380159684918817,-1.0694449598781333,-1.3191704826772581
225,11.3,-2.46,-7.96,1.15,0.537,-0.331,0.19899999999999998,-1.52,1.2,-2.21,11300000000.0,-1.4621620520615766,-9.418846847396608,0.9447231537920581,0.7239234344377179,-0.14368921730176543,0.1124555463025831,-0.7334911227680907,-0.08959887484854223,-1.728261845861483
226,11.4,-0.385,-7.62,1.58,-0.193,-0.7,0.19699999999999998,0.551,1.5,-1.89,11400000000.0,-1.0727583462531094,-8.629280622165576,1.2077717928812852,0.03349085533129359,-0.5169458542445995,0.17295084503107355,-0.1994567371094792,0.5967196872218976,-1.8025360722800705
227,11.4,-0.354,-8.7,3.11,-0.341,-0.45299999999999996,0.188,0.57,0.47100000000000003,-0.25,11400000000.0,-0.8129207853564204,-8.660321329237494,1.9954259986172524,-0.24849635311514084,-0.47404139800558776,0.1837191773058813,0.12044921248788837,0.5424394747874657,-1.089572414639809
228,11.5,-0.972,-8.97,3.56,-0.28300000000000003,-0.633,0.312,-0.0275,0.237,0.33,11500000000.0,-0.87042934328083,-8.796248417607298,2.6432679928921057,-0.2744771882088636,-0.5806946615440164,0.2755097918826535,0.05893849795024216,0.4105642060766681,-0.43766901062450736
229,11.5,-0.467,-9.34,3.7,-0.228,-0.5660000000000001,0.36200000000000004,0.542,-0.109,0.551,11500000000.0,-0.724586035263267,-9.034916861315757,3.0808282656709736,-0.23948041147940602,-0.5708352701166074,0.3373973581016921,0.25977402402709215,0.18623933855193345,0.01635269355096519
230,11.6,-1.03,-9.04,4.38,-0.0058,-0.5529999999999999,0.225,0.0115,0.196,1.26,11600000000.0,-0.8349959009400628,-9.037147981910687,3.618775407481208,-0.0635218062944605,-0.5588686801107772,0.2569720662328265,0.15655270654762493,0.1904535587038338,0.5874668476451959
231,11.6,-1.34,-7.77,3.72,-0.146,-0.987,0.4,-0.285,1.44,0.523,11600000000.0,-1.0175594051989874,-8.480959887441486,3.6606894126751612,-0.12562691578384683,-0.8461233240158019,0.3593148915648915,-0.027025305368966024,0.7299525289605877,0.5578620487909669
232,11.7,-1.41,-7.9,3.01,-0.37799999999999995,-0.436,0.337,-0.312,1.33,-0.115,11700000000.0,-1.1594301731878707,-8.225959745811679,3.3912589172280336,-0.3156608772850529,-0.5709511278066947,0.343347607233899,-0.14550513510753466,0.989026534024041,0.24886685219231064
233,11.7,-0.0838,-11.0,2.28,-0.626,0.0629,0.13,1.14,-1.76,-0.664,11700000000.0,-0.7705802597817966,-9.443566656574685,2.9311207343611994,-0.5493425818785096,-0.14566879918424186,0.19068794205421286,0.3889508263155336,-0.19788166101314264,-0.17034458094590255
234,11.8,-1.6,-12.6,3.77,0.184,-1.04,0.0489,-0.43700000000000006,-3.23,1.01,11800000000.0,-1.0704229123502762,-10.82901717806402,3.2784748534032637,0.0028557690031104643,-0.745720172671946,0.0892323905121957,0.045557136734931614,-1.5070164021469001,0.371699367618721
235,11.8,3.17,-8.08,0.14800000000000002,-0.6920000000000001,-0.0379,-0.256,4.27,1.27,-2.61,11800000000.0,0.4625278708617966,-9.622393589361847,1.9822414101790393,-0.5203624423803016,-0.27080832341886657,-0.15779668333774022,1.801892934417242,-0.30802342282776474,-0.9975720137580728
236,11.9,-1.75,-11.3,0.0023899999999999998,-0.912,1.08,-0.29100000000000004,-0.78,-1.84,-2.32,11900000000.0,-0.3373207153757166,-10.358743895846892,1.1624457778284691,-0.815260923612331,0.6355163685651841,-0.253109561892745,0.7284564829131521,-0.9694632370569843,-1.6048642134534794
237,11.9,-1.83,-9.86,0.6679999999999999,-0.9009999999999999,-0.287,-0.0494,-0.887,-0.276,-1.16,11900000000.0,-0.8769376239634006,-10.139830550447769,0.957710967380357,-0.8798214583106367,0.016554134646512342,-0.1073463496812159,0.056821382641583096,-0.6700564470916157,-1.400571349514429
238,12.0,0.16,-9.19,0.8190000000000001,-0.7,-0.77,-0.261,1.02,0.478,-0.5920000000000001,12000000000.0,-0.5020754129124385,-9.722922125466884,0.9002750204480964,-0.7444180033357488,-0.5111842435662965,-0.2172923468239279,0.4572682851379102,-0.17437640336136184,-1.0292550292908214
239,12.0,-1.03,-10.2,0.7659999999999999,-0.292,-0.195,-0.255,-0.374,-0.496,-0.39399999999999996,12000000000.0,-0.6929248558953574,-9.932325389852291,0.8446758492097372,-0.40375255750938044,-0.2990404630086979,-0.2442738392653414,0.11166382956213183,-0.3132392588289262,-0.7375299211121882
240,12.1,-1.53,-10.3,0.575,-0.188,0.23399999999999999,-0.0635,-0.948,-0.547,-0.46799999999999997,12100000000.0,-0.9955349863801866,-10.093708548511257,0.7330113616765374,-0.24129341099894855,0.05860296230225731,-0.11492215256436222,-0.32889735455121494,-0.41416681487438217,-0.6137549920974539
241,12.1,-0.594,-9.8,-0.6990000000000001,-0.483,-0.14400000000000002,0.0483,0.00573,-0.0494,-1.59,12100000000.0,-0.850376495992854,-9.964791411985411,0.1400594590502099,-0.4232956412495867,-0.07733346388657589,0.001870527685393697,-0.1897741557979707,-0.25667662119984064,-1.0620712971497301
242,12.2,-0.831,-9.73,-0.371,-0.685,-0.418,-0.17300000000000001,-0.247,0.0396,-0.946,12200000000.0,-0.8433717089450276,-9.86173443479634,-0.07155455582451042,-0.6203559513114948,-0.3059036390200397,-0.12325707455022245,-0.21356611884579835,-0.12875746643252903,-1.0087684255971068
243,12.2,-1.03,-10.3,0.294,-0.685,-0.33799999999999997,-0.23600000000000002,-0.5479999999999999,-0.47,0.0644,12200000000.0,-0.9108394926662097,-10.054102015755491,0.07981035293597105,-0.6690321624866328,-0.3274386877892038,-0.20392963191983382,-0.3526088708887596,-0.2760909150419839,-0.5159424608277886
244,12.3,-0.551,-9.75,0.759,-0.68,0.20199999999999999,-0.27699999999999997,-0.17300000000000001,0.0516,0.8690000000000001,12300000000.0,-0.7807543018603736,-9.920622800592051,0.3610419171256656,-0.677290820696254,0.02778813340059516,-0.25621472360497394,-0.2779354728784435,-0.13460845529925272,0.12005799848634435
245,12.3,-1.37,-10.3,1.22,-0.287,0.165,-0.222,-1.11,-0.501,1.58,12300000000.0,-0.9937718862372493,-10.08714256587941,0.7167100771503225,-0.3834064172674624,0.11985042126757878,-0.23173257560262164,-0.6238709711179607,-0.29280013073162514,0.7905001469964564
246,12.4,-1.37,-10.6,1.99,0.111,0.0727,-0.126,-1.18,-0.763,2.37,12400000000.0,-1.1297817113214887,-10.312250770260642,1.243940312681938,-0.011124191083576151,0.08821485332201995,-0.15607623649845281,-0.8550847111204636,-0.49581166472445093,1.515846199145574
247,12.4,-3.04,-14.2,1.05,0.6809999999999999,-0.35200000000000004,0.47700000000000004,-2.81,-4.38,1.27,12400000000.0,-1.8203426697683642,-12.018696842936395,1.1636355688259734,0.510037191085905,-0.20714724211564883,0.29691784718909203,-1.6678516793179703,-2.1728326250431444,1.4029474252696987
248,12.5,-1.93,-11.6,2.54,1.34,-0.96,1.04,-1.35,-1.8,2.3,12500000000.0,-1.8599847550761812,-11.834918794213378,1.7335457712516982,1.134989462928036,-0.7122736845161698,0.8286260100365028,-1.535703071452946,-2.011859949554079,1.8148965336980138
249,12.5,3.12,-10.5,2.14,2.53,-1.17,0.531,4.14,-0.836,0.9940000000000001,12500000000.0,-0.05967582936527238,-11.248984128453735,1.9018460213469814,2.185415990576549,-1.01938506562528,0.6156614314862144,0.8240022469935511,-1.5041755864117285,1.437920183144551
250,12.6,-0.247,-8.71,-1.75,2.1,-0.568,-0.0885,0.765,0.746,-4.17,12600000000.0,-0.12739518791469612,-10.13455020125775,0.3897287973056245,2.1210986811231605,-0.7165283289405355,0.11180274079750407,0.7994717260502897,-0.5326491895678742,-1.1373780088339027
251,12.6,-2.88,-10.4,1.31,0.914,-0.44299999999999995,0.265,-1.93,-1.17,-1.82,12600000000.0,-1.1224864534067986,-10.251063667290207,0.7707848006871972,1.212167533295288,-0.5330045258531436,0.22142215435923496,-0.335321425593772,-0.8078290913769308,-1.4508552398583265
252,12.7,-1.2,-8.08,1.36,0.414,-0.82,0.6779999999999999,-0.122,1.04,-2.07,12700000000.0,-1.1505083100410527,-9.298120675960563,1.0147607153261802,0.6111567590845046,-0.7255640958906832,0.548123804841205,-0.24663184744257544,-0.010018147477261818,-1.7351820732797656
253,12.7,-0.0479,-7.93,1.57,-0.33,-0.7390000000000001,0.513,1.18,1.14,-1.95,12700000000.0,-0.7519055576893756,-8.697612663754073,1.2446682635156596,-0.09752323593751733,-0.7345789289853337,0.5229911750942796,0.34649832002997377,0.48650887201301213,-1.8338318962967497
254,12.8,-0.555,-9.13,3.17,-0.479,-0.652,0.386,0.757,-0.0135,-0.203,12800000000.0,-0.6807224425325717,-8.887400085652011,2.041889005868584,-0.3847707602221756,-0.6791726143912377,0.4249679275036855,0.5171667071329155,0.27062713245436826,-1.0849128220770128
255,12.8,-0.46,-8.37,2.48,-0.374,-0.853,0.326,0.89,0.792,-0.738,12800000000.0,-0.6009293112183225,-8.660298096662437,2.2232973142246384,-0.37666051397824907,-0.7958020655032005,0.3541519958412098,0.6721742330616889,0.49573289937005893,-0.9256017076592733
256,12.9,-0.591,-9.23,3.22,-0.521,-0.589,0.25,0.7609999999999999,-0.0181,0.14300000000000002,12900000000.0,-0.5973397839428535,-8.910356622725683,2.6360012817142975,-0.4853464724250897,-0.6570482384683295,0.2796266301073485,0.7091040343686222,0.2738825553304505,-0.43487289277638647
257,12.9,-3.07,-9.51,4.67,-0.48200000000000004,-0.6809999999999999,0.257,-1.71,-0.237,1.79,12900000000.0,-1.4912285121752569,-9.173557633507055,3.478217682127805,-0.4828266129685554,-0.6731186658121769,0.2634362736599261,-0.2966520469854087,0.0533060383979472,0.5868447449281782
258,13.0,-1.84,-7.87,3.44,-0.501,-0.789,0.40299999999999997,-0.41200000000000003,1.44,0.696,13000000000.0,-1.6173125321002773,-8.601388242639823,3.462392937999345,-0.49651095025163305,-0.7508692144666277,0.3633002988420569,-0.3446086053715499,0.6520192484337971,0.6369715774169921
259,13.0,-0.44799999999999995,-8.2,3.85,-0.45,-0.9329999999999999,0.245,1.03,1.14,1.26,13000000000.0,-1.1945956131737874,-8.425207190602293,3.6228890725511342,-0.46148874203444257,-0.8730698594369404,0.2786511991195111,0.22689261744332545,0.862707770685685,0.9230819127001657
260,13.1,2.15,-12.3,2.17,-0.551,0.425,-0.00176,3.67,-2.94,-0.309,13100000000.0,0.014505607309708068,-10.12596648117647,3.021292383364794,-0.5288896672017566,-0.0021300535747077465,0.07800456721879034,1.6583838479522235,-0.7791334571342706,0.3572788809341868
261,13.1,-3.13,-12.5,2.1,0.127,-0.305,-0.0042,-1.71,-3.05,-0.22,13100000000.0,-1.1222612958698426,-11.167998807325372,2.6398134772643367,-0.035012448558798315,-0.20534060825360373,0.0191835587846009,0.2579593617678446,-1.7595932777136967,0.09217788332905741
262,13.2,2.73,-8.69,-0.124,-0.615,0.0696,-0.293,4.11,0.768,-2.31,13200000000.0,0.27036557548103635,-10.080332909530789,1.4954032432306612,-0.4717362696783897,-0.020869243413352473,-0.20419761263056618,1.8594669098821484,-0.6682901723272314,-1.0109626618625789
263,13.2,-2.03,-10.8,0.146,-0.9420000000000001,0.997,-0.285,-0.8009999999999999,-1.25,-1.6,13200000000.0,-0.5612371151451505,-10.396215800458952,0.9366568235887996,-0.8258393139009087,0.6620699746821851,-0.26201529683062313,0.7533628760389643,-0.9194467746547573,-1.2814634505925673
264,13.3,-1.34,-9.02,0.728,-0.6609999999999999,-0.331,-0.267,-0.20800000000000002,0.638,-0.565,13300000000.0,-0.8427668655119127,-9.792154879052404,0.85025843839674,-0.7017172567221995,-0.004230191625668733,-0.2655820653763258,0.35367086846238927,-0.2470100639541185,-0.9524453922554794
265,13.3,-1.29,-10.3,0.536,-0.344,-0.27699999999999997,-0.275,-0.341,-0.614,-0.503,13300000000.0,-1.0044456242467041,-10.015062949751647,0.7201336810730915,-0.4323603728078444,-0.18724506464119747,-0.27232101896837013,0.0648575639495535,-0.405460113565945,-0.7460487606185365
266,13.4,-1.31,-9.99,0.455,-0.441,0.355,-0.0146,-0.42200000000000004,-0.264,-0.39299999999999996,13400000000.0,-1.1149062394171976,-10.004061992046097,0.6103499761599783,-0.43886592155711807,0.17657418146006895,-0.08791021613026673,-0.13755619416306294,-0.3443838859396908,-0.5839198829514677
267,13.4,-1.27,-9.86,-0.29,-0.429,0.0739,-0.0867,-0.374,-0.111,-0.898,13400000000.0,-1.1709740121735217,-9.940828845064567,0.23754272031174994,-0.43143699114510775,0.10768495270224944,-0.08704425279687866,-0.2358590374633975,-0.24361903603879037,-0.7281533821924939
268,13.5,-0.14800000000000002,-9.75,-0.795,-0.537,-0.213,-0.252,0.6920000000000001,0.0144,-1.16,13500000000.0,-0.8011597708955516,-9.85706851744397,-0.19000149925591936,-0.510924697271945,-0.10747857292674921,-0.20507739842202283,0.14990354789836288,-0.1322178162511575,-0.9264682077679889
269,13.5,-1.07,-9.98,-0.18899999999999997,-0.611,-0.14400000000000002,-0.307,-0.382,-0.195,-0.255,13500000000.0,-0.8983479337921996,-9.91102651791219,-0.18958680736161457,-0.5862802258597322,-0.13198261535773287,-0.27800754184272947,-0.07123833406990127,-0.1593243862462579,-0.6181130968326142
270,13.6,-0.441,-9.74,0.146,-0.604,-0.0238,-0.297,0.11599999999999999,0.0432,0.387,13600000000.0,-0.7330125762370296,-9.835957906882731,-0.05063062318473535,-0.5996229868330691,-0.0593975044798566,-0.2915974803141994,0.006607051722244628,-0.071883303768743,-0.15653985628441586
271,13.6,-0.922,-10.0,0.43799999999999994,-0.446,0.271,-0.297,-0.509,-0.261,0.937,13600000000.0,-0.8013332145700736,-9.907960750364921,0.1516963006391818,-0.4839466895011546,0.1622826553402043,-0.2954632159347602,-0.20775947227623873,-0.15353554078726717,0.34564117060053395
272,13.7,-2.43,-9.79,0.601,-0.102,0.332,-0.228,-2.15,-0.00765,1.23,13700000000.0,-1.3901108278737058,-9.85618433108828,0.33773916094635625,-0.19634531706025488,0.2761544764691215,-0.2471902971910655,-1.0152569008988417,-0.09054860984856263,0.7517610221978137
273,13.7,-2.1,-10.9,0.419,0.134,0.29,0.038,-1.86,-1.16,1.02,13700000000.0,-1.6467420694091472,-10.314345205152929,0.371386777328393,0.05240082909843252,0.2854441230239268,-0.04312400984642073,-1.3664635865239059,-0.5522904549128078,0.8749431063705604
274,13.8,-1.32,-12.8,0.912,0.325,0.0312,0.196,-1.02,-3.03,1.42,13800000000.0,-1.5286219120229705,-11.405371437972555,0.5952381011489282,0.25766479397256636,0.11485906225705808,0.1279798059143889,-1.222419399977163,-1.6220559532928556,1.125246936887228
275,13.8,-2.89,-11.7,2.35,1.19,-0.40399999999999997,0.532,-2.43,-1.91,2.58,13800000000.0,-2.0207722877316745,-11.534692395176062,1.321831043903612,0.9597022963693521,-0.23326936532177092,0.4170741518825857,-1.7244778327409112,-1.7463774562275296,1.793306139480971
276,13.9,-0.42100000000000004,-11.5,2.98,2.17,-0.935,0.784,0.368,-1.72,2.41,13900000000.0,-1.44244031892599,-11.51946489440223,2.008427864544078,1.8710423089895993,-0.7040954420193221,0.679625832042227,-0.8545184415731795,-1.7349888483970495,2.076507528153624
277,13.9,1.48,-10.2,0.23199999999999998,2.71,-0.737,0.37200000000000005,2.53,-0.655,-1.6,13900000000.0,-0.3859520353221846,-10.940313310805795,1.272863668891659,2.502767624990568,-0.7261727430991022,0.45950593131887785,0.552614064616356,-1.2686973676671525,0.38816268489133643
278,14.0,-0.838,-9.8,-0.6920000000000001,1.58,-0.495,0.397,0.33,-0.517,-3.62,14000000000.0,-0.5493714117917177,-10.439796732743972,0.45927401130053913,1.80793447413873,-0.5710674253616259,0.4147801797591418,0.46006102457227394,-0.9441476644466714,-1.4524864940023383
279,14.0,-3.19,-9.62,2.5,0.7390000000000001,-0.645,0.769,-1.86,-0.541,-0.965,14000000000.0,-1.5039822515646772,-10.079964064473584,1.3042759360868095,1.0030393872551158,-0.6206724635890558,0.6682401444813301,-0.5045173602414874,-0.7700863186239781,-1.2286204088801291
280,14.1,-0.225,-7.13,1.58,0.19699999999999998,-0.9,0.762,1.3,1.79,-2.19,14100000000.0,-1.041618742396368,-8.785139129385362,1.4184448163138743,0.39610119372731645,-0.8080872206347729,0.7353294909658242,0.24572082985271393,0.3352458268587306,-1.6701101511796446
281,14.1,0.73,-7.98,2.62,-0.43,-0.7440000000000001,0.643,2.43,0.9079999999999999,-1.17,14100000000.0,-0.4011627371296076,-8.431740167938726,1.9159718492772533,-0.22594330748822078,-0.7650879203940681,0.6692636558451088,1.153847169207578,0.5825357699466802,-1.4404469571506027
282,14.2,-0.32799999999999996,-8.4,2.85,-0.40700000000000003,-0.938,0.34600000000000003,1.44,0.518,-0.816,14200000000.0,-0.37471375748848934,-8.417808318084422,2.302724166320368,-0.36227687428127414,-0.8811032726610599,0.43795418324146174,1.2728168367740893,0.5546720787028979,-1.1536851836881992
283,14.2,0.079,-8.21,2.59,-0.503,-0.40700000000000003,0.214,1.83,0.765,-0.958,14200000000.0,-0.2106921805532885,-8.326595222894623,2.421676226136823,-0.4682397508694878,-0.5630037490584714,0.27770504770256516,1.5044688786898226,0.6454823761773346,-1.0638216219071568
284,14.3,-1.14,-9.5,5.14,-0.531,-0.18,0.0288,0.643,-0.44299999999999995,1.83,14300000000.0,-0.5466452521105156,-8.841636691225398,3.547250517348054,-0.5154974949525383,-0.3060274398624917,0.09960246214877616,1.1463083651471397,0.17552378260600915,0.2650941537375662
285,14.3,-4.34,-8.45,5.35,-0.302,-0.498,-0.0042,-2.64,0.6729999999999999,2.17,14300000000.0,-1.9179769285165453,-8.669735878587762,4.293713643999118,-0.35473637849504747,-0.4348314005862071,0.025327203359243697,-0.42787060999566595,0.3903120241770507,1.139874919386271
286,14.4,-2.63,-7.18,3.17,-0.6920000000000001,-0.426,0.419,-0.9,1.98,0.107,14400000000.0,-2.1753796695758525,-8.015847418513168,3.828418384921023,-0.6086919029435329,-0.4289059729090438,0.30701752426375906,-0.6241610410683346,1.0766690643466448,0.6655527487093663
287,14.4,-1.56,-10.9,4.7,-0.436,-0.255,0.294,0.325,-1.69,1.92,14400000000.0,-1.9529144021505265,-9.281785663328108,4.189313470913481,-0.47865692049638964,-0.31222378054122407,0.2977029089590907,-0.22954202153332454,-0.1178564246195839,1.2416264940918957
288,14.5,1.98,-10.4,2.22,-0.496,0.561,0.13,3.97,-1.17,-0.419,14500000000.0,-0.531130712535866,-9.772602275491574,3.373881287235444,-0.49171604955398873,0.2736655907040812,0.1777040469187707,1.5164411314120834,-0.57212551584673,0.4790249931210917
289,14.5,-0.215,-11.3,-0.20800000000000002,0.166,0.703,-0.191,1.78,-2.03,-2.72,14500000000.0,-0.41684663776436987,-10.443021622967626,1.890734307946412,0.003536405738861881,0.5617274610421134,-0.08612002765217155,1.626017196829775,-1.2015712935451193,-0.9900478491135436
290,14.6,0.326,-8.62,0.259,-0.9420000000000001,2.15,-0.365,2.42,0.735,-1.81,14600000000.0,-0.14830094175902936,-9.642844385961629,1.2150832721046414,-0.7084413807142864,1.6273787717443442,-0.2856710057965276,1.9561200305956943,-0.3654453649348077,-1.366590497125165
291,14.6,-3.16,-10.2,1.14,-0.741,0.728,-0.289,-1.13,-0.6829999999999999,-0.317,14600000000.0,-1.2370570809619938,-9.887396098129171,1.183993590350769,-0.7329576361028266,1.023940695707318,-0.2880530518258167,0.673048326889867,-0.5025514382175919,-0.8845921126586829
292,14.7,0.733,-9.75,0.486,-0.41100000000000003,1.23,-0.43700000000000006,2.6,-0.188,-0.64,14700000000.0,-0.5248638579389597,-9.827088956464099,0.8949758930253318,-0.4905273277536582,1.1621961710469473,-0.39463119445007633,1.47418924918765,-0.3667420220129563,-0.7722692490655578
293,14.7,-2.63,-11.0,-0.012,-0.594,2.22,-0.22399999999999998,-0.895,-1.41,-0.7290000000000001,14700000000.0,-1.2858894164303756,-10.341913710778067,0.5194250451049254,-0.5684410209634378,1.8719295272204177,-0.27253702281167413,0.48918554341986775,-0.8171747089890656,-0.7523989076634798
294,14.8,-1.71,-9.28,-1.4,-0.6629999999999999,1.51,-0.247,-0.0234,0.377,-1.66,14800000000.0,-1.4392091940728613,-9.875808795371274,-0.2753498763845861,-0.6396428121914834,1.6290929531388167,-0.2542641476496327,0.2760752300904581,-0.3015828292489138,-1.169192167560169
295,14.8,-1.77,-10.5,-0.752,-0.555,0.8340000000000001,-0.52,-0.271,-0.816,-0.601,14800000000.0,-1.5587930179377474,-10.149784460737314,-0.4727160354754456,-0.5759077741769594,1.0956254372491618,-0.44440990533386593,0.04862563678240972,-0.5236854288720284,-0.90826402203112
296,14.9,-1.45,-9.11,-0.6920000000000001,-0.9259999999999999,0.379,-0.46399999999999997,-0.183,0.603,-0.129,14900000000.0,-1.5194633875198613,-9.69339268299783,-0.5635147754098203,-0.8395231074634313,0.6148057018054971,-0.458427476124919,-0.04767401967289153,-0.03723244658886177,-0.5504063579297211
297,14.9,-1.22,-9.3,0.426,-0.904,0.35100000000000003,-0.49700000000000005,-0.182,0.39899999999999997,1.46,14900000000.0,-1.4112047086538142,-9.520721281961574,-0.1537871129749619,-0.8880734383755032,0.43780530896557424,-0.48602783157922785,-0.10352079758376656,0.15111344537261412,0.37282288168800204
298,15.0,-2.23,-9.96,0.22,-0.593,0.58,-0.387,-1.42,-0.284,1.61,15000000000.0,-1.7072065263402902,-9.713533498177672,0.0009866443378042378,-0.6658866011411543,0.5332108066212887,-0.4151690283912967,-0.6508543892580565,-0.03674932005348336,0.9409657734175204
299,15.0,-2.56,-9.88,1.35,-0.0846,1.02,-0.0812,-1.91,-0.218,2.92,15000000000.0,-2.0154989630027527,-9.786600535351136,0.5595716325016579,-0.22818461922153505,0.8598219377476386,-0.17619940026710207,-1.1743512227061141,-0.11500535332297795,1.8497881578804733
300,15.1,-2.59,-10.5,1.52,0.38299999999999995,1.21,0.166,-1.99,-0.847,3.01,15100000000.0,-2.2231861879341586,-10.09973229938361,0.9572554996804676,0.2320302100945824,1.0947738871831243,0.06865942151521706,-1.5134617789340146,-0.4310483018071191,2.382586645828592
301,15.1,-4.15,-15.2,2.88,0.975,0.983,0.624,-3.49,-5.45,4.13,15100000000.0,-2.9197466245730825,-12.338387977647676,1.7534049628332546,0.7914777532265636,1.0197791994710836,0.4660302096949813,-2.3352186301761453,-2.59800981404904,3.185042910926538
302,15.2,0.271,-14.2,3.58,2.61,0.39,1.34,1.38,-4.49,4.05,15200000000.0,-1.7662632228039827,-13.155503528841734,2.509741808783878,2.1608035664364236,0.5972289205646457,1.0913943251333618,-0.7905956565237606,-3.414887485097415,3.5822530736566365
303,15.2,5.04,-12.8,-5.1,3.35,-1.15,0.444,6.73,-3.2,-6.17,15200000000.0,0.6942617077533311,-12.999462779027562,-0.6412184036948263,3.0562544412840578,-0.5750740730460091,0.6281550176340566,2.336134161375795,-3.3221085838372946,-0.8962271369907584
304,15.3,-2.5,-10.9,2.16,2.29,0.479,0.11199999999999999,-0.805,-1.5,-0.244,15300000000.0,-0.4604924287556762,-12.07794736509143,0.5186800973795105,2.4792738183843737,0.13215678614619364,0.2588232453888794,1.0301900193938827,-2.5354026022326144,-0.5967080137001615
305,15.3,-2.24,-9.51,0.9359999999999999,1.96,-0.2,0.573,-0.325,-0.48200000000000004,-2.38,15300000000.0,-1.1038003126614608,-10.950800715073639,0.6914794413650506,2.088266761043162,-0.09070376691092061,0.4836306375460687,0.46676217563485756,-1.648834079697685,-1.4156406501044747
306,15.4,-0.239,-4.37,1.71,1.11,-0.319,0.249,1.8,4.33,-2.33,15400000000.0,-0.7911672731046464,-8.062295922731906,1.1132175235382833,1.3516433910707186,-0.24387909768201946,0.3157420235517785,1.021063256362598,0.932562284504497,-1.8355374523390797
307,15.4,-0.37799999999999995,-4.48,1.64,0.209,-0.524,0.171,1.68,4.04,-2.76,15400000000.0,-0.6418036105355087,-6.489922110885847,1.3313419542217277,0.4912463433740928,-0.4318261721147303,0.21217269805935546,1.2950198801872892,2.2742165799282748,-2.2600739280452062
308,15.5,-0.0694,-5.17,1.86,-0.527,0.0611,0.0673,1.97,3.36,-2.53,15500000000.0,-0.43487459210384416,-5.910569958889871,1.550243012373551,-0.27548120082140204,-0.10109742403607891,0.10850986593656398,1.5756466613094735,2.7430098430443364,-2.3840307639547733
309,15.5,-1.92,-5.14,4.02,-1.13,0.233,0.13,0.175,3.54,-0.0199,15500000000.0,-0.9717606757592272,-5.572344344347279,2.5728934827150174,-0.9189238161838579,0.12306519463369311,0.12388700520736953,0.9933199576167665,3.087114963512069,-1.2983623876114998
310,15.6,-2.75,-9.14,10.3,-0.978,0.9,0.00863,-0.489,-0.244,6.8,15600000000.0,-1.614610073598418,-7.138292276436203,5.772450933084344,-0.9634074775820711,0.6443494819584453,0.0414155134898441,0.3770371273780181,1.6488866973096803,2.420609627174169
311,15.6,-5.44,-10.3,5.08,-0.354,0.344,-0.0311,-3.09,-1.29,1.98,15600000000.0,-2.9975227186786553,-8.526057792978989,5.485728247635651,-0.5045308064296241,0.4428300452124787,-0.010472547513147551,-1.0644029613031751,0.3800052845716835,2.218270600473451
312,15.7,-0.0287,-6.29,-0.879,-0.83,1.24,0.409,2.4,2.76,-3.78,15700000000.0,-1.9242667900833552,-7.544587007205785,2.850289851385823,-0.7496052737931691,0.9776911257192671,0.28967864459030424,0.3759420333975416,1.407581845003257,-0.5362862840895994
313,15.7,1.38,-34.1,12.0,0.0559,2.1,-0.33899999999999997,4.03,-24.9,9.86,15700000000.0,-0.7297448355389691,-19.200529083551803,6.638903672951692,-0.14306926373565132,1.730704050209793,-0.16016875913656248,1.8951372074707724,-9.950869502242202,4.237950001008474
314,15.8,4.72,1.33,-3.92,-0.11,0.687,-0.529,7.57,10.4,-6.16,15800000000.0,1.24038652038753,-10.189083013775148,2.266786082862275,-0.11816849611194352,1.0304309422098437,-0.42408383560447194,4.2544933021220785,-1.1642633635186304,-0.5370503923818104
315,15.8,1.97,-13.7,-1.13,-1.03,2.97,-0.968,4.62,-4.37,-2.69,15800000000.0,1.5041483200634858,-11.730126460007817,0.8602813438768275,-0.8047668869963815,2.3317845602542038,-0.8132799365705561,4.40645471347402,-2.5483587570141295,-1.5257390902904253
316,15.9,-5.85,-10.4,0.982,-1.45,2.7,-0.11199999999999999,-3.3,-0.987,0.42200000000000004,15900000000.0,-1.1544419458358957,-11.146295121609192,0.9106812964598932,-1.2906198783490006,2.578838692095242,-0.3114830859678964,1.2024529783449585,-1.8742330251709807,-0.6312882596288338
317,15.9,-1.45,-7.92,-1.41,-1.08,1.45,-0.985,0.836,1.61,-1.15,15900000000.0,-1.2612888393947739,-9.730180435672263,-0.05024150502255498,-1.1320256161219462,1.8214445552256158,-0.7934142770782809,1.0500981085110053,-0.36989514005553237,-0.8694937411507342
318,16.0,-2.76,-9.79,-0.6609999999999999,-1.06,1.56,-0.237,-0.8390000000000001,-0.222,0.273,16000000000.0,-1.8030863060606301,-9.756436964706511,-0.30313783602209354,-1.077791130079231,1.646028327615835,-0.39527522168867374,0.2646949838305147,-0.3060405541580572,-0.3448318460583143
319,16.0,-1.85,-8.8,-0.792,-0.848,1.67,-0.594,-0.177,0.738,0.741,16000000000.0,-1.8200460340426532,-9.33662906035564,-0.505560634662207,-0.9047611006221404,1.6621120891886512,-0.5374715887772686,0.0810578174029401,0.1447300185443699,0.15380947763814762
320,16.1,-0.34700000000000003,-9.27,-0.146,-0.603,1.02,-1.03,0.856,0.263,1.83,16100000000.0,-1.2875267374407606,-9.307383829740123,-0.35667762348747134,-0.677538525085565,1.2312870563831284,-0.8898974597559262,0.4032443772679865,0.1957937760415261,0.9235583921139614
321,16.1,-2.41,-10.1,0.613,-0.727,1.14,-0.7959999999999999,-1.76,-0.579,2.92,16100000000.0,-1.6933108781165878,-9.655286276185874,0.04483607421475161,-0.7147824333056582,1.1700380085643216,-0.8227096714761127,-0.4961365972917709,-0.13872794265717076,1.8403746843937534
322,16.2,-4.43,-12.3,1.93,-0.452,1.24,-0.33899999999999997,-4.21,-2.89,4.53,16200000000.0,-2.682648376023139,-10.816128096878257,0.8254245071181066,-0.5169103416371668,1.216979003721165,-0.47659396932726517,-2.040196145368302,-1.3266057048616182,3.0755184511121563
323,16.2,-2.45,-12.8,4.85,0.278,1.29,0.17600000000000002,-2.46,-3.4,7.56,16200000000.0,-2.598543927458463,-11.686907231356416,2.4918775126558446,0.08164780676937766,1.2659724057733301,-0.009634082712106806,-2.2147319675081003,-2.2218057954080153,5.134905272459044
324,16.3,-5.22,-12.3,2.46,1.75,1.4,0.845,-5.25,-2.74,4.76,16300000000.0,-3.546223635047626,-11.95601155424872,2.4786780299881648,1.337897412489172,1.35589818612368,0.601894474186941,-3.4766616698725414,-2.4455391620713103,4.962739436244986
325,16.3,0.321,-12.8,4.13,3.08,-0.0336,1.64,0.818,-3.1,5.31,16300000000.0,-2.148187747811111,-12.326462702114872,3.162439763572942,2.649680141411533,0.42361456555159904,1.344704943545759,-1.6911319939853895,-2.728106395147008,5.122210204952654
326,16.4,1.78,-17.1,-4.31,2.11,-0.701,0.623,2.95,-7.36,-4.69,16400000000.0,-0.7281128031937711,-14.421707159506763,0.0683320932231326,2.2433072547993653,-0.33094540953767626,0.8282931118155681,0.238444673802086,-4.727953463787062,0.6161961786374883
327,16.4,-1.56,-14.5,0.821,2.19,0.205,1.0,-0.0353,-4.91,-0.69,16400000000.0,-1.028847434051856,-14.456072163224318,0.37998873725579785,2.2031675611470005,0.028647089816659088,0.9511569949088656,0.12463379023844323,-4.8065530490135995,0.016358004153332883
328,16.5,-1.89,-8.59,-0.0551,1.5,-0.32799999999999996,1.21,0.18600000000000003,0.682,-2.48,16500000000.0,-1.3401617727490742,-11.881282627131498,0.19983185992468522,1.6736906467220378,-0.21064523327836535,1.1363706560507578,0.15014713784290734,-2.4368383472200237,-1.13003245903607
329,16.5,0.6679999999999999,-3.4,-0.0599,1.03,-1.44,0.665,3.11,5.58,-3.13,16500000000.0,-0.6141933624557308,-8.158601167402242,0.09228487744675243,1.1889991287243817,-1.0354806873051254,0.7990840908195951,1.3807225166954549,1.0244782160403152,-2.0484679660871628
330,16.6,1.0,-2.97,-0.546,0.308,-1.83,0.21899999999999997,3.33,5.83,-4.2,16600000000.0,-0.030648044958194953,-5.881173291491877,-0.17200927875773922,0.5256171313938643,-1.5685633422511907,0.38400823062671074,2.191145527685731,3.0992901705453044,-3.036505564588089
331,16.6,1.4,-3.43,-0.354,-0.743,-0.452,0.14300000000000002,3.57,5.37,-4.1,16600000000.0,0.4865439923324737,-4.805282105915891,-0.24736604512799248,-0.4296366459852622,-0.8194053124386117,0.21155617255765927,2.764411977627552,4.07968230037499,-3.524888944591801
332,16.7,-2.46,-7.65,5.08,-1.63,-0.23,0.10800000000000001,-0.278,1.34,1.82,16700000000.0,-0.5786579913820102,-6.053911529334812,1.9585325040322017,-1.3334961489905663,-0.4239439000120032,0.13745714677568688,1.4995121412084484,2.8968085428718586,-1.070381331498374
333,16.7,-6.72,-16.3,12.2,0.265,-0.153,0.0233,-4.57,-7.19,9.45,16700000000.0,-2.798807902291797,-10.551217284856772,6.199209416797277,-0.1298473348545781,-0.2421541247659741,0.055772652104928,-1.0239216328391725,-1.458229752531258,3.7608425941865535
334,16.8,-2.54,-6.62,2.45,0.774,-1.71,0.7909999999999999,-0.304,2.37,-0.775,16800000000.0,-2.705246520311844,-8.82569168519412,4.646777022212703,0.5507390838113894,-1.2270051432234161,0.5818603875969204,-0.7246101735331644,0.1946306653146852,1.677869472226151
335,16.8,2.71,-10.6,-0.6609999999999999,-0.892,0.88,-0.42200000000000004,5.0,-1.71,-4.07,16800000000.0,-0.7475865238193531,-9.604487352326286,2.4489896483936566,-0.5356265151962426,0.18668967146105886,-0.13644617246423763,1.655428602320295,-0.6277047215290961,-0.9616970010520398
336,16.9,2.01,-15.0,3.21,0.48,1.12,-0.0958,4.43,-5.93,0.311,16900000000.0,0.2493056301391231,-11.972734704540349,2.7641006665728862,0.229128313533966,0.812894114253944,-0.10736203409287826,2.808972145742962,-2.917001481207148,-0.37724249615543526
337,16.9,3.19,-5.02,-2.51,-1.3,1.44,-0.5479999999999999,5.61,4.06,-5.31,16900000000.0,1.3123929299801755,-8.920977313712157,0.5802576462993772,-0.9222873101357466,1.233650762469634,-0.4226579980880526,3.9735152361997748,0.09535947389871291,-2.6424889237198768
338,17.0,-1.33,-12.9,-1.8,-1.31,2.47,-1.23,0.88,-3.57,-3.75,17000000000.0,0.3571442700701013,-10.667485876128202,-0.40533388507479806,-1.2142303686024318,2.0631791365501546,-1.0003469698671967,2.687368930336352,-1.4871807742002987,-3.151085897355499
339,17.0,-4.54,-10.4,0.8640000000000001,-1.99,1.83,-0.6579999999999999,-2.62,-0.871,-0.0782,17000000000.0,-1.4132171080124336,-10.550078381664619,0.12025828210577616,-1.798375796352889,1.9067276549908512,-0.7553825455203662,0.48080058827046335,-1.221141136666993,-1.7399393161214325
340,17.1,-0.235,-7.57,-0.405,-1.65,1.02,-0.81,1.35,2.11,-0.321,17100000000.0,-0.987281100149051,-9.242035422433695,-0.09723503294701538,-1.6866505465079749,1.311777841161185,-0.7944637548179323,0.8421751269550886,0.21709838347052068,-1.0883266573981798
341,17.1,-0.0646,-9.17,-1.04,-1.28,0.929,-0.601,1.16,0.522,-0.165,17100000000.0,-0.6537236410159694,-9.210417014897418,-0.48760502086208224,-1.3804474397953896,1.0549531134767645,-0.6560318779224051,0.9743125859968391,0.3487414366241229,-0.664311809734109
342,17.2,-0.991,-9.27,0.225,-0.87,1.4,-0.932,-0.175,0.396,1.69,17200000000.0,-0.775652055924412,-9.236569920101827,-0.19253718101555634,-0.9960865167269536,1.2864622596544908,-0.8534992781069723,0.49647943574976133,0.36914559537269853,0.4168474817370915
343,17.2,-3.43,-9.12,0.273,-1.07,0.7190000000000001,-0.975,-3.2,0.494,2.22,17200000000.0,-1.7352225688237628,-9.18540394317239,0.00022746147333099764,-1.0517425409698036,0.905723520589622,-0.9404384427355055,-1.0403526345619472,0.4230522056896875,1.2449005350964293
344,17.3,-2.79,-11.7,1.1,-0.36700000000000005,0.753,-0.7070000000000001,-3.01,-2.21,3.41,17300000000.0,-2.1165340170185982,-10.289133169778905,0.455609485897284,-0.5361394605585195,0.8032537090372307,-0.773402910661617,-1.8592445660118535,-0.7137834189697125,2.239168766545495
345,17.3,-2.38,-12.5,2.48,-0.133,0.759,-0.21,-2.97,-2.99,4.89,17300000000.0,-2.2117793643518615,-11.25954689293577,1.2938474005048968,-0.23258018285665577,0.7735616911413248,-0.3702631712636317,-2.321047377266608,-1.6965531743570217,3.456497156232607
346,17.4,-5.9,-14.6,1.98,1.21,0.8909999999999999,0.6890000000000001,-6.58,-5.09,4.22,17400000000.0,-3.545104099504525,-12.725769038263447,1.5779621158553394,0.8536657796015057,0.8523568904623533,0.38768654819243237,-4.091730777144228,-3.161693649361193,3.807116790935185
347,17.4,1.54,-13.0,7.59,2.78,-0.14800000000000002,1.97,1.4,-3.25,8.89,17400000000.0,-1.7067935643413112,-12.846136979446518,4.067362329827642,2.3041728000841086,0.18116756787062938,1.519901921324024,-1.808512925938198,-3.1998204299918656,6.141304906479357
348,17.5,1.36,-17.4,-4.14,2.55,-1.0,0.9990000000000001,2.03,-7.64,-4.34,17500000000.0,-0.5981202949703917,-14.844959675563537,0.6689458389774763,2.489277758329697,-0.6113366531663279,1.1471735359952873,-0.21262966746024015,-5.116893733456219,1.3280257014549308
349,17.5,-1.65,-14.9,0.268,2.24,0.39,1.07,-0.532,-5.27,-1.18,17500000000.0,-0.9783841944539621,-14.869118306579477,0.5029264900270904,2.301574541403139,0.060510030202299614,1.0919524906417095,-0.34540967600997674,-5.1829982465320885,0.1762771707154227
350,17.6,-2.21,-10.2,-0.16,1.5,-0.507,1.47,-0.509,-0.84,-2.54,17600000000.0,-1.4236243219746474,-12.81970646372041,0.22842900229737817,1.697998326693467,-0.3202607678636841,1.3624622471214995,-0.413423271799438,-3.3078834758842,-1.0711056851022094
351,17.6,1.23,-3.7,-1.06,1.21,-1.68,1.01,3.41,5.34,-4.16,17600000000.0,-0.4643154221658179,-8.816802201775921,-0.3050698331999717,1.3305413472463676,-1.2325775878655585,1.1102598925465101,1.1761864259465271,0.42589059174715294,-2.489603663567755
352,17.7,1.05,-1.98,-0.42100000000000004,0.45399999999999996,-2.2,0.431,3.22,6.82,-4.18,17700000000.0,0.08312311063126687,-5.815930973390005,-0.3530729545659488,0.6705160053937783,-1.8816695573597795,0.6242193521041739,2.0259133903162496,3.186584602068268,-3.2658761470316353
353,17.7,0.242,-3.23,-0.165,-0.456,-1.07,0.293,2.2,5.52,-4.14,17700000000.0,0.1405585246534433,-4.6808907028035005,-0.2751977258736916,-0.17773731525076675,-1.3370800120457678,0.38721724559040654,2.0982908941695055,4.194050267067326,-3.667295769660268
354,17.8,-0.972,-5.56,2.33,-1.38,-0.6809999999999999,0.20800000000000002,0.9690000000000001,3.3,-1.38,17800000000.0,-0.2616413197228993,-5.066757304520728,0.803534568679232,-1.0830269919903834,-0.8968832122332431,0.2589793722233418,1.6287818657829227,3.808038842331621,-2.6169119553590594
355,17.8,-4.08,-14.8,12.5,-0.565,-0.743,-0.305,-2.26,-5.72,9.3,17800000000.0,-1.6420120582637758,-9.338960559140354,5.646681496484479,-0.692958749759647,-0.793635272135254,-0.14457285137902814,0.011999005791437645,-0.3057472688016274,2.855634172975976
356,17.9,-7.3,-11.6,4.36,0.8759999999999999,-1.92,0.748,-5.66,-2.52,0.925,17900000000.0,-3.6874253017782617,-10.331396667095875,5.113906281038123,0.48844875076683425,-1.5493695062360104,0.49410257269562846,-2.3461663186587707,-1.2617637591825228,1.9690383523651587
357,17.9,7.81,-9.96,1.11,-0.7609999999999999,0.271,0.0618,9.57,-1.04,-2.57,17900000000.0,0.4689966119710385,-10.168379889902573,3.4560117274389115,-0.4523714661708408,-0.3279928319346377,0.1847709355261885,2.6080465118880127,-1.1660159495239626,-0.11540232251304827
358,18.0,5.23,-15.2,5.89,0.945,1.2,-0.25,7.1,-6.13,2.58,18000000000.0,2.190141865955839,-12.376904145056638,4.463851424581268,0.5998328295159937,0.6972137854422729,-0.12632692408604135,4.475601319984259,-3.3092449918387086,1.1223942598580687
359,18.0,-0.613,-4.45,-5.4,-1.54,1.73,-0.706,1.16,4.57,-8.82,18000000000.0,1.176781054286887,-8.897555391683525,0.3795336051789464,-1.0114361287836435,1.3901615701982837,-0.5411086614534428,3.0971214677211627,0.0926649468111238,-3.443403396115469
360,18.1,-2.0,-13.2,-2.11,-1.58,1.85,-1.04,-0.381,-3.81,-4.52,18100000000.0,0.028346330132309028,-10.786023321487924,-0.6513057192581033,-1.4395580780054993,1.6986901189160675,-0.8980874819112422,1.651072961655761,-1.5923333239141642,-3.93780365683381
361,18.1,-2.4,-10.1,1.7,-1.95,0.848,-0.598,-1.0,-0.47,0.21899999999999997,18100000000.0,-0.8495225911637385,-10.484907909969673,0.32229774824764645,-1.8239148857304817,1.1279196911548304,-0.6833615910896115,0.5488745140603093,-1.1077593813690334,-2.028894749730982
362,18.2,0.37799999999999995,-7.57,0.0335,-1.71,0.513,-0.898,1.41,2.17,-0.488,18200000000.0,-0.4057622141798139,-9.205470165314726,0.2027154751794239,-1.7381383434973323,0.7153394146340397,-0.8369448799889827,0.9068922490399501,0.3074323335913727,-1.3212770830549148
363,18.2,-0.151,-8.22,-1.75,-1.72,0.619,-0.5770000000000001,0.53,1.56,-1.42,18200000000.0,-0.3136633958768579,-8.772918778690041,-0.6058440003325789,-1.724480405432576,0.650700509160861,-0.6509428215485319,0.7501971714826383,0.8482356859565668,-1.3666131126761998
364,18.3,1.03,-9.71,0.795,-1.17,0.885,-1.06,1.35,0.0262,1.89,18300000000.0,0.1720829121543873,-9.18423098504269,-0.025797537816956262,-1.306963140527275,0.8079037146752676,-0.943641308212763,0.9995685702693229,0.4933169962493549,0.12890562443368636
365,18.3,-3.67,-9.33,1.55,-1.2,0.597,-0.9079999999999999,-3.96,0.327,3.22,18300000000.0,-1.2168644032620772,-9.248213209822278,0.6266917819689645,-1.2264211879608387,0.6663978975569825,-0.9181383682362457,-1.0623998855235532,0.42150866213460275,1.5484140093670387
366,18.4,-3.7,-12.2,1.13,-0.40700000000000003,0.586,-0.6509999999999999,-4.36,-2.59,3.2,18400000000.0,-2.1145401165415714,-10.543838158722268,0.8350962474987673,-0.6094066619622144,0.6124549559447178,-0.7269890510502792,-2.4333956773013288,-0.878727685823703,2.306863905514397
367,18.4,-1.97,-12.8,2.2,0.0547,0.682,-0.205,-2.97,-3.32,4.36,18400000000.0,-2.062287583812346,-11.53413326270714,1.400260970588022,-0.10934214707326173,0.6591161814365829,-0.3534827657634938,-2.656491944940919,-1.9327611813058798,3.2497157598992334
368,18.5,-4.71,-14.4,2.33,1.65,0.742,1.1,-5.71,-4.81,4.19,18500000000.0,-3.0194592837729526,-12.792045318923664,1.785237302189594,1.2154218072065985,0.7147270574930089,0.6865485424061413,-3.9260050548139303,-3.175025755565903,3.6815179858245255
369,18.5,5.81,-14.5,5.2,3.29,-0.8190000000000001,1.86,5.54,-4.76,5.9,18500000000.0,0.1724690858565725,-13.541716279829409,3.1991855280392185,2.7775547905084115,-0.31432690959803167,1.5262050406602707,0.00953960397386755,-3.8593477053711265,4.700300832464795
370,18.6,0.565,-18.3,0.735,2.63,-0.0874,0.773,0.948,-8.58,-0.113,18600000000.0,0.31437251629917284,-15.630264996216258,2.178842025939381,2.666447852546496,-0.16207032794300452,0.987253477300612,0.39970978104258675,-5.897516764109896,2.4899118909732088
371,18.6,-2.56,-12.4,0.304,2.17,0.166,1.11,-1.72,-2.87,-1.79,18600000000.0,-0.7247387997624191,-14.212407615981604,1.4025275488259565,2.2926285081009645,0.05804841029276453,1.0750840607564696,-0.48157145691059017,-4.590368738524536,0.5244685988971971
372,18.7,-1.97,-8.14,-0.35,1.44,-0.589,1.58,-0.524,1.08,-3.35,18700000000.0,-1.1749118558886462,-11.547051535083504,0.6768597447392095,1.650609299213186,-0.3760886247391358,1.436373807835644,-0.49921135702468805,-2.142154028472145,-1.2547848980162428
373,18.7,1.2,-2.45,-1.11,0.941,-1.85,1.09,3.1,6.46,-4.74,18700000000.0,-0.3163599915132168,-7.554091179911634,-0.06302397511179936,1.1162818201967188,-1.365009280026999,1.1885280319238258,0.9971809047292195,1.5718760347870142,-2.855283326332782
374,18.8,0.38299999999999995,-2.48,-0.6940000000000001,0.149,-2.38,0.7,2.24,6.22,-4.84,18800000000.0,-0.06353511324616357,-5.3269250622066275,-0.3242917608469376,0.38792997384762473,-2.0460172440680133,0.8389645805014889,1.5138899156744614,3.5787305077047287,-3.7667152686185963
375,18.8,0.40700000000000003,-4.82,-0.6970000000000001,-0.9179999999999999,-1.28,0.866,2.18,3.87,-4.87,18800000000.0,0.10656753461509524,-5.104420991101762,-0.47861880121198597,-0.5954199446141084,-1.5320580578374474,0.8583096181156644,1.7908289456709892,3.7044877561194887,-4.273371345702147
376,18.9,0.261,-7.79,2.63,-1.93,-0.551,0.371,2.18,1.1,-1.03,18900000000.0,0.16239625281824197,-6.283199672935754,0.8085647705656954,-1.6003430113921049,-0.8738172850435196,0.5096179984640654,1.952629021230699,2.5799850255062706,-2.783933541709966
377,18.9,-4.61,-15.7,16.8,-0.306,-0.618,-0.256,-2.79,-6.55,13.8,18900000000.0,-1.5628676649132702,-10.416507005429237,7.430126400646788,-0.6257179223291203,-0.7021766924827932,-0.03821559601771263,-0.01914556901343034,-1.3619392073804852,4.83182641585618
378,19.0,-4.33,-12.4,3.19,0.8340000000000001,-1.16,0.79,-2.57,-3.39,-0.165,19000000000.0,-2.5632106907688197,-11.287119574772017,5.674420371825358,0.4734325214717525,-1.0093531567823486,0.5544093585050203,-1.0796775728326329,-2.237566298593899,2.537157901336676
379,19.0,-0.127,-17.3,6.79,0.446,1.07,-0.402,1.76,-8.29,3.29,19000000000.0,-1.682498768804518,-13.926347256971262,6.136347600686893,0.45277616237528806,0.38578859970509694,-0.12994390236583853,0.10093429534528164,-4.85073974412148,2.882881932278446
380,19.1,4.58,0.5820000000000001,-1.28,0.45899999999999996,-0.5820000000000001,-0.359,6.57,9.36,-5.17,19100000000.0,0.5814504412760728,-7.558211871023808,3.0654659595496794,0.4574626325410936,-0.2635490428147129,-0.2938436828398686,2.7904847035751095,1.2848296663961305,-0.8152042596548155
381,19.1,2.75,-13.2,1.28,-1.67,2.31,-0.767,4.82,-4.17,-1.94,19100000000.0,1.365400474888852,-10.034556607654896,2.326159357394316,-1.144491709141193,1.463173303452936,-0.6324079970216283,3.6342671383288243,-1.070324809728437,-1.331738812538383
382,19.2,-5.45,-13.2,-0.00718,-1.56,1.99,-0.779,-3.54,-3.9,-2.39,19200000000.0,-1.098427598743502,-11.423961650386028,1.3599952279343976,-1.4573645286810102,1.8166476111492533,-0.7373010561961748,0.6515253674207719,-2.292053576585457,-1.8177190452785834
383,19.2,-1.76,-8.43,-0.0982,-2.23,0.743,-1.17,-0.124,1.15,-1.45,19200000000.0,-1.337591927102767,-10.109824979520752,0.7562013909190574,-2.0391499778859163,1.0962838711190614,-1.0469162832583399,0.3290963486152945,-0.8059269302555634,-1.6488532223260632
384,19.3,-0.7709999999999999,-7.32,-1.37,-2.21,0.28,-0.523,0.429,2.41,-1.59,19300000000.0,-1.1327638950069907,-8.885289769284022,-0.12419327342493891,-2.1677980665275247,0.548598318215056,-0.6720309806172333,0.37063184774482383,0.5825682683297373,-1.6218263560232709
385,19.3,1.54,-8.45,0.42100000000000004,-1.72,0.613,-1.04,2.41,1.28,1.25,19300000000.0,-0.1665358892899298,-8.694228351662371,0.10155451005951657,-1.8306114036285017,0.5918086016431637,-0.9353290833931327,1.2185106268674575,0.8836884635941602,-0.3030113800265688
386,19.4,-2.31,-9.13,1.66,-0.9279999999999999,0.631,-1.17,-2.03,0.557,3.16,19400000000.0,-0.9414172887123944,-8.885501246521565,0.7468588859343257,-1.1509555982938573,0.6181040532698913,-1.103246486681392,-0.1320758678023235,0.7426388108234045,1.2872906845958354
387,19.4,-3.38,-10.6,0.515,-0.885,0.774,-0.35700000000000004,-3.55,-0.953,2.43,19400000000.0,-1.8229867601162986,-9.638044758483291,0.6508532398720565,-0.950694149403266,0.722702410433809,-0.5692740707342231,-1.5530969692349756,0.010536885572599464,1.8120516065943302
388,19.5,-1.76,-12.0,0.457,-0.0162,0.503,-0.616,-2.16,-2.46,2.57,19500000000.0,-1.8002164803281258,-10.674775577598655,0.5705845647032087,-0.2470310314052936,0.5752931217354439,-0.6027085401450674,-1.8054203426870774,-1.056131804156248,2.1601205635210348
389,19.5,-2.78,-12.9,2.08,0.295,0.9740000000000001,0.0153,-3.45,-3.29,4.17,19500000000.0,-2.1544169631628405,-11.651491097910057,1.195587083768595,0.16111195889402036,0.8428054328055655,-0.16049605909361592,-2.4891635757145703,-2.0206173772801437,3.0831078450586062
390,19.6,-4.34,-12.6,1.67,1.89,0.8340000000000001,1.21,-4.88,-2.93,3.31,19600000000.0,-2.9445248064078564,-12.067819396261678,1.3920268769183524,1.4629443362630523,0.8368974230883951,0.8201545953537759,-3.4831672714079662,-2.413248644003399,3.187302409532215
391,19.6,5.19,-14.1,-4.07,2.84,-1.11,1.38,5.42,-4.34,-3.71,19600000000.0,-0.0038214156963447543,-12.959802707525666,-0.8696306875182709,2.499851012094567,-0.4693731510706344,1.220748773538582,0.2183744708421953,-3.2451348171518006,0.019887449745449537
392,19.7,1.78,-18.2,2.08,2.63,0.217,0.526,2.53,-8.51,1.13,19700000000.0,0.6410459477169462,-15.259877970098096,0.3517207127652493,2.597851757483216,-0.008851182415813452,0.723625273242894,1.179445733299752,-5.5182710882234804,0.5296790835461421
393,19.7,-1.26,-12.2,0.431,1.94,-0.145,1.18,-0.151,-2.7,-1.6,19700000000.0,-0.04619913789354013,-13.916808492610233,0.38454782715731967,2.1024971540425113,-0.10020021049028827,1.0501815647431287,0.6263054631367017,-4.301466170534854,-0.4483231884226385
394,19.8,-1.19,-8.26,-0.0479,1.32,-0.302,1.11,0.45899999999999996,0.968,-2.93,19800000000.0,-0.4596933859476701,-11.433870898471994,0.20548447065416606,1.5132860274360043,-0.23559774288288451,1.09298431465909,0.5567472752365904,-2.026343497347878,-1.587971700202592
395,19.8,0.19399999999999998,-4.68,-0.309,0.8740000000000001,-1.3,0.8109999999999999,2.17,4.28,-3.76,19800000000.0,-0.22337738647681551,-8.469400546255375,-0.00754773361700059,1.0319111672634658,-0.9497582623574794,0.8912120414227463,1.2274661723105813,0.6964570868119582,-2.585421783309589
396,19.9,0.754,-3.12,-0.496,-0.0339,-1.39,0.631,2.79,5.67,-4.34,19900000000.0,0.12995327099113094,-6.121393085631908,-0.20980080467878837,0.22936787677966697,-1.2451383875080981,0.705018788824883,1.8770983559806553,2.8438132072433016,-3.3911683512073543
397,19.9,1.93,-4.09,-0.522,-1.03,-0.721,0.433,3.98,4.74,-4.28,19900000000.0,0.7806862214622482,-5.2297556733719155,-0.3390729043701584,-0.7189213208719856,-0.8934678173569393,0.5103772969907642,2.75139151276318,3.662502787694773,-3.799342321686953
398,20.0,-0.19399999999999998,-8.22,3.37,-1.75,-0.145,0.0196,1.9,0.8140000000000001,0.18,20000000000.0,0.42832844504478207,-6.542260953931978,1.1967401660852117,-1.4953114556267049,-0.391283433017963,0.15920440549330928,2.397420707917474,2.432645141821175,-1.9719281234419481
399,20.0,-5.76,-13.7,11.7,-0.44,-0.42200000000000004,-0.29,-3.79,-4.41,9.14,20000000000.0,-1.8088076408772968,-9.684000617778574,5.545817241676891,-0.7006743230014945,-0.4118927034307121,-0.16222123514253356,-0.17503412658911266,-0.5217066409306517,3.130949229653356
400,20.1,-6.89,-10.1,4.05,0.799,-0.772,1.13,-4.89,-0.965,1.25,20100000000.0,-3.645704012479075,-9.866595007453116,4.926445364132639,0.42856284632782193,-0.6535066556209276,0.7624202854051734,-2.13530756837847,-0.7131011163459781,2.2671699806212793
401,20.1,4.9,-8.23,-0.836,-0.76,0.235,-0.289,7.26,0.809,-3.82,20100000000.0,-0.5563556525857605,-9.148245680848111,2.540393795971764,-0.4664110094026461,-0.05736323475469418,0.010082502393490622,1.7708443250624777,-0.05592509760457853,-0.5282117202963819
402,20.2,0.599,-24.0,7.19,1.28,1.04,-0.025,2.93,-14.9,4.59,20200000000.0,-0.13868427353316082,-15.667112401924186,4.465652876323515,0.84861594650457,0.6789124546379899,-0.01502058207819765,2.252769823717681,-6.464940630808748,1.822200049595882
403,20.2,4.42,-0.373,-2.41,-0.8370000000000001,0.618,-0.5529999999999999,6.74,8.71,-5.29,20200000000.0,1.509320834258789,-8.954081856895915,1.6186562587691156,-0.42063307199289035,0.6380432318629539,-0.39996866266031306,4.1183608329291586,0.08692828669678399,-1.44390128264871
404,20.3,0.8640000000000001,-14.3,-1.86,-1.15,2.46,-1.12,3.01,-5.03,-4.08,20300000000.0,1.2760315971723548,-11.30056082302813,0.1782515877378712,-0.9698377839838228,1.8604849063580722,-0.9151829768656505,3.657553598420412,-2.1223353605697453,-2.654464156249836
405,20.3,-4.21,-10.1,0.802,-1.91,1.16,-0.585,-2.32,-0.618,-0.556,20300000000.0,-0.7072178368134323,-10.773599944135649,0.4365266330784044,-1.6777688647492446,1.3904946301139356,-0.6789224183386262,1.172352203245305,-1.4728298042706376,-1.690796573216323
406,20.4,-0.0527,-7.42,0.124,-1.83,0.19399999999999998,-1.15,1.44,2.26,-0.243,20400000000.0,-0.4706037936910388,-9.301607470755789,0.3071189567548578,-1.7923971538631287,0.5877067225623981,-1.015999274158443,1.2836282991583432,0.1388411761957784,-1.0259319312415593
407,20.4,-1.59,-8.47,0.172,-1.51,0.374,-0.769,-0.563,1.27,0.6459999999999999,20400000000.0,-0.8752755320881422,-8.936590893664139,0.2511703510971922,-1.5797554067446669,0.44432023439728535,-0.8392603498972634,0.5158822205668884,0.6272255709130214,-0.25813867604780116
408,20.5,-1.92,-9.25,-0.354,-1.21,0.142,-0.833,-1.3,0.46299999999999997,0.813,20500000000.0,-1.2529527425522886,-9.074155261446633,0.000587903406711221,-1.3013339571860123,0.24147851684811883,-0.8347807953566223,-0.23908097392703065,0.5563202250456728,0.23375518626474756
409,20.5,-1.64,-9.2,2.59,-0.831,0.174,-0.924,-1.43,0.46299999999999997,4.26,20500000000.0,-1.392873777813259,-9.129392091869084,1.0727838499842899,-0.9471779895140684,0.1962038116716496,-0.8986211053835685,-0.7342122143426417,0.5160286747645991,2.0827082916985598
410,20.6,-1.81,-9.85,-0.397,-0.48,0.5529999999999999,-0.5589999999999999,-1.99,-0.258,1.61,20600000000.0,-1.543668611959688,-9.445688018738243,0.4641915148914362,-0.5953984426129768,0.435596148398033,-0.6556071741760466,-1.2563130310277395,0.1818372972138499,1.8656287478060296
411,20.6,-1.65,-12.5,-0.263,-0.193,0.182,-0.431,-2.09,-2.91,1.83,20600000000.0,-1.5821083498029507,-10.786314338199755,0.1630838488723499,-0.2923971445156768,0.26544584420778283,-0.4948907895003587,-1.60292302693122,-1.1530814803859037,1.8492671493804658
412,20.7,-3.99,-14.2,1.36,0.332,0.6729999999999999,0.171,-4.58,-4.67,3.48,20700000000.0,-2.4525826905853796,-12.284680129563034,0.6586900543105643,0.1777665618761139,0.538894235586804,-0.018416435746494486,-2.840659438360693,-2.6715315446465357,2.598140745407804
413,20.7,-5.16,-13.3,3.14,1.9,0.41100000000000003,1.53,-5.5,-3.63,4.83,20700000000.0,-3.4313381737421,-12.730333620442483,1.6861243009236224,1.4745880941808203,0.4530836243536435,1.0895440802101553,-3.9462951870033076,-3.0853559257651173,3.6230666788584878
414,20.8,5.74,-12.7,1.09,3.39,-1.13,1.39,6.25,-2.95,1.61,20800000000.0,-0.11581759399652691,-12.71701922889263,1.4392875593538395,2.91687084060902,-0.6090861176056159,1.304533587250291,0.2928717046242144,-3.026915237939731,2.698615776970043
415,20.8,-0.0551,-18.0,1.81,2.77,-0.133,0.138,0.841,-8.33,0.723,20800000000.0,-0.09386764197926206,-15.035873069105044,1.5927881661337124,2.806278808353172,-0.28965620181431123,0.4698271393696022,0.520759125145632,-5.316552902925935,1.7913632610841557
416,20.9,-1.92,-12.2,0.129,2.37,-0.0434,0.624,-0.867,-2.73,-2.2,20900000000.0,-0.7540307837663798,-13.791125854634856,0.9866784627960539,2.477765903843105,-0.12443063680206398,0.5801446584089673,-0.05620950515085876,-4.199793647460367,-0.041571273835254274
417,20.9,-0.496,-8.55,0.74,1.4,-0.674,0.9790000000000001,0.94,0.594,-2.49,20900000000.0,-0.6607503479341,-11.490643437731634,0.8845364952013465,1.66622081929434,-0.4931641438714217,0.8655433001323531,0.3579701810783279,-2.1300453590030513,-1.1659514013214962
418,21.0,0.182,-4.53,-0.764,1.2,-1.42,0.47200000000000003,1.76,4.31,-4.69,21000000000.0,-0.3560885715706344,-8.435414774456532,0.20192818912272226,1.3151620543101392,-1.1150245082766856,0.5839456415913633,0.940871935099262,0.6504816664762876,-2.7842832805428666
419,21.0,1.18,-2.77,-0.524,0.0907,-1.43,0.306,1.61,4.12,-5.14,21000000000.0,0.19922114747669267,-5.948699524190802,-0.09865636323498189,0.3931565098403106,-1.3263572369558372,0.3850632212127157,1.2190656856336097,2.1484663422800994,-3.8660876543446085
420,21.1,1.81,-1.98,0.634,-0.882,-0.867,0.305,3.11,6.72,-3.69,21100000000.0,0.7815320684516742,-4.206721938654109,0.20471412520355264,-0.5670213865045632,-1.018151549632315,0.3277744456931508,2.0052321851299806,4.122252504356064,-3.785223795815162
421,21.1,0.48100000000000004,-7.27,6.13,-1.77,-0.0379,-0.35200000000000004,1.73,1.7,2.36,21100000000.0,0.6728870437820824,-5.551283722942565,2.658192982012515,-1.4728501384094814,-0.3604519045940653,-0.1586342748550948,1.890802868946116,3.0764309141807726,-0.963182338668835
422,21.2,-5.62,-21.1,14.3,0.145,-0.971,-0.22399999999999998,-4.64,-11.9,11.0,21200000000.0,-1.602047785321573,-12.376067475930345,7.478707619369747,-0.2546279899352266,-0.7700990777704495,-0.2054063510771269,-0.8244149846014566,-3.389730097123056,4.530612227191701
423,21.2,-2.34,-6.85,4.27,1.25,-1.42,1.13,-1.4,2.16,0.519,21200000000.0,-1.8688240708288466,-9.950515772419005,6.150080382996444,0.8783392137406987,-1.2061499854673587,0.7501360325149283,-1.0637176719770585,-0.9936018038096588,2.6883788762125205
424,21.3,3.21,-9.86,3.06,-0.9890000000000001,0.8109999999999999,-0.511,4.49,-0.943,-0.828,21300000000.0,-0.03278379454025293,-9.910785617856112,4.870573024249208,-0.5277452980784638,0.14725651934865347,-0.15226263621921787,1.2452714930515048,-0.971754188656497,1.073569148789611
425,21.3,-5.79,-8.67,-6.72,-0.0761,0.196,0.239,-4.58,0.278,-10.5,21300000000.0,-2.1140688588930163,-9.366168773201503,0.07127297524085474,-0.18766169290091783,0.17996094770634113,0.12770310304393145,-1.176617759050508,-0.4321655482088319,-4.241305229720153
426,21.4,4.14,-5.56,-2.23,-1.34,0.816,-0.818,5.46,3.56,-5.6,21400000000.0,0.14683284277815511,-7.69553062566368,-0.8816134585196855,-1.0553589283855247,0.6067112541875168,-0.5489893640247816,1.5825932997001404,1.2914751278601106,-4.865252036713989
427,21.4,-3.97,-16.6,-0.7609999999999999,-1.87,0.8370000000000001,-1.03,-2.97,-7.17,-3.33,21400000000.0,-1.3414390092159776,-11.603961260359718,-0.8316711222598107,-1.6687740904607384,0.7612234655818709,-0.893173756711751,-0.31017290159789246,-2.3618160180983394,-4.1602256083859395
428,21.5,-0.649,-8.12,1.21,-1.9,0.542,-0.452,0.10800000000000001,1.52,-0.45799999999999996,21500000000.0,-1.091116118985664,-10.074749331879659,0.01372216908736179,-1.8428844665061517,0.6141355079111005,-0.5774943893417466,-0.1363151720212856,-0.6858193771680241,-2.4600703880127988
429,21.5,-0.462,-9.27,0.508,-1.88,0.434,-0.239,0.10300000000000001,0.496,-0.179,21500000000.0,-0.8636850275808902,-9.721521656443823,0.21838743748338976,-1.8708320236926075,0.49327360331160774,-0.3352866571555184,-0.03681854743402825,-0.17556198907144138,-1.4125454302645297
430,21.6,0.10800000000000001,-7.1,-0.505,-1.67,0.607,-0.345,0.591,2.69,-0.285,21600000000.0,-0.5124122106121625,-8.570859550188665,-0.0811450702590841,-1.719607836428177,0.5695783094176337,-0.3422369832946916,0.22420054218042984,1.0616610954768988,-0.8947481751668726
431,21.6,-0.0287,-10.9,1.42,-1.14,0.37799999999999995,-0.9,0.172,-1.09,2.35,21600000000.0,-0.33754592614222345,-9.593186835838514,0.540432958595826,-1.283169932662888,0.4410388625232586,-0.7413411070345337,0.20249787652435003,0.13266888531339494,0.5953218466507589
432,21.7,-2.04,-9.67,0.723,-1.09,0.604,-0.687,-2.27,0.0275,2.16,21700000000.0,-0.9529982653108328,-9.626902400086518,0.6160283564012324,-1.137715267396492,0.5503775972721202,-0.7024576215601644,-0.8254569702797813,0.087261607170985,1.3138614930742558
433,21.7,-3.17,-10.7,1.04,-0.51,0.483,-0.4,-3.7,-1.11,2.88,21700000000.0,-1.7544642208606485,-10.097916048632175,0.7915819704804093,-0.6650530367528082,0.5051706143094966,-0.4860358022805326,-2.0205643714288075,-0.42966306324430603,2.0330717837706915
434,21.8,-1.15,-13.3,2.7,0.0956,0.249,-0.0775,-1.86,-3.69,4.65,21800000000.0,-1.5359449977025208,-11.503403865322012,1.5817992546545652,-0.09229023325757724,0.33329297368145827,-0.19371034284016836,-1.9538088397174642,-1.837332528148763,3.2348311593697847
435,21.8,-6.27,-12.5,3.53,1.49,0.564,0.835,-6.93,-2.83,5.22,21800000000.0,-3.247348155768721,-11.940838880546286,2.388489307423664,1.0991557346321708,0.48808582904544373,0.5423774518873763,-4.022688143277313,-2.2659224512499616,4.146470581689206
436,21.9,-0.9390000000000001,-14.5,2.83,3.03,-0.8109999999999999,1.99,-0.929,-4.68,3.47,21900000000.0,-2.4128596845226267,-13.064129092394557,2.571305286951593,2.553058766003539,-0.3835356264522839,1.578215504553095,-2.736469960635846,-3.3082144032546035,3.8358182700164676
437,21.9,1.38,-14.9,-5.72,2.39,-1.83,1.16,2.08,-5.2,-6.58,21900000000.0,-1.041707034831008,-13.869946036295765,-0.861869371465529,2.430277509416095,-1.3540407324240804,1.2789637651292876,-0.7339956016893958,-4.12500375819341,-0.9473877174659009
438,22.0,-2.75,-16.5,1.59,2.18,-1.4,0.861,-1.7,-6.95,-0.391,22000000000.0,-1.6592701991484335,-15.02435317838784,0.15337440839059036,2.2418215347504806,-1.3848770808353157,0.9798921813197741,-1.1356173662145994,-5.3447122383034955,-0.6918804688270921
439,22.0,-1.6,-10.7,-0.807,1.91,-1.03,0.912,-0.209,-1.48,-3.87,22000000000.0,-1.6378435014108144,-13.126268772844227,-0.2442871161771908,1.9919637913897776,-1.1467723319113319,0.931312319100875,-0.7503710035663793,-3.6761002538047505,-2.151352930837636
440,22.1,-1.36,-7.33,-0.474,1.16,-2.2,0.8390000000000001,0.171,1.56,-4.34,22100000000.0,-1.537400599297119,-10.582117873557436,-0.3394041656467488,1.3655048032461798,-1.8534353263647558,0.8652587568797222,-0.3673058413912064,-1.4153835317204564,-3.156434845753533
441,22.1,1.56,-4.27,-0.728,0.6679999999999999,-2.5,0.664,2.92,4.35,-5.2,22100000000.0,-0.4176626392838345,-7.811545833006047,-0.5003097538148644,0.8402918660821957,-2.287247807309404,0.7212491848509398,0.9994100248446895,1.0738543083601453,-4.0948913344784446
442,22.2,1.66,-3.3,-1.64,-0.0657,-2.43,0.406,2.68,5.19,-6.42,22200000000.0,0.333430949139329,-5.8312971923245325,-0.9722204585991292,0.15809063081540742,-2.3830274166148757,0.4956744228964943,1.6981247573443343,2.8510241820487705,-5.1626398155437405
443,22.2,1.47,-4.42,0.828,-1.08,-1.25,-0.00481,2.11,4.15,-3.88,22200000000.0,0.7443108224952188,-5.211837860750577,-0.22680447985669794,-0.7741771043969079,-1.6228228235979465,0.13755565285113175,1.869364155127383,3.4118645897132156,-4.573619367606661
444,22.3,0.29,-12.4,8.16,-1.73,-1.57,-0.401,0.619,-3.44,4.1,22300000000.0,0.5800733995252112,-8.366931020895017,3.245913483550221,-1.4939005324431418,-1.5873813923915085,-0.2478047635030759,1.3495182545439453,0.4535321661117808,-0.5904749938769775
445,22.3,-1.59,-14.9,12.0,0.24100000000000002,-1.77,0.242,-1.79,-5.77,8.44,22300000000.0,-0.20442752821389154,-11.23448474905712,6.870711715702784,-0.18754081145927826,-1.7099093098441611,0.10267223644017254,0.04424595372082285,-2.2335140451919697,3.556546320247139
446,22.4,1.54,-8.11,2.4,1.1,-1.96,0.9359999999999999,1.22,0.909,-1.43,22400000000.0,0.4261985895852064,-9.86305741114674,5.019527409104496,0.7819623145941532,-1.8777076504127985,0.6989551503879621,0.5330723024636921,-0.8767153327397246,1.2665987115849369
447,22.4,6.75,-4.16,4.43,-0.6890000000000001,-0.629,-0.39899999999999997,6.48,4.72,0.29,22400000000.0,2.71230927970587,-7.3598196547377785,4.775422152827917,-0.32565503887236535,-1.0398874255033972,-0.08668037837763287,3.0055408433203956,1.5396989817546358,0.8181199883915795
448,22.5,-2.74,-21.3,-0.457,-0.685,-0.0739,0.431,-3.3,-12.4,-4.43,22500000000.0,0.7412507750138078,-13.47856972373417,2.608836925688218,-0.5962375756777196,-0.39175829159404796,0.28374285541443783,0.38397690422011,-4.478846986299361,-1.5919487804294747
449,22.5,2.37,-4.3,-2.72,-1.58,-0.633,0.718,1.96,4.82,-6.31,22500000000.0,1.3300581254485901,-9.449828728564734,0.4023292866474453,-1.3369991586358583,-0.5536193943290237,0.5944730711005695,1.0392173584487954,-0.4640156276822456,-3.7585966758969733
