,Time (s),Acceleration x (m/s^2),Acceleration y (m/s^2),Acceleration z (m/s^2),Time (s).1,Linear Acceleration x (m/s^2),Linear Acceleration y (m/s^2),Linear Acceleration z (m/s^2),Time (s).2,Gyroscope x (rad/s),Gyroscope y (rad/s),Gyroscope z (rad/s),Sitting,Walking,Running,Biking,SPM,Unnamed: 17,Unnamed: 18,Unnamed: 19,Unnamed: 20,Unnamed: 21,Acceleration x (m/s^2)_kalman,Acceleration y (m/s^2)_kalman,Acceleration z (m/s^2)_kalman,Gyroscope x (rad/s)_kalman,Gyroscope y (rad/s)_kalman,Gyroscope z (rad/s)_kalman,Linear Acceleration x (m/s^2)_kalman,Linear Acceleration y (m/s^2)_kalman,Linear Acceleration z (m/s^2)_kalman
0,0.013075732,1.029811025,4.4928236010000004,10.02532864,0.155396409,1.082274914,-0.6888179779000001,-0.8785486221,0.156099378,-0.1259108931,1.829487562,0.8128086329,0.0,1.0,0.0,0,30.0,,,,,,0.9063827679628437,3.605264269686772,8.68586568686004,-0.2641253893860942,1.6024389044208158,0.8355505668133049,0.7794128417513874,-0.5450539251000103,-0.680776980353953
1,0.0326512,0.747158885,4.665106773,10.71715355,0.19465818,0.9357105494,-0.6180300713,-0.90366745,0.206099378,-0.8741987943999999,1.333174109,1.149538159,0.0,1.0,0.0,0,30.0,,,,COUNT,TIME,0.8502591436022039,3.9228206719569023,9.865936290999436,-0.7137790105539649,1.426953013610407,1.0407020126708941,0.8677187420490695,-0.5894305637460385,-0.8402705958062104
2,0.0826512,1.968096614,3.7411782739999997,8.56241703,0.24465818,0.0,0.0,0.0,0.256099378,-0.7274427414,0.1970745921,0.5480827093,0.0,1.0,0.0,0,30.0,,,ACC,6379,5.31615959113333,1.3581514216582273,3.8495874449434764,9.015105682812177,-0.7242389073136078,0.5721623340171715,0.7007709486443425,0.3141497674293374,-0.19288944562881127,-0.20436175213702978
3,0.13265120000000002,1.968096614,3.7411782739999997,8.56241703,0.29465818,-1.2380195859999998,-0.40238857270000006,1.88974762,0.30609937800000003,-0.3946836889,1.5927842859999999,0.7885274291,0.0,1.0,0.0,0,30.0,,,LA,6379,5.31398769651667,1.6528069817077164,3.802114049719584,8.715804457145207,-0.47144439173659747,1.2855722289363956,0.7616328638426652,-0.6905348932765014,-0.3352510960894694,1.3854957287564624
4,0.1826512,0.6514459847999999,2.570489645,8.758627892,0.34465818,-1.018744946,-0.3480839729,0.08494186401,0.35609937799999997,-1.105862617,0.6025244594,0.997208178,0.0,1.0,0.0,0,30.0,,,GYRO,6378,5.3141666437,1.1614888390754003,3.2495159743248125,8.744159154058044,-0.9581460804817286,0.8078793911200559,0.92508884669859,-0.9033572230401326,-0.3439803810742996,0.3979273073776899
5,0.23265120000000003,-1.453041553,1.9887347219999998,12.85992622,0.39465818,-1.018744946,-0.3480839729,0.08494186401,0.40609937799999996,-0.8771766423999999,0.07505785674,0.30947050449999997,0.0,1.0,0.0,0,30.0,,,,,,-0.12644319372675894,2.6797349554174765,11.469787687816734,-0.8960290171455637,0.2953532013968627,0.4979178437058806,-0.978194939488542,-0.3467720515583062,0.16026099737343336
6,0.2826512,-1.816750646,2.326122761,10.19761181,0.44465818,-1.018744946,-0.3480839729,0.08494186401,0.45609937799999994,-0.4240043461,-0.5122717619,0.39880689979999995,0.0,1.0,0.0,0,30.0,,,,,,-0.9599478939928168,2.5195831851882105,10.62728500934238,-0.5339072516987515,-0.26949194086416306,0.429145532131185,-1.0044954182878263,-0.3476645602158023,0.1030671823319026
7,0.33265120000000004,-1.816750646,2.326122761,10.19761181,0.49465818,-0.7800183296,0.2224127054,-0.4534959793,0.5060993779999999,-0.36200335619999996,0.23067119719999998,0.00496313395,0.0,1.0,0.0,0,30.0,,,,,,-1.3825551473008217,2.4319080696932565,10.342731895932094,-0.40202824826605477,0.08031748670001065,0.13480855777978734,-0.8589005021286189,0.04016314089323331,-0.31956077745548406
8,0.3826512,0.007477570791,0.5976074338,9.678070068,0.54465818,1.53046751,0.006218791008,0.9530544281000001,0.556099378,-1.2763653990000001,0.9644514918000001,-0.8373952508,0.0,1.0,0.0,0,30.0,,,,,,-0.6968927683190814,1.6004539139236362,9.902556341750813,-1.0727908969994195,0.6986725738938055,-0.5397963741749472,0.6908344026496311,0.0170705507433395,0.6468035206184939
9,0.43265119999999996,-2.106581211,2.187339067,9.465108871,0.59465818,1.53046751,0.006218791008,0.9530544281000001,0.606099378,-4.489803791,1.8701088430000001,-0.4749337435,0.0,1.0,0.0,0,30.0,,,,,,-1.3922627460422061,1.8664932732178523,9.612854601550223,-3.6942105825468183,1.5179641906309305,-0.4947886810026426,1.2354172353864366,0.009688018932429023,0.879356095809239
10,0.48265119999999995,-0.2536391914,0.8036893009999999,11.41137123,0.64465818,1.53046751,0.006218791008,0.9530544281000001,0.656099378,-4.667331218999999,3.219775915,-1.239409089,0.0,1.0,0.0,0,30.0,,,,,,-0.8306009476566618,1.3847081297228305,10.803931095110805,-4.4407566656847965,2.7081954618491837,-1.011475199988376,1.4267857200694405,0.007327877705026584,0.9353191527113227
11,0.5326512,3.081357241,2.525026083,10.25025368,0.69465818,3.387036324,-2.174623966,-0.52247715,0.706099378,-2.81997633,3.9138510230000003,-1.6586030719999998,0.0,1.0,0.0,0,30.0,,,,,,1.099097382704281,1.9016341907136254,10.43725549884266,-3.1973474043845824,3.5514197329196877,-1.4605123791920296,2.6981967976785137,-1.4770699813664911,-0.17166298517137046
12,0.5826511999999999,-3.10259366,-5.026124001,0.1016949639,0.74465818,3.387036324,-2.174623966,-0.52247715,0.7560993779999999,-3.157927513,3.67615509,-1.2370420690000001,0.0,1.0,0.0,0,30.0,,,,,,-0.9735215385303484,-1.2388445160916093,3.592479640843025,-3.167105762880464,3.638658480240676,-1.3054480065332692,3.1449754913900136,-1.9516210786310093,-0.4380548078344403
13,0.6326512,-1.084247708,-6.469594002000001,5.004887581,0.79465818,3.387036324,-2.174623966,-0.52247715,0.806099378,-1.603855848,2.631682634,-1.549261332,0.0,1.0,0.0,0,30.0,,,,,,-1.028140778606189,-3.6100394198413532,4.527853754021541,-1.967831944911919,2.934388951535236,-1.4746282449818469,3.3019752254788166,-2.103331580320584,-0.5021611748237744
14,0.6826512,-1.084247708,-6.469594002000001,5.004887581,0.84465818,-2.87119627,1.953553677,5.527336121,0.856099378,-0.07498150319,1.262315869,-1.862167835,0.0,1.0,0.0,0,30.0,,,,,,-1.0558173245288414,-4.906328259520811,4.843771754834559,-0.515699464408214,1.7649566097619664,-1.7435390614053683,-0.7019203020902216,0.6565972452103872,4.076356272508323
15,0.7326512,-8.982357025,-6.87906599,4.207479477,0.89465818,-3.773664474,0.4489006996,2.8116281030000003,0.906099378,-0.6071822047,1.316452146,-1.0714260340000001,0.0,1.0,0.0,0,30.0,,,,,,-4.965837748633929,-5.800606698958444,4.422384060598821,-0.5858820079884455,1.4512767644068272,-1.2771648702751286,-2.694241876621029,0.5152997603549789,3.1159810197583546
16,0.7826512,-8.40299511,-5.181657314,8.313263893,0.94465818,-3.773664474,0.4489006996,2.8116281030000003,0.956099378,-0.1675248593,1.1957335470000001,-0.7453100085,0.0,1.0,0.0,0,30.0,,,,,,-6.6613260709975775,-5.520025510742496,6.999138388929969,-0.264932190371075,1.2725522181590856,-0.9081147688437564,-3.3943512636885402,0.47012799183865706,2.8848696898954556
17,0.8326511999999999,-8.19481945,-6.754639149,7.947162151000001,0.99465818,-3.773664474,0.4489006996,2.8116281030000003,1.006099378,-0.3471903205,-0.007024743593999999,0.1712663025,0.0,1.0,0.0,0,30.0,,,,,,-7.417770959895871,-6.079698678506574,7.626971793786037,-0.32803791700473384,0.37762800773521776,-0.1591403352173577,-3.6403723679751048,0.4556869090905797,2.8292534642190286
18,0.8826511999999999,-13.21765327,-8.186145782,2.395215511,1.04465818,-4.061275005,-1.41455555,-1.647082806,1.0560993779999999,-1.0051491259999998,0.1114796251,0.720647037,0.0,1.0,0.0,0,30.0,,,,,,-10.278749293731302,-7.034590061880149,4.1622154338211,-0.84749532256538,0.19148630754877147,0.4513375269154809,-3.9133682159808236,-0.8166527667037276,-0.5698663475075714
19,0.9326511999999999,-9.93529892,-8.964410782,3.944268942,1.09465818,-2.9642672539999997,-1.6166791919999999,-0.27729415890000003,1.106099378,-0.08414421231000001,-0.5079958439,0.49394637350000004,0.0,1.0,0.0,0,30.0,,,,,,-10.109331359774998,-7.9094134429655,4.01787929633347,-0.2618775068082778,-0.29772499492872806,0.4809034861104337,-3.29778494566754,-1.3609166172671365,-0.3477007498885765
20,0.9826511999999998,-9.202795982,-9.565308571000001,1.22691977,1.14465818,-2.9642672539999997,-1.6166791919999999,-0.27729415890000003,1.156099378,0.3574983478,-0.9459733367000001,0.5345677137,0.0,1.0,0.0,0,30.0,,,,,,-9.662153652882477,-8.660061293127155,2.169552607101674,0.21328723744821287,-0.7511038480617984,0.518140691358238,-3.0814666406421516,-1.534913774361693,-0.2942372869677143
21,1.0326511999999999,-10.28973579,-9.79501915,0.7265207767,1.19465818,-2.9642672539999997,-1.6166791919999999,-0.27729415890000003,1.206099378,0.3429143727,-0.2938175201,0.22838051620000002,0.0,1.0,0.0,0,30.0,,,,,,-9.971728711698907,-9.17455865518411,1.2138976717588696,0.3127329037720048,-0.4312820489955947,0.31707827803039923,-3.0054515646228785,-1.5905393880151586,-0.281371470216048
22,1.0826512,-4.804787636,-9.07448101,4.537988186000001,1.24465818,2.843463182,1.105678558,-0.9107415676,1.256099378,0.2922904193,-1.1297620529999999,0.6703284979,0.0,1.0,0.0,0,30.0,,,,,,-7.422968983686285,-9.129191610124355,3.4152929830261085,0.297050103392549,-0.9197924592347889,0.5621959573909436,0.7881322705472709,0.24371747625834717,-0.7592856031139097
23,1.1326512,-5.034498692,-7.436892986,2.586641312,1.29465818,2.843463182,1.105678558,-0.9107415676,1.3060993779999999,-0.08727480471000001,-1.000949621,0.9291750193000001,0.0,1.0,0.0,0,30.0,,,,,,-6.244779257364652,-8.362041382759166,2.866514333257027,0.002208699221092847,-0.9765530225016845,0.8168399773066011,2.1212120743211553,0.8301159288367862,-0.8742941588821151
24,1.1826511999999998,-3.485445261,-6.821638107,2.409572363,1.34465818,2.843463182,1.105678558,-0.9107415676,1.3560993780000001,-0.8590039611,0.2979407609,-0.1529408842,0.0,1.0,0.0,0,30.0,,,,,,-4.883649091031569,-7.66374812271298,2.563902263341465,-0.6584852727309385,-0.08518393971193594,0.1439163076045239,2.5896613930773107,1.0175832088475287,-0.9019706115948355
25,1.2326511999999998,-3.485445261,-6.821638107,2.409572363,1.39465818,2.901381254,1.888584614,-0.39783072469999997,1.4060993780000002,-1.001636744,0.4373666346,-0.23761957879999998,0.0,1.0,0.0,0,30.0,,,,,,-4.1939401198650845,-7.282004096749916,2.461696526831842,-0.9217397726737981,0.28028306548360593,-0.12082858375237288,2.791841708123605,1.6101318594416245,-0.5191504269469872
26,1.2826511999999999,-6.250650883,-6.29491806,1.552343726,1.44465818,0.8141603470000001,0.03352355957,0.4370498657,1.4560993780000002,-0.5189147592,-0.36337774990000005,0.4991385639,0.0,1.0,0.0,0,30.0,,,,,,-5.208478797109258,-6.834539762365512,1.8594731568047043,-0.6127056972972496,-0.1698873144335718,0.30936197229921986,1.509125107323646,0.5375536577392708,0.20694322707136992
27,1.3326512,-3.3203406330000003,-5.784947872,2.124527454,1.49465818,0.8141603470000001,0.03352355957,0.4370498657,1.506099378,-0.020387027409999998,0.9542961121,0.053754560650000005,0.0,1.0,0.0,0,30.0,,,,,,-4.277093971558141,-6.358740369826558,2.03500667053605,-0.15829833346712563,0.6163561046010404,0.1319979055579308,1.0583736098507508,0.19465828141653507,0.38167541587432624
28,1.3826512,-4.68275404,-6.778567314,2.641676188,1.54465818,0.8141603470000001,0.03352355957,0.4370498657,1.556099378,0.054289050400000004,0.6933116317,-0.01084253844,0.0,1.0,0.0,0,30.0,,,,,,-4.47719883629726,-6.549055678990054,2.4367765454814867,0.004791701674837973,0.6701780835573569,0.032881992295257734,0.8999778173995209,0.08503714710959447,0.42372417588607547
29,1.4326511999999998,-4.68275404,-6.778567314,2.641676188,1.59465818,-0.9936461448999999,-2.367114544,-0.8747366667,1.6060993780000001,0.8105179667,0.513035357,0.1522536725,0.0,1.0,0.0,0,30.0,,,,,,-4.578595546030348,-6.653097542887803,2.5724723423729836,0.6229183397421401,0.5602739240631966,0.11571310628664415,-0.3282194745409711,-1.5831796517459011,-0.5622660868295588
30,1.4826511999999998,-5.891727447999999,-8.562117577,4.796412945,1.64465818,-0.4732427597,-1.717300415,0.9129052162000001,1.6560993780000002,-0.3545204699,1.138390183,0.1378224194,0.0,1.0,0.0,0,30.0,,,,,,-5.226340054608786,-7.518491588766256,4.045287957322156,-0.12694050378050037,0.9646030519141211,0.13105459291339897,-0.42228102512099397,-1.6744229917154219,0.5579098114037042
31,1.5326511999999999,-6.578766823,-7.343572617,-0.6260222196999999,1.69465818,-0.4732427597,-1.717300415,0.9129052162000001,1.7060993780000002,-0.1590493619,1.1089168790000001,0.1419456303,0.0,1.0,0.0,0,30.0,,,,,,-5.893468018961081,-7.439197587461646,0.951689790429354,-0.1515733616247486,1.0655347983820036,0.1386118021178318,-0.45533461213477877,-1.7035928176042332,0.8274766716281392
32,1.5826512,-7.641777992000001,-9.591629982,4.05912447,1.74465818,1.390141487,-0.7669763565000001,0.6857237815999999,1.756099378,0.1627907902,1.4383926390000001,0.2241045833,0.0,1.0,0.0,0,30.0,,,,,,-6.755878096131546,-8.414934952964025,3.009603708259183,0.08959645586777573,1.32630809981869,0.19793460204420424,0.7416341591806612,-1.0664057625752885,0.7198361755023535
33,1.6326512,-6.4399828910000005,-8.382656097,-2.2803599830000003,1.79465818,0.2702264786,-0.06863260268999999,-0.15930333730000001,1.806099378,0.3597890437,1.6831132169999998,0.03535278514,0.0,1.0,0.0,0,30.0,,,,,,-6.60005263478522,-8.400302351467385,-0.4937007950959975,0.2968793051003794,1.575854276117292,0.08512029811559542,0.4358809324287122,-0.3876133563560519,0.05225886334087637
34,1.6826511999999998,-4.553242207,-7.999505042999999,1.19581306,1.84465818,0.2702264786,-0.06863260268999999,-0.15930333730000001,1.8560993780000001,0.11865708230000001,1.2613232140000001,0.281524241,0.0,1.0,0.0,0,30.0,,,,,,-5.590397615756643,-8.2186135277772,0.6251880747170413,0.16015308904898876,1.355874180186435,0.22140352168859728,0.32843808439068034,-0.17060840771348088,-0.10839154904548526
35,1.7326511999999998,-6.94756031,-7.312466145,-0.09960123897,1.89465818,0.2702264786,-0.06863260268999999,-0.15930333730000001,1.9060993780000002,-0.5188384056,1.039051175,0.5992411375,0.0,1.0,0.0,0,30.0,,,,,,-6.259861727997665,-7.807840180051526,0.14519278276602127,-0.3607468096673313,1.134291120995579,0.4835822107821809,0.2906822585007741,-0.101233518861004,-0.14705157318013615
36,1.7826511999999999,-6.94756031,-7.312466145,-0.09960123897,1.94465818,-1.136836529,-1.203189373,-1.98607409,1.9560993780000002,-0.4327852726,1.2006202940000001,0.2496074587,0.0,1.0,0.0,0,30.0,,,,,,-6.599091153299844,-7.583277978908882,-0.01692326352616541,-0.41601234441942386,1.180681126607418,0.32122888434953417,-0.6352009916412328,-0.8509021768921734,-1.5435190176049658
37,1.8326512,-8.362317085,-8.775078772999999,-2.191825628,1.99465818,0.1351890564,-0.1076822281,-3.467119217,2.006099378,0.1858502775,0.6910209656,-0.33810395,0.0,1.0,0.0,0,30.0,,,,,,-7.468859006420693,-8.12354329477673,-1.4572630641096946,0.04571682492644108,0.8382173701589859,-0.1362772266262155,-0.13552893974908153,-0.3452841890746817,-3.004210787203573
38,1.8826512,-8.625826836,-8.373085022,-2.821436882,2.04465818,0.1351890564,-0.1076822281,-3.467119217,2.0560993780000003,0.4863871336,1.4549617769999998,-1.014464617,0.0,1.0,0.0,0,30.0,,,,,,-8.039570567939707,-8.236665169403551,-2.3606938924037446,0.38378456356586826,1.269562664412064,-0.7456448731762448,0.04005772179040368,-0.18364183056594946,-3.3557217371422365
39,1.9326511999999998,-8.304888725,-7.774580002,-5.718546867000001,2.09465818,0.1351890564,-0.1076822281,-3.467119217,2.106099378,-0.08590039611,1.6487531659999999,-1.544603705,0.0,1.0,0.0,0,30.0,,,,,,-8.170447275184575,-8.027193427020329,-4.584448559615469,0.0234577408474006,1.5347649699823984,-1.3000364173358028,0.10175954320273317,-0.13196595531268057,-3.4403117584584626
40,1.9826511999999998,-1.675574064,-2.8689942360000003,-0.4680959284,2.14465818,1.237328529,0.5224027634,-4.977697849,2.156099378,0.6650599240999999,-0.354978621,-0.5423560143,0.0,1.0,0.0,0,30.0,,,,,,-4.966642347779163,-5.688886448286117,-1.8583737601144423,0.5156737920279829,0.2130959015181102,-0.7742876657100944,0.8382852639366899,0.31320588831435786,-4.60773064849083
41,2.0326512,-5.218746185,-5.612664700000001,0.5303093195,2.19465818,-3.405849457,-1.1051154140000001,-1.121827364,2.206099378,0.4225535989,-0.9358180165000001,-0.3588727713,0.0,1.0,0.0,0,30.0,,,,,,-5.091000667125046,-5.654333721570831,-0.2764566284311636,0.44423504859681223,-0.5904437929950819,-0.48603438467864535,-1.9144443563542488,-0.6516885065953724,-1.9606991919879038
42,2.0826512,-1.172782183,-5.200799942,-2.998805046,2.24465818,-3.405849457,-1.1051154140000001,-1.121827364,2.256099378,0.2938175201,-0.5091412067000001,-0.9058864713,0.0,1.0,0.0,0,30.0,,,,,,-3.1582134856989628,-5.4487384813428115,-2.079345273246302,0.32883967773590056,-0.5335815213355037,-0.7773666000760003,-2.8817640259603947,-0.9601581604902081,-1.3236992710199402
43,2.1326512,-9.00150013,-9.634700775,-6.841379166,2.29465818,0.07170009613,1.540316582,0.7358776331,2.3060993780000003,0.6152759193999999,0.4963133931,-1.707394481,0.0,1.0,0.0,0,30.0,,,,,,-6.040602399894831,-7.346312514804843,-5.233025667414348,0.548584122938598,0.18671739047997293,-1.4227059743394102,-0.9661584417061537,0.7409331648741242,0.2402468305497425
44,2.1826512000000005,-8.936893462999999,-8.195716857999999,-4.468596458,2.34465818,-0.2887825966,1.728999615,1.953124523,2.356099378,0.9087116718000001,-0.01580567285,-2.0016701219999997,0.0,1.0,0.0,0,30.0,,,,,,-7.469291040651214,-7.731363194256117,-4.726778659610965,0.8248621105392195,0.04507464606966405,-1.8244448562039473,-0.5268150476755369,1.4131220249859706,1.540925811983254
45,2.2326512000000003,-5.2115678789999995,-7.025028229,-0.8991031051,2.39465818,-0.2887825966,1.728999615,1.953124523,2.406099378,0.4579063654,-1.1241880659999999,-1.463437319,0.0,1.0,0.0,0,30.0,,,,,,-6.355596537927127,-7.411168506540891,-2.1918816756026973,0.5433457557939322,-0.7726968051461953,-1.5739444323523584,-0.3724281062103516,1.6280158684205819,1.8539301800811074
46,2.2826512,-4.536492825,-7.597211838,0.0466600433,2.44465818,-0.2887825966,1.728999615,1.953124523,2.456099378,0.029397023839999994,0.1289651245,-0.49997848270000006,0.0,1.0,0.0,0,30.0,,,,,,-5.4582651734661205,-7.4955053852937095,-0.7093963993659154,0.14906122568494035,-0.14208284868564103,-0.828727511065084,-0.318175947150203,1.6967158524375965,1.9292537117494362
47,2.3326512000000004,-4.536492825,-7.597211838,0.0466600433,2.49465818,-2.538100243,-2.473462105,1.3641139269999998,2.506099378,-0.3387911618,1.496423125,0.5417451859,0.0,1.0,0.0,0,30.0,,,,,,-5.003571340733624,-7.541610798984963,-0.2086942972827731,-0.2252030489281876,1.003872970185279,0.12223321935429787,-1.758010392812331,-1.1402868288973653,1.5001130656240411
48,2.3826512,-3.411267757,-10.0082798,-5.323431969,2.54465818,-3.124614,-4.003750801,-0.354210794,2.5560993780000003,0.4759263694,-0.1607291847,0.1682120711,0.0,1.0,0.0,0,30.0,,,,,,-4.218116428761801,-8.659797423166477,-3.5959545058585816,0.31268033530034806,0.18936106889848314,0.1541375998657335,-2.6443842892899743,-3.0883223924426733,0.09202649917002481
49,2.4326512000000005,-5.4008998870000005,-11.40867901,0.9203394054999999,2.59465818,-3.124614,-4.003750801,-0.354210794,2.606099378,1.2932399509999999,-0.2007396817,-0.4434750974,0.0,1.0,0.0,0,30.0,,,,,,-4.801562378938688,-9.90591622482927,-0.6050166241712027,1.0649333584845369,-0.08347176309881926,-0.2605413706785723,-2.9558594513865866,-3.711095059826517,-0.24682517157371825
50,2.4826512000000003,-6.032904147999999,-13.84128284,-1.6507484909999999,2.64465818,-3.124614,-4.003750801,-0.354210794,2.656099378,0.2874036431,0.2839676142,-0.2729723752,0.0,1.0,0.0,0,30.0,,,,,,-5.4089612763838515,-11.689890610068474,-1.2975577024994611,0.46843818415192884,0.17351191542399735,-0.26916715149336884,-3.0653130092910392,-3.9101909092547125,-0.32836877656313185
51,2.5326512,-3.42323184,-9.105587006,-1.610070586,2.69465818,-0.5018296242,0.6164493561,-1.346807361,2.706099378,0.560452342,-0.4064424932,-0.8249492048999999,0.0,1.0,0.0,0,30.0,,,,,,-4.429436419509619,-10.51837804731752,-1.5045208985904983,0.5390284137763103,-0.2321027968858993,-0.6548201518567669,-1.4026474461850817,-0.8306843026096105,-1.1017232699482868
52,2.5826512000000004,-0.8641080856000001,-7.204789162000001,-0.45852464439999996,2.74465818,1.824649692,1.171337128,-0.5234876871,2.756099378,0.7324821949,-0.34428879619999997,-0.6917845011,0.0,1.0,0.0,0,30.0,,,,,,-2.6707236451521763,-9.016266994798562,-0.811804728603636,0.6874397794365312,-0.3105646400149652,-0.680469436670561,0.6905651894156541,0.531305575060592,-0.6626382890666855
53,2.6326512,-4.203890324,-9.71605587,0.4848456979,2.79465818,1.824649692,1.171337128,-0.5234876871,2.8060993780000003,1.490085483,-1.9547111990000001,-0.7372162938,0.0,1.0,0.0,0,30.0,,,,,,-3.42700737842099,-9.333494218885136,0.046908401223929475,1.3032031119243381,-1.4604654313919299,-0.7198456554288235,1.4261280794864597,0.9667237393587709,-0.5569738484599552
54,2.6826512000000005,-0.5862415433,-8.073682785,-1.6244274380000001,2.84465818,1.761046171,1.748624802,-2.072989464,2.856099378,1.165725589,-3.831768513,-1.603779435,0.0,1.0,0.0,0,30.0,,,,,,-2.0257083407627845,-8.762398423905605,-1.0599419880504786,1.1977348867176805,-3.118932722668111,-1.333200678629432,1.643354678561499,1.4986567726649176,-1.708165001751007
55,2.7326512000000003,-1.5918252469999998,-8.954839706,0.9562317729,2.89465818,1.0826842779999999,-1.102564812,-2.277587891,2.906099378,0.8832087517,-1.431367874,0.25731942059999996,0.0,1.0,0.0,0,30.0,,,,,,-1.8116815616130948,-8.849635612164013,0.27527901306165714,0.9564408010413117,-1.9386655838054474,-0.22955070538326638,1.279705991830121,-0.27097336909078584,-2.140558036174654
56,2.7826512,-0.4402793646,-8.743971825,0.7552346587000001,2.94465818,1.0826842779999999,-1.102564812,-2.277587891,2.956099378,0.4591280818,-1.093645692,-0.03527642787,0.0,1.0,0.0,0,30.0,,,,,,-1.1351933572095785,-8.801736265395352,0.5931320027666889,0.5749188716475933,-1.347666541008432,-0.0947452406220724,1.1519184587179778,-0.8367111329631938,-2.2446120805942265
57,2.8326512000000004,0.2419741899,-7.982755661000001,-1.071386337,2.99465818,1.0826842779999999,-1.102564812,-2.277587891,3.006099378,0.1468324065,-0.8875610828,-0.04161396995,0.0,1.0,0.0,0,30.0,,,,,,-0.45586120861652124,-8.430477228712265,-0.5092034642516297,0.24650504307875426,-1.025873068500986,-0.057877850211227586,1.1070134330305084,-1.0175733424833209,-2.269652364081916
58,2.8826512,-4.900500774,-17.02762413,5.0527439119999995,3.04465818,-0.1180131584,1.15801239,-0.3302748203,3.0560993780000003,-0.039170581850000004,-0.6207735538,0.03161134571,0.0,1.0,0.0,0,30.0,,,,,,-2.6483225052253987,-12.327722730986217,3.1742235733114113,0.02734411800016065,-0.7425502406212758,0.0042180319670727245,0.3124658500990585,0.4624936043501868,-0.7969800191131728
59,2.9326512000000005,1.8364913459999999,-6.807281494,1.08335042,3.09465818,-0.7843054533,1.608576775,0.5682368279,3.106099378,0.06604786217,-0.41339087490000004,0.2868691385,0.0,1.0,0.0,0,30.0,,,,,,-0.4360439511154959,-9.825204741324045,1.7895325317764834,0.05703635505722528,-0.5123392456518852,0.20034751583588017,-0.3988958413220176,1.2421823994968166,0.239701622315307
60,2.9826512000000003,0.3161516786,-8.385048866,2.012064695,3.14465818,-0.7843054533,1.608576775,0.5682368279,3.156099378,0.1034622565,-0.3079433739,0.170197323,0.0,1.0,0.0,0,30.0,,,,,,-0.06499928458087362,-9.172355479714147,1.9369055528881713,0.09265277668403761,-0.3693866764885367,0.17942652302836967,-0.6488710482016447,1.4914431829083141,0.4891758482587003
61,3.0326512,-0.5599204898,-7.870292664,3.48933363,3.19465818,-0.7843054533,1.608576775,0.5682368279,3.206099378,0.2695363462,-0.1123958975,-0.6502469182,0.0,1.0,0.0,0,30.0,,,,,,-0.3091350735985615,-8.582106352649397,2.9650086910699898,0.2283520220631613,-0.18964971900961053,-0.3962776580591387,-0.7367132876813696,1.5711300253173155,0.5492110479988019
62,3.0826512000000004,-1.211067319,-9.43848896,6.2952170370000005,3.24465818,8.322319031000001,-3.710295677,-0.131074667,3.256099378,-0.9784246087,1.972120404,-0.5940489769,0.0,1.0,0.0,0,30.0,,,,,,-0.7540421376613538,-8.970320408310503,5.170455566709087,-0.6974472400588694,1.3222721727531914,-0.5335096935767085,5.138940581736421,-2.021862655792483,0.03263398318307986
63,3.1326512,-1.211067319,-9.43848896,6.2952170370000005,3.29465818,3.598985434,0.8732366562,1.0072872640000001,3.3060993780000003,-0.8974109887999999,0.3904077411,-0.4283566475,0.0,1.0,0.0,0,30.0,,,,,,-0.9794844950562559,-9.182549861210623,5.915334389025849,-0.8508528383464247,0.6705348676334976,-0.46054478319505954,4.140131536030418,-0.052305338322924166,0.7727399708096889
64,3.1826512000000005,6.658328056,-13.35284805,1.6148561240000001,3.34465818,3.598985434,0.8732366562,1.0072872640000001,3.356099378,-0.8163210154,-0.4297310412,0.035200074320000004,0.0,1.0,0.0,0,30.0,,,,,,2.7881119909796097,-11.073023067862868,3.067321481803004,-0.8243611617367901,-0.09898086228684799,-0.11655114300071479,3.7891462343973985,0.577347675779945,0.9508441842930112
65,3.2326512000000003,6.658328056,-13.35284805,1.6148561240000001,3.39465818,3.598985434,0.8732366562,1.0072872640000001,3.406099378,-1.2203965190000001,-0.2411319613,0.1357607991,0.0,1.0,0.0,0,30.0,,,,,,4.6972204366139945,-12.106509847950983,2.1054191464042686,-1.1281864363639478,-0.1984000171236079,0.05852622209100525,3.6658086630247397,0.7786431215393983,0.993704411599423
66,3.2826512,-0.8330013752,-9.081659317,-4.114458561,3.44465818,0.17474687100000003,0.47829055789999997,-1.165656567,3.456099378,-1.216349602,0.164623335,-0.1861557066,0.0,1.0,0.0,0,30.0,,,,,,1.9692608113955639,-10.735289225371211,-2.0137254928387573,-1.1958223114509237,0.055495134538809804,-0.11125673396039004,1.4015192769544202,0.5743110673108297,-0.6460130357174375
67,3.3326512000000004,-4.373780727,-11.97368431,0.3050848842,3.49465818,0.17474687100000003,0.47829055789999997,-1.165656567,3.506099378,-1.2222290040000001,0.46981790659999995,-0.2524326444,0.0,1.0,0.0,0,30.0,,,,,,-1.159648264533541,-11.296676594046222,-0.4780819025187275,-1.216080655677074,0.3452686227670123,-0.2092176398435197,0.6058393653927644,0.5089876097593906,-1.0406059604764628
68,3.3826512,-0.8593224287000001,-9.751948357,-0.18335004149999998,3.54465818,0.17474687100000003,0.47829055789999997,-1.165656567,3.5560993780000003,-1.1199884409999998,0.4353050292,-0.3181750774,0.0,1.0,0.0,0,30.0,,,,,,-1.0115028948840077,-10.596422748850674,-0.2828942762637183,-1.142361875628866,0.4082392468900916,-0.2848223889734276,0.3262344149135668,0.4881041799784646,-1.1355635255890777
69,3.4326512000000005,-0.8593224287000001,-9.751948357,-0.18335004149999998,3.59465818,-0.7459881306,0.7119588852,-0.05262982845,3.606099378,-1.022481918,0.07498150319,-0.5428904890999999,0.0,1.0,0.0,0,30.0,,,,,,-0.9364349895422838,-10.213606907203788,-0.21697061662738995,-1.0503939230053152,0.17516188455541024,-0.4638939090027588,-0.36920504559241635,0.6403941794546038,-0.31323446833918733
70,3.4826512000000003,0.9939187169,-9.527023315,0.5925226808,3.64465818,-0.6072188615999999,0.3118429184,-0.3130850792,3.656099378,-0.9313129782999999,0.029702447349999998,-0.6489488482,0.0,1.0,0.0,0,30.0,,,,,,0.015774009080145812,-9.902365882056433,0.3191203056257843,-0.9590389464836789,0.07342890883264312,-0.5923021440502613,-0.5235799004027446,0.41687834436604954,-0.3131210292283925
71,3.5326512,0.1247258782,-9.354740142999999,-0.16181463,3.69465818,-0.6072188615999999,0.3118429184,-0.3130850792,3.706099378,-0.5964159966,0.1925695986,-0.5692332983,0.0,1.0,0.0,0,30.0,,,,,,0.0695180197673326,-9.654117018380704,0.0006187762954830145,-0.6808465694392705,0.1567547976744868,-0.5762948449246856,-0.5778278121663564,0.3454219729190667,-0.3130937304577514
72,3.5826512000000004,0.5222335458,-9.404989243,-1.028315544,3.74465818,-0.6072188615999999,0.3118429184,-0.3130850792,3.756099378,-0.1664558798,0.34192174670000003,-0.3775799572,0.0,1.0,0.0,0,30.0,,,,,,0.29283450122105703,-9.541182795556187,-0.6807980440224333,-0.2862229839630845,0.28625883739536473,-0.4384080740634547,-0.596890734909366,0.3225778955929736,-0.3130871610931531
73,3.6326512,-0.052342995999999996,-9.706484795,-0.4537389874,3.79465818,-2.45583725,-1.026257515,2.371519089,3.8060993780000003,0.347266674,0.29809346800000003,-0.2611372173,0.0,1.0,0.0,0,30.0,,,,,,0.12256460825851906,-9.616117245290939,-0.5304270657338759,0.19976940517384395,0.2945358677906194,-0.31540115548347286,-1.8025963664878712,-0.5950447372160768,1.725476910146931
74,3.6826512000000005,0.1989033818,-10.37677479,0.9203394054999999,3.84465818,-2.374064922,-0.5234241486,0.8846189976000001,3.856099378,1.043403506,-0.4055262208,0.17951273920000002,0.0,1.0,0.0,0,30.0,,,,,,0.16022116150595975,-9.960937360692835,0.43035017364300876,0.8469776858027096,-0.19508103733077486,0.02801588582207787,-2.17324869593863,-0.5463207249218818,1.086968849721802
75,3.7326512000000003,-0.49770709869999996,-10.87956619,0.81744802,3.89465818,-2.374064922,-0.5234241486,0.8846189976000001,3.906099378,1.5775130990000001,-0.43828290700000005,0.3723877668,0.0,1.0,0.0,0,30.0,,,,,,-0.164323095717086,-10.377368779687718,0.6867076285047914,1.4074203799887477,-0.36517416005883563,0.2669729524192748,-2.3034973357687787,-0.5307440159182356,0.9333138627253277
76,3.7826512,-0.49770709869999996,-10.87956619,0.81744802,3.94465818,-2.374064922,-0.5234241486,0.8846189976000001,3.956099378,1.399832845,-0.1126249656,0.6629983186999999,0.0,1.0,0.0,0,30.0,,,,,,-0.3287754686670794,-10.605024143873852,0.7732910965442253,1.401599472986673,-0.18854360543607843,0.541771985193612,-2.349267203727635,-0.5257642564124041,0.8963372660427944
77,3.8326512000000004,-1.847857237,-12.81655598,-0.4680959284,3.99465818,1.67446363,-0.9578962326,-1.854647636,4.006099378,1.232995152,-0.024586603050000003,0.5603759885,0.0,1.0,0.0,0,30.0,,,,,,-1.0781113673086566,-11.607552376551858,-0.048823573509485074,1.2722517945997833,-0.0738736048861837,0.5546811636084802,0.2605092944668992,-0.8197468124858118,-1.1926316406671966
78,3.8826512,2.688934565,-11.58335495,0.5135595798,4.04465818,1.67446363,-0.9578962326,-1.854647636,4.056099378,1.3452383280000002,0.01305686031,0.5697677732,0.0,1.0,0.0,0,30.0,,,,,,0.7801050945725272,-11.596583236083958,0.3236174390560104,1.3282446577571851,-0.01307524710961739,0.5651496488710891,1.1775946926734275,-0.9137308772720593,-1.6953355375966237
79,3.9326512000000005,3.019144058,-10.39830971,-1.241575837,4.09465818,1.67446363,-0.9578962326,-1.854647636,4.106099378,1.2197855709999998,-0.48073679210000003,0.4798205197,0.0,1.0,0.0,0,30.0,,,,,,1.884583016072041,-11.053383710392342,-0.7129395153333402,1.2450384207130671,-0.3401533763622072,0.5059404058130709,1.4998619934118125,-0.9437768927626518,-1.816309673294047
80,3.9826512000000003,3.019144058,-10.39830971,-1.241575837,4.14465818,0.9746255279,0.7702617645000001,-2.4733049869999997,4.156099378,0.9426136612999999,-0.43293800950000005,0.7671477795,0.0,1.0,0.0,0,30.0,,,,,,2.444241709821911,-10.756426564013866,-1.0630315225262348,1.0130281116111663,-0.40504608468119785,0.6871902442064012,1.1591956216953403,0.22229619009085888,-2.3152010997296504
81,4.0326512,2.758326292,-9.14626503,0.029910283160000002,4.19465818,-0.3857208788,-0.2937011719,-1.763615489,4.206099378,0.6936933994,-0.47943875189999996,0.8274689913,0.0,1.0,0.0,0,30.0,,,,,,2.599174023270691,-10.026510596705,-0.3392254299093731,0.7680450440163606,-0.45707562334456076,0.7845286151780578,0.15716866172805855,-0.128740603655358,-1.8963528577195208
82,4.0826512,2.300997972,-8.909376144,-0.3245265782,4.24465818,-0.3857208788,-0.2937011719,-1.763615489,4.256099378,0.64077878,-0.2987042964,0.5637356639,0.0,1.0,0.0,0,30.0,,,,,,2.452089104180512,-9.520092913081736,-0.3294910429776442,0.6704105602764867,-0.34631219214792874,0.6313220414901177,-0.1949474272286031,-0.24096448933911593,-1.7955583256399854
83,4.132651200000001,0.01704886183,-9.840482712,0.9921240806999999,4.29465818,-0.3857208788,-0.2937011719,-1.763615489,4.306099378,0.5719057322,-0.7969266176,0.39155310390000003,0.0,1.0,0.0,0,30.0,,,,,,1.250927253362548,-9.665331527275336,0.5457550804686266,0.5948409023421604,-0.6614677247786173,0.46494817317967624,-0.3186823615722699,-0.27684164165570807,-1.7713024337007595
84,4.1826512000000005,0.01704886183,-9.840482712,0.9921240806999999,4.34465818,0.9012659192,0.39272975920000003,-1.9060702319999998,4.356099378,0.2557159364,-0.9933140278,0.3438306451,0.0,1.0,0.0,0,30.0,,,,,,0.6422770854186938,-9.744730794717594,0.8413651488276963,0.33467540426217157,-0.8935579386366899,0.3809056284115946,0.47257144838115117,0.17867269828354798,-1.8736387790725697
85,4.1826512000000005,1.5107684140000002,-9.792626381,0.6810571551000001,4.39465818,0.7207149267,1.007080078,-3.0596828460000003,4.406099378,-0.1590493619,-0.731107831,0.18653747440000001,0.0,1.0,0.0,0,30.0,,,,,,1.0706883424349685,-9.76644274870018,0.7352003906238272,-0.04409396580207475,-0.7799418462449629,0.24603502345114966,0.633516363623606,0.7422443208735268,-2.7742650150551214
86,4.2826512,0.7088736892,-9.265906334,2.1774685380000003,4.44465818,0.7207149267,1.007080078,-3.0596828460000003,4.456099378,-0.4302655458,-0.42308807369999996,0.1900498569,0.0,1.0,0.0,0,30.0,,,,,,0.8922116376130537,-9.539540345664044,1.6903495733430147,-0.3403520758285964,-0.5303616411069151,0.20718733608402246,0.6900730196386148,0.9224140309292533,-2.9909979291023503
87,4.3326512,0.6059823632,-8.19093132,0.7193422914000001,4.49465818,0.7207149267,1.007080078,-3.0596828460000003,4.506099378,-0.40896224979999996,-0.16859383879999998,0.21196399629999998,0.0,1.0,0.0,0,30.0,,,,,,0.7510198498946989,-8.928190962078007,1.0472952194702299,-0.39298754023543025,-0.2773446093037618,0.21050182479274565,0.709947243902124,0.9800129644461407,-3.0431540335491163
88,4.382651200000001,1.221236825,-7.966005802000001,1.17906332,4.54465818,-0.016377195719999998,-0.2971773148,0.8781108856000001,4.556099378,-0.2520508468,-0.1516428292,0.08651123941,0.0,1.0,0.0,0,30.0,,,,,,0.9829694835261369,-8.49201465500616,1.1345592929966168,-0.2848655535748712,-0.18942995493846165,0.12446568711085933,0.23885597785089274,0.11113104050051548,-0.06552937126796365
89,4.4326512000000005,0.4935196638,-8.531010627999999,3.233002424,4.59465818,-0.016377195719999998,-0.2971773148,0.8781108856000001,4.606099378,-0.2638096511,-0.5396835804,-0.001832541777,0.0,1.0,0.0,0,30.0,,,,,,0.7415326312280733,-8.509692249807086,2.5242635896914902,-0.26871215911577895,-0.43439407869345337,0.0368282929009075,0.0733127132774345,-0.16664413134102135,0.6510267806756197
90,4.4826512,-0.03320041299,-9.759127617,3.652045488,4.64465818,-0.016377195719999998,-0.2971773148,0.8781108856000001,4.656099378,-0.5783196688000001,-0.5600705743,-0.049096848820000004,0.0,1.0,0.0,0,30.0,,,,,,0.35937066072056373,-9.076084382044069,3.2711427054396385,-0.5062328374886564,-0.5222910492912511,-0.022794518784435523,0.01514017979926608,-0.25544681438132816,0.8234637991461882
91,4.5326512,-0.1193420291,-9.376275063,4.135694981,4.69465818,-0.3335576355,0.7223749161,0.18562722210000002,4.706099378,-0.06016845629,-0.43148723240000003,0.2006633282,0.0,1.0,0.0,0,30.0,,,,,,0.12323024278897779,-9.212166362830065,3.843696706855616,-0.16402694416400554,-0.45878370544085745,0.13226120602970098,-0.21102389556430182,0.40977248791824655,0.3391206186717207
92,4.5826512,-0.059521462770000005,-9.534201622000001,3.494119167,4.74465818,0.8087519406999999,-2.8092288969999997,1.793990612,4.756099378,-0.11865708230000001,0.1597365588,0.38391751049999995,0.0,1.0,0.0,0,30.0,,,,,,0.03308209120213862,-9.358150894650205,3.6121872599344433,-0.1292206813085317,-0.026196392877842145,0.3068836291258201,0.4503988290512674,-1.7801377878911704,1.4438806545109504
93,4.632651200000001,-0.5264210105,-8.681758881,2.912364244,4.79465818,0.8087519406999999,-2.8092288969999997,1.793990612,4.806099378,-0.31153211,-0.3280249834,-0.5027272701,0.0,1.0,0.0,0,30.0,,,,,,-0.2429107936315319,-9.051529899957115,3.148726021910322,-0.2690840013570868,-0.23729249818103745,-0.2548993044855028,0.6828252928524988,-2.480236024965988,1.7097377352000769
94,4.6826512000000005,0.9457631706999999,-11.20289612,3.5874392989999997,4.84465818,0.8087519406999999,-2.8092288969999997,1.793990612,4.856099378,-0.5369347334000001,0.08467870206,-0.35238251090000006,0.0,1.0,0.0,0,30.0,,,,,,0.3434408379378904,-10.026783948035835,3.4392660497035963,-0.4745702560232212,-0.012108839234175023,-0.32254217061815943,0.7645008371975223,-2.7040522913078164,1.7737154181897161
95,4.7326512,-1.3716856240000002,-13.48206043,5.086243629,4.89465818,-0.4496144354,-1.776398659,-1.659831047,4.906099378,-0.6065713167,0.38109233979999996,-0.1851630807,0.0,1.0,0.0,0,30.0,,,,,,-0.5026004059505661,-11.593124606414829,4.529985061843387,-0.5758371197289704,0.2628924034903395,-0.22721585000328565,-0.022969705879717583,-2.0729627143405294,-0.8335587254241836
96,4.7826512,3.907479286,-4.3271207810000005,-0.879960537,4.94465818,-0.2147759497,-0.1617469788,0.003715753555,4.956099378,-0.4992149174,0.330239296,-0.1131594554,0.0,1.0,0.0,0,30.0,,,,,,1.6728131223945213,-8.299310850218978,0.9472219497055945,-0.5170550911829987,0.30999419288552826,-0.148072972801912,-0.14737450532877944,-0.7727486174708258,-0.19777175639784783
97,4.8326512,0.1079761237,-11.24118137,0.30029922719999996,4.99465818,-0.2147759497,-0.1617469788,0.003715753555,5.006099378,-0.6212316751,0.2689255178,-0.03023693897,0.0,1.0,0.0,0,30.0,,,,,,0.9009069859364435,-9.632915102515136,0.5187941912128361,-0.5969759332891433,0.2812711439991414,-0.06630743230175755,-0.19109082552726175,-0.3570797167429838,-0.044771591618056994
98,4.882651200000001,0.3544368446,-9.412167549,1.8565312619999998,5.04465818,-0.2147759497,-0.1617469788,0.003715753555,5.056099378,-0.6943042873999999,0.08032641559999999,-0.06757497787000001,0.0,1.0,0.0,0,30.0,,,,,,0.6313430276149861,-9.532846158782005,1.4047171538103842,-0.671643039158582,0.1407322723423167,-0.06718697267249958,-0.2064529068951816,-0.2241934209796429,-0.007952575873691421
99,4.9326512000000005,0.7902296781999999,-9.977172852,0.3840480447,5.09465818,-0.3602710366,-0.27476310730000003,-0.6691744328,5.106099378,-0.7572978734999999,0.036345411089999995,-0.132324785,0.0,1.0,0.0,0,30.0,,,,,,0.709718973898152,-9.734267656496497,0.7287740103716872,-0.7373546053305786,0.06772507373268989,-0.11238561232627392,-0.30621876017435434,-0.2585963498608105,-0.5100534409957583
100,4.9826512,-0.1073779166,-10.04895782,-0.08015955985,5.14465818,-0.3602710366,-0.27476310730000003,-0.6691744328,5.156099378,-0.7879929543,0.1405712217,-0.03985778242,0.0,1.0,0.0,0,30.0,,,,,,0.3066596748407832,-9.876922522897479,0.19305377019249637,-0.7762026778513273,0.11867299121552485,-0.062059094873406745,-0.34127686087579007,-0.26959471364126875,-0.6308824589565992
101,5.0326512,-0.03320041299,-10.26670456,0.44865423439999996,5.19465818,-0.3602710366,-0.27476310730000003,-0.6691744328,5.206099378,-0.8570187092,0.09429954737,-0.020310672,0.0,1.0,0.0,0,30.0,,,,,,0.13901276493897552,-10.05361792030512,0.3623264362327008,-0.838202073817817,0.10162643158141207,-0.03309017721542544,-0.3535964109462207,-0.27311080979299823,-0.6599595878674046
102,5.0826512,1.03698957,-9.699306488,0.06340979785,5.24465818,0.3095627427,0.09926319122000002,0.1162693202,5.256099378,-0.8175426722,0.3197785318,-0.2544178963,0.0,1.0,0.0,0,30.0,,,,,,0.5819686808192701,-9.893002002998424,0.1643674205544163,-0.8223528616889846,0.2541999788292246,-0.18666782224868161,0.07652609113249242,-0.019782042969174463,-0.07052776216093914
103,5.132651200000001,0.1965105534,-9.986744881,0.46540400390000003,5.29465818,0.7415060997,0.48223781590000003,1.2992531059999999,5.306099378,-0.7511894106999999,0.1498102844,-0.3545204699,0.0,1.0,0.0,0,30.0,,,,,,0.391829072553426,-9.935497381126126,0.36373038019402987,-0.7677586072526069,0.18119079870394045,-0.30313951612200274,0.5078295927742774,0.32174575276964473,0.9696195829896513
104,5.1826512000000005,0.4576273263,-9.97956562,-0.4776672125,5.34465818,0.7415060997,0.48223781590000003,1.2992531059999999,5.356099378,-0.6505523324,0.03489464894,-0.3077143133,0.0,1.0,0.0,0,30.0,,,,,,0.4242861756502577,-9.955474328054844,-0.19348931871848313,-0.6778418156884999,0.07887263400620068,-0.30631393356635855,0.6593912854420848,0.43092968160454664,1.2199278197989374
105,5.2326512,1.424626827,-9.548559189,0.3266202807,5.39465818,0.7415060997,0.48223781590000003,1.2992531059999999,5.4060993779999995,-0.3541387022,0.2476985604,-0.21898874640000002,0.0,1.0,0.0,0,30.0,,,,,,0.9177363485118013,-9.771012178662241,0.15095582461740692,-0.42950745453557265,0.19694791462990616,-0.24571964084231254,0.7126506413176816,0.4658349820356176,1.2801637216706117
106,5.2826512,0.1701895148,-9.675378799,0.12323036789999998,5.44465818,-1.448030949,-0.247926712,1.627795458,5.456099377999999,-0.2583884001,0.4879906178,-0.05352549255,0.0,1.0,0.0,0,30.0,,,,,,0.5489848499572004,-9.727659801261263,0.13259450438155782,-0.2982305551388329,0.40050047072965306,-0.11235756215622753,-0.6887592111189786,-0.01974233880811488,1.5441389573016655
107,5.3326512,-0.7226324677,-9.833304405,-1.107278705,5.49465818,-1.77386868,-0.1334161758,1.0758003,5.506099377999999,-0.1626380831,0.6123743653,-0.06978929788,0.0,1.0,0.0,0,30.0,,,,,,-0.07828125608133141,-9.775550451764687,-0.6885176336050389,-0.1942084790049919,0.5486830994436024,-0.08281976269399544,-1.3925570810740557,-0.09707548472436346,1.1885045469555358
108,5.382651200000001,-0.07148557901000001,-10.38873863,0.9035896659,5.54465818,-1.77386868,-0.1334161758,1.0758003,5.556099378,-0.10430216789999999,0.6730773448999999,-0.09429954737,0.0,1.0,0.0,0,30.0,,,,,,-0.0749290699851816,-10.053519981147774,0.36586326524545676,-0.12523531995819345,0.6356832762354676,-0.09078549922355052,-1.6398743322912313,-0.12179832370159242,1.102922227664453
109,5.4326512000000005,-0.5503492354999999,-9.96042347,0.05144568533,5.59465818,-1.77386868,-0.1334161758,1.0758003,5.606099378,0.1146102175,0.39918869729999995,-0.18172706660000001,0.0,1.0,0.0,0,30.0,,,,,,-0.3094453445157024,-10.011317612701276,0.15763867470814594,0.05876627234232773,0.47028117021501686,-0.1538891710928609,-1.7267825560309873,-0.12970203381001008,1.0823271076137464
110,5.4826512,0.6849454641,-10.01545811,-1.566999674,5.64465818,-0.42997026439999997,-2.515199661,-0.3087291718,5.6560993779999995,0.635891974,0.35261157159999995,-0.1450762302,0.0,1.0,0.0,0,30.0,,,,,,0.1810698771144938,-10.013194575250221,-0.9845115639816928,0.5015180916077762,0.387984148759144,-0.1477739374529823,-0.8856750413229335,-1.7525735838449157,0.02602421315365544
111,5.5326512,0.5341976285,-10.73360443,-2.227717876,5.69465818,-0.42997026439999997,-2.515199661,-0.3087291718,5.706099377999999,1.3564627169999999,-0.05123481527,0.1044548824,0.0,1.0,0.0,0,30.0,,,,,,0.3552614884276194,-10.33976967078645,-1.807831066126037,1.1574034337775176,0.08079849573822917,0.027245749798443963,-0.5901066581321976,-2.271393703431035,-0.22817180655600522
112,5.5826512,1.221236825,-12.69661617,-2.328216314,5.74465818,-0.42997026439999997,-2.515199661,-0.3087291718,5.756099377999999,1.840101004,-0.08956547827,0.43209809060000004,0.0,1.0,0.0,0,30.0,,,,,,0.7824316517526004,-11.40817172726912,-2.1524587591897957,1.6811465112631507,-0.038352481089970775,0.3081697540729985,-0.4862428029004341,-2.4372566865374714,-0.28934329134045356
113,5.632651200000001,0.2419741899,-11.27707386,1.487737536,5.79465818,-0.28611534829999996,0.6723632812,0.381280601,5.806099378,1.6763175730000002,0.280531615,0.570913136,0.0,1.0,0.0,0,30.0,,,,,,0.5158336408022757,-11.34874264239162,0.25827916242276094,1.6774419086523382,0.18467208597935042,0.490485417097407,-0.35644089785852356,-0.3217593919339503,0.2198970385488892
114,5.6826512000000005,0.09361918271,-11.92582798,0.8246265054,5.84465818,1.70158422,-0.25958538059999997,-0.6233855486,5.856099378,1.3569971319999998,0.2476222068,0.5049416422999999,0.0,1.0,0.0,0,30.0,,,,,,0.30756279126595537,-11.61034608622509,0.633345479066725,1.4316072364088224,0.22869881423546162,0.500516483381214,0.9783863575967664,-0.27946195551695424,-0.42045220601931443
115,5.7326512,0.35922250149999996,-9.632308006,1.167099237,5.89465818,1.70158422,-0.25958538059999997,-0.6233855486,5.9060993779999995,1.218411207,-0.1184280142,0.5996229649,0.0,1.0,0.0,0,30.0,,,,,,0.33304560345850176,-10.713664885047892,0.9868265338292754,1.2680502686179598,-0.014078456813333279,0.5692857279108022,1.447449737527201,-0.26593977563797355,-0.5745502682768494
116,5.7826512,2.07098794,-9.651450157000001,0.6930212379,5.94465818,1.70158422,-0.25958538059999997,-0.6233855486,5.956099377999999,0.9194014668000001,-0.5246414542,0.5347967744,0.0,1.0,0.0,0,30.0,,,,,,1.1903415105530568,-10.232143327012317,0.7922525298285603,1.0005783975280562,-0.37116146235569847,0.5453541016129335,1.6122803951966218,-0.2616168340091509,-0.6116334896485549
117,5.8326512,2.9856443410000004,-12.01914787,0.1447657645,5.99465818,1.24689579,-0.1356620789,-2.1060884,6.006099377999999,0.6349757314,-0.48745611310000003,0.6768951416,0.0,1.0,0.0,0,30.0,,,,,,2.075932324418068,-11.04222549832611,0.36345123115725547,0.720100080393079,-0.4524968580409282,0.6366294431422477,1.3752933315352736,-0.17592888933225886,-1.7464524547329603
118,5.882651200000001,0.280259341,-9.725627899,0.1495514214,6.04465818,0.22288063170000003,0.11408805849999999,-1.537914515,6.056099378,0.5790068507,-0.6904101372,0.4010975957,0.0,1.0,0.0,0,30.0,,,,,,1.1901589204665628,-10.4453874856246,0.22179502887536368,0.6118580042775944,-0.6188911897957181,0.47319565989909246,0.6278428422313932,0.02137176953408354,-1.5880985239134675
119,5.9326512000000005,1.5302101369999999,-9.950852394,0.6954140662999999,6.09465818,0.22288063170000003,0.11408805849999999,-1.537914515,6.106099378,0.19455485050000002,-0.5686988235,0.07925742865,0.0,1.0,0.0,0,30.0,,,,,,1.3579001109247912,-10.221205593280668,0.5354515685862594,0.2917167767832717,-0.58378711621353,0.19984487445463928,0.3651858943674164,0.08444734161201804,-1.5499911409546538
120,5.9826512,-0.06909275055,-9.450452805,1.861316919,6.14465818,0.22288063170000003,0.11408805849999999,-1.537914515,6.1560993779999995,-0.4885250926,-0.3250471056,-0.08979454637,0.0,1.0,0.0,0,30.0,,,,,,0.6539900248480548,-9.871809116334505,1.4135124258614788,-0.3068590727441881,-0.4028267623867803,-0.0011337483236054657,0.2728872428199798,0.10461213891081413,-1.5408207172812116
121,6.0326512,1.345663667,-8.150253296,1.954637051,6.19465818,0.9752926826,1.9558653830000001,-1.23525095,6.206099377999999,-0.44225341079999997,-0.3039728701,-0.137898773,0.0,1.0,0.0,0,30.0,,,,,,0.9951802759946309,-9.091396061288453,1.7718748731872416,-0.4107291470283756,-0.333689270750019,-0.09603397363404324,0.7284647366789676,1.36403331268102,-1.3087853679034867
122,6.0826512,2.14307189,-7.33639431,1.4542379380000001,6.24465818,0.9752926826,1.9558653830000001,-1.23525095,6.256099377999999,-0.2749576271,-0.406137079,0.021303297949999998,0.0,1.0,0.0,0,30.0,,,,,,1.561414702633764,-8.295821347952016,1.5615182487224035,-0.30656971122171006,-0.38435859313812926,-0.014614520518550528,0.8885564026352831,1.7666610153914997,-1.2529467797929184
123,6.132651200000001,1.3935201169999998,-7.4010005,1.7584255930000001,6.29465818,0.9752926826,1.9558653830000001,-1.23525095,6.306099378,-0.1889808774,-0.20394663510000002,0.0827698037,0.0,1.0,0.0,0,30.0,,,,,,1.4785953027947674,-7.890182527767497,1.6919211073187896,-0.21635943302223215,-0.2581801498713461,0.05295973200124461,0.9448132236023904,1.8953781358958568,-1.2395093965211734
124,6.1826512000000005,-0.5982056856,-9.639486312999999,4.382155418,6.34465818,0.2863699198,0.12488746640000001,1.6890816690000001,6.356099378,-0.1146865711,-0.308096081,-0.1019351333,0.0,1.0,0.0,0,30.0,,,,,,0.45414647618606074,-8.683174247772667,3.4735420269214705,-0.13835936392835851,-0.29309088725144294,-0.05452065386309486,0.5177494037683443,0.6909003346938876,0.9843253001266936
125,6.2326512,-0.45942193270000004,-9.969994545,4.013660908,6.39465818,1.404137969,-1.020956039,0.6116485596,6.4060993779999995,-0.05803048982999999,0.4349232614,0.10399674619999999,0.0,1.0,0.0,0,30.0,,,,,,0.0034995005103949928,-9.266513659437367,3.831238415368363,-0.07673369893858872,0.21607542836444726,0.05547338171839704,1.092657652258421,-0.4736881248994034,0.7013320628387787
126,6.2826512,0.1606182158,-9.404989243,4.695914268,6.44465818,1.404137969,-1.020956039,0.6116485596,6.456099377999999,-0.8163210154,0.7218687534,0.049707695839999996,0.0,1.0,0.0,0,30.0,,,,,,0.08100335591794947,-9.329287199270503,4.403874256885998,-0.6441207151908465,0.5698225694935051,0.05147261551202059,1.2946825997447247,-0.8459985051397929,0.6332306168419768
127,6.3326512,1.204487085,-9.869196892,3.6903307439999997,6.49465818,1.091415286,3.175116539,-3.2570917610000003,6.506099377999999,-0.4483618736,-0.051540236919999996,-0.4798968732,0.0,1.0,0.0,0,30.0,,,,,,0.6351978091880525,-9.574038236432473,3.931326551749425,-0.49394098312376533,0.13524720940377422,-0.31724068923224885,1.1628441940331198,1.8895955820125767,-2.320897730562566
128,6.382651200000001,3.4669008260000003,-12.51236916,5.2345986369999995,6.54465818,1.912903309,0.01842403412,-0.9974215031,6.556099378,-0.5929799675999999,0.46248772740000005,-0.2463241518,0.0,1.0,0.0,0,30.0,,,,,,2.0320263202271094,-10.906037920883273,4.794424907454622,-0.5699204282058643,0.36411618012082175,-0.26803223551370975,1.6493296800603359,0.6166238400266368,-1.3159119578164395
129,6.4326512000000005,0.2850449979,-6.862316132,-1.5023934840000002,6.59465818,1.912903309,0.01842403412,-0.9974215031,6.606099378,-0.6317687631000001,0.5144860743999999,-0.04604261369,0.0,1.0,0.0,0,30.0,,,,,,1.1702716428547788,-9.072944135671069,0.6243259212186025,-0.617368432514511,0.4692834838268447,-0.11399530110815562,1.8202825321469478,0.20966412014449876,-1.074065244495183
130,6.4826512,2.863610506,-8.720044136,1.121635556,6.64465818,1.912903309,0.01842403412,-0.9974215031,6.6560993779999995,-0.5403707622999999,0.2919086218,-0.0001527118147,0.0,1.0,0.0,0,30.0,,,,,,2.005565453450976,-8.91296804685489,0.9536716758214745,-0.5582983574007838,0.345229157198748,-0.035000781836933115,1.880356015274278,0.0795620855555978,-1.015865582041783
131,6.5326512,2.863610506,-8.720044136,1.121635556,6.69465818,-0.14683750269999998,-0.038380622860000005,-0.5711378455,6.706099377999999,-0.5868715047999999,0.39582902189999997,0.025044737379999998,0.0,1.0,0.0,0,30.0,,,,,,2.428823749371403,-8.825512074276205,1.0649065826938164,-0.5802187344523777,0.3806182313586513,0.006664353809281813,0.5655260180569928,-0.000675204905625601,-0.6781601977905218
132,6.5826512,0.045762732630000004,-9.914959908,0.4175475538,6.74465818,0.08193513751,-0.009044647217,-0.42107766869999996,6.756099377999999,-0.6623111367,0.5074613689999999,-0.035581853239999996,0.0,1.0,0.0,0,30.0,,,,,,1.2533023219613002,-9.319378902044178,0.6361898781072843,-0.6431973201406285,0.4693311405685066,-0.022649972557159666,0.25187081420982654,-0.0063689979575208625,-0.4829437830009625
133,6.632651200000001,0.3978067636,-10.1709919,0.6451647878,6.79465818,0.08193513751,-0.009044647217,-0.42107766869999996,6.806099378,-0.7496622801,0.5426614285,-0.07108735293,0.0,1.0,0.0,0,30.0,,,,,,0.8313016460309303,-9.705430804443157,0.6421335562246823,-0.7248737288835496,0.5206176609931596,-0.056260307680215935,0.1416511813337063,-0.008189261792954651,-0.4359655574543402
134,6.6826512000000005,0.4935196638,-9.682557106,0.7193422914000001,6.84465818,-0.1011630893,0.31315612789999997,-0.07217404246,6.856099378,-0.6936933994,0.5736619234,-0.044362783430000004,0.0,1.0,0.0,0,30.0,,,,,,0.664679828501883,-9.695061734409979,0.693265421251485,-0.7009532076657883,0.5577163241282999,-0.048004704796108764,-0.01583723006642157,0.21042436612095808,-0.15971934372098362
135,6.7326512,0.9098708034,-10.13270664,0.15912270550000002,6.89465818,-0.130233407,-0.3239345551,0.46666216850000003,6.9060993779999995,-0.6682668924,0.5563291311,-0.008017370477,0.0,1.0,0.0,0,30.0,,,,,,0.78562815618772,-9.893454255535962,0.3395267775245111,-0.6758773437882071,0.5567461342616221,-0.02025779328385424,-0.09003415487469466,-0.1531039311637372,0.3159253977696459
136,6.7826512,0.7782655358,-9.579665184,0.07058826834,6.94465818,-0.2744545937,0.1109619141,0.1044742316,6.956099377999999,-0.6523848771999999,0.33886751530000003,-0.05657972767999999,0.0,1.0,0.0,0,30.0,,,,,,0.7819963070953723,-9.751207872912696,0.16142092552581358,-0.6578546976135221,0.404363857268735,-0.04546131126769929,-0.209648549287818,0.026542002088604466,0.15535929978053745
137,6.8326512,0.2659024298,-10.28584766,0.31465616820000003,6.99465818,-0.2744545937,0.1109619141,0.1044742316,7.006099377999999,-0.5000548363,0.2916795611,-0.08353336155,0.0,1.0,0.0,0,30.0,,,,,,0.5274164171848269,-9.993569966354324,0.26290171955351493,-0.5367958442459785,0.3255535099773529,-0.07187922154814885,-0.2516815029171732,0.08397348800696644,0.11671956564442618
138,6.882651200000001,0.332901448,-10.13270664,0.029910283160000002,7.04465818,-0.8841745256999999,-0.07748603821000001,1.101399541,7.056099378,-0.36192700270000006,0.2365505993,-0.1126249656,0.0,1.0,0.0,0,30.0,,,,,,0.43146565780076096,-10.056643191711512,0.10860199352144756,-0.40264223174413794,0.26330570315419766,-0.100152387894267,-0.6619140692973144,-0.025868613096717008,0.8644393548496141
139,6.9326512000000005,0.09601201117000001,-10.1279211,-0.7052844762999999,7.09465818,-0.5020942688000001,-0.1220397949,0.8463227749,7.106099378,-0.2938175201,0.2817533016,-0.1605001241,0.0,1.0,0.0,0,30.0,,,,,,0.26599236662366565,-10.088954786236952,-0.43039832879605283,-0.319155499292303,0.276207781720098,-0.14202722963863623,-0.5582555552089248,-0.09129457417153666,0.8506824737399226
140,6.9826512,-0.3637090325,-9.96042347,0.13519448039999998,7.14465818,-0.5020942688000001,-0.1220397949,0.8463227749,7.1560993779999995,-0.3087832928,0.31718245149999996,-0.2544178963,0.0,1.0,0.0,0,30.0,,,,,,-0.04462808429219872,-10.030689166069925,-0.055831705834804624,-0.3111982842620148,0.3048650841600459,-0.22001427065975365,-0.5218295586777989,-0.11221077357631681,0.8473719229120845
141,7.0326512,-0.014057832769999997,-10.14467049,-0.3125624657,7.19465818,-0.5020942688000001,-0.1220397949,0.8463227749,7.206099377999999,-0.37635827060000004,0.2970244884,-0.2607554197,0.0,1.0,0.0,0,30.0,,,,,,-0.02954832533803388,-10.082359004131648,-0.22585291571249516,-0.36118687848500675,0.29938144453882337,-0.24828424857774,-0.5090293248045429,-0.11889752896138828,0.8465752491096208
142,7.0826512,-0.014057832769999997,-10.14467049,-0.3125624657,7.24465818,-1.017380595,-0.033697128300000004,-0.06555271149,7.256099377999999,-0.34108182789999997,0.36330139640000003,-0.299238801,0.0,1.0,0.0,0,30.0,,,,,,-0.021907142083874533,-10.110605950122832,-0.283276742140355,-0.3457629462166747,0.3440864635666796,-0.28364123051619494,-0.8387440232369514,-0.06093507085586505,0.1539480569627626
143,7.132651200000001,0.43848475810000004,-9.754341125,-0.932602644,7.29465818,-0.6152682304,-0.4730443954,1.0264183279999999,7.306099378,-0.27350685,0.3737621605,-0.4405735731,0.0,1.0,0.0,0,30.0,,,,,,0.20519595763303625,-9.949104523972112,-0.7132960179968243,-0.2903304503830295,0.3648413696615057,-0.39253540657493835,-0.693798474913235,-0.3412960700403622,0.8164610599218343
144,7.1826512000000005,0.0050847479139999995,-9.797411919,-1.660319805,7.34465818,-0.6152682304,-0.4730443954,1.0264183279999999,7.356099378,-0.284807533,0.1051420867,-0.3103103936,0.0,1.0,0.0,0,30.0,,,,,,0.10648467276187207,-9.880339463815634,-1.3404671843140896,-0.28609345019280114,0.18321010975365254,-0.33548008646527805,-0.6428640573511643,-0.43092542309732856,0.975892761985066
145,7.2326512,0.32093733550000003,-10.28106117,-0.8297112584,7.39465818,-2.581346035,-1.158787727,0.0304557085,7.4060993779999995,-0.1062110662,-0.1070509851,-0.026648212220000002,0.0,1.0,0.0,0,30.0,,,,,,0.2122703402004837,-10.061994016734513,-1.0022165573510837,-0.14809361320529763,-0.019795796800687493,-0.12118396413778806,-1.9001560872738525,-0.926095492576459,0.257972206982907
146,7.2826512,0.7878368497,-10.20209885,-0.7148557901,7.39465818,-0.6152682304,-0.4730443954,1.0264183279999999,7.456099377999999,0.5079958439,0.0016798300199999997,-0.09681928902999999,0.0,1.0,0.0,0,30.0,,,,,,0.4961870171337971,-10.125506124140937,-0.8119104742595811,0.35523659702137605,-0.004775943403366548,-0.10427749873330217,-1.0667827155491305,-0.6178815049434523,0.8414941494148975
147,7.3326512,-0.313459754,-10.30020428,-1.5358930830000002,7.49465818,-0.01692116261,-1.271803856,1.845269442,7.506099377999999,1.0837193729999999,-0.02428117767,-0.013896775430000001,0.0,1.0,0.0,0,30.0,,,,,,0.09680272885859836,-10.204700023981614,-1.29137152163752,0.9141045756023747,-0.018417722598163544,-0.0415629923882693,-0.3858465096644351,-1.0627496813287372,1.6037140266798589
148,7.382651200000001,-0.9406784176999999,-11.87079334,-1.662712693,7.54465818,-0.01692116261,-1.271803856,1.845269442,7.556099378,1.539869547,-0.143625468,0.3204657435,0.0,1.0,0.0,0,30.0,,,,,,-0.4149681866668194,-10.95997090241174,-1.5372940410504323,1.394170839655071,-0.10598685369066076,0.209646033466262,-0.14656293424752612,-1.2049707711416113,1.7871398792080508
149,7.4326512000000005,0.9771689176999999,-11.24835968,-0.6212365627,7.59465818,-0.01692116261,-1.271803856,1.845269442,7.606099378,1.7235054969999999,-0.048256933689999996,0.5297572613,0.0,1.0,0.0,0,30.0,,,,,,0.27174817708720916,-11.090702862667797,-0.9306304652362305,1.646825535617148,-0.06561108527699475,0.4317688146777384,-0.06247777477225659,-1.2504378093818198,1.831280742467116
150,7.4826512,1.429412484,-10.11595726,-0.06340979785,7.64465818,0.8533723354,-0.6493501663,-0.4847514629,7.6560993779999995,1.511083364,0.1634016484,0.5292227864,0.0,1.0,0.0,0,30.0,,,,,,0.8428032986973597,-10.648832674935452,-0.356309307941457,1.5426886152732648,0.09455828787587142,0.49939139509468905,0.5315391196022518,-0.8415134726822617,0.07259451350710511
151,7.5326512,0.375972271,-9.184550285,-0.09242277592,7.69465818,0.8533723354,-0.6493501663,-0.4847514629,7.706099377999999,1.2786560059999998,0.1940203607,0.578014195,0.0,1.0,0.0,0,30.0,,,,,,0.6125238924118129,-9.98504641860287,-0.18154915269866528,1.3401314984558426,0.16412113533028336,0.5539471665163457,0.7402789180086379,-0.7107833645208511,-0.3506278800548567
152,7.5826512,1.6187444930000001,-10.14945602,0.3242274821,7.74465818,0.8533723354,-0.6493501663,-0.4847514629,7.756099377999999,1.105022669,-0.09147437662,0.6462764143999999,0.0,1.0,0.0,0,30.0,,,,,,1.1088745388406138,-10.05957632988219,0.15340391419903554,1.1597637523228075,-0.014639985380696635,0.6180137394576929,0.8136308779467804,-0.6689899087489815,-0.45247503815663803
153,7.632651200000001,2.71286273,-12.39751339,-0.03230310604,7.79465818,0.8533723354,-0.6493501663,-0.4847514629,7.806099378,0.8971819282,-0.8060129285,0.5441885591,0.0,1.0,0.0,0,30.0,,,,,,1.9000932591341442,-11.119406386863888,0.03041852559842685,0.9583196301380879,-0.5681188517779061,0.5667870002189613,0.8394070359571075,-0.6556288477820724,-0.47698424128766426
154,7.6826512000000005,1.9944176669999998,-11.49482059,-0.116351001,7.84465818,0.9642490148999999,0.22050189969999998,-2.171683311,7.856099378,0.7622610331,-0.9371923804000001,0.4633276463,0.0,1.0,0.0,0,30.0,,,,,,1.9466218046695196,-11.289588582198817,-0.06678031608173923,0.8079099355176612,-0.8262454405555284,0.49499733010358077,0.9203790681332661,-0.05959066779291611,-1.7638592294652877
155,7.7326512,0.06490531563999999,-9.797411919,0.21415762600000002,7.89465818,0.9642490148999999,0.22050189969999998,-2.171683311,7.9060993779999995,0.6404733658,-0.6982747912,0.1826433241,0.0,1.0,0.0,0,30.0,,,,,,1.0184046765206172,-10.61315733619874,0.11927221946154037,0.6794581170456963,-0.7367439602080038,0.2782572269757818,0.9488329485415067,0.1309583622971215,-2.0735417093432487
156,7.7826512,1.226022482,-9.48873806,0.8676972985,7.94465818,0.9642490148999999,0.22050189969999998,-2.171683311,7.956099377999999,0.5305972099,-0.7057576776000001,0.08933641016,0.0,1.0,0.0,0,30.0,,,,,,1.1208188309387417,-10.10343730732941,0.6149204134227487,0.5652569347787371,-0.715072442694014,0.14716648846628716,0.9588317504552969,0.19187548822505218,-2.1480658389008322
157,7.8326512,0.7447660565,-9.572486877000001,1.782353759,7.99465818,0.1334372014,0.580034256,-0.7760655879999999,8.006099378,0.15935477609999998,-0.7992172837,0.16828842460000001,0.0,1.0,0.0,0,30.0,,,,,,0.935318715314732,-9.86274766941691,1.3880588950125976,0.25386217507262976,-0.7739225608755536,0.16182284161313815,0.42348398862063974,0.4559427477524415,-1.10623319867937
158,7.882651200000001,1.791027784,-8.552546501,2.2492532730000003,8.04465818,-0.3101113737,0.8274173737,-1.46419096,8.056099377999999,-0.26312246920000004,-0.42614230509999995,0.2076880634,0.0,1.0,0.0,0,30.0,,,,,,1.3574247122692606,-9.268809277000715,1.9583891124836845,-0.14275140691077226,-0.5306882888685701,0.19364837516322345,-0.05232317018738858,0.7086596630848868,-1.3780495334405243
159,7.9326512000000005,0.5318048596,-8.727222442999999,2.9697918889999997,8.09465818,-0.3101113737,0.8274173737,-1.46419096,8.106099378,-0.5315134525,-0.2181488276,0.2293731421,0.0,1.0,0.0,0,30.0,,,,,,0.9501611882374501,-9.02329796045259,2.628195581647291,-0.44099683675922874,-0.3121011002862839,0.21843752314024215,-0.21952361743137758,0.7894514054944414,-1.4434612924641237
160,7.9826512,-0.1794617027,-8.672187805,2.335394859,8.14465818,-0.3101113737,0.8274173737,-1.46419096,8.156099378,-0.4660001099,-0.29778802390000003,0.1961583197,0.0,1.0,0.0,0,30.0,,,,,,0.39293839626374394,-8.864133241141971,2.4342868614901425,-0.46017852394497727,-0.30209066799261025,0.20297815090083768,-0.27827849120970427,0.8152799323779119,-1.4592024296637007
161,8.0326512,0.4265206456,-8.188538551,2.517249346,8.19465818,0.13273541630000002,0.19312191010000002,1.102037668,8.206099378,-0.08551861346,-0.40170842409999996,0.1618745178,0.0,1.0,0.0,0,30.0,,,,,,0.40950391994092217,-8.55787368824809,2.489229175229647,-0.1727517874375275,-0.3717623988736476,0.17445664803114186,-0.011696435741479383,0.3920212619972368,0.4856831719757604
162,8.0826512,0.4408775866,-8.214859009,3.264109135,8.24465818,0.13273541630000002,0.19312191010000002,1.102037668,8.256099378,-0.08544225991,-0.5784723759,0.1905079931,0.0,1.0,0.0,0,30.0,,,,,,0.4249799892310997,-8.402378797670302,3.00239724398953,-0.10577079517908296,-0.5163334317066357,0.18559455604434308,0.08198151356296268,0.2567085725992123,0.9537138678303557
163,8.1326512,0.318544507,-8.983553886000001,3.903591156,8.29465818,0.13273541630000002,0.19312191010000002,1.102037668,8.306099377999999,-0.44752198460000003,-0.5091412067000001,0.04245388508,0.0,1.0,0.0,0,30.0,,,,,,0.3724772672744231,-8.665836201222811,3.5992173498278097,-0.3679510453651098,-0.5113032565466791,0.08627031753841137,0.1149003016279441,0.21345009925084865,1.066344005087521
164,8.1826512,-0.13848461210000002,-9.835697174,5.471487999,8.34465818,1.162291408,-0.45459270479999997,-0.1120545864,8.356099378,0.1543152928,-0.2974826097,0.09048175067,0.0,1.0,0.0,0,30.0,,,,,,0.12042890024478214,-9.19615579060989,4.839137806540976,0.03271447815294687,-0.3617590874756147,0.08919259941471182,0.7942341850033444,-0.2410243250297596,0.17152338460637928
165,8.2326512,-0.6628118753,-9.498309135,4.547559261,8.39465818,1.799463749,-4.171229362,3.164761305,8.406099378,-0.2965663373,0.2811424434,-0.006337540224,0.0,1.0,0.0,0,30.0,,,,,,-0.26592978216200885,-9.333127483383226,4.646038479195992,-0.21989891213632196,0.08788025592687565,0.022904951676500168,1.4462222527493012,-2.9147716671833868,2.4444478707430473
166,8.2826512,1.192523003,-9.378668785,2.098206282,8.44465818,1.799463749,-4.171229362,3.164761305,8.456099378,-0.7790593505,0.2853420377,-0.45729553700000003,0.0,1.0,0.0,0,30.0,,,,,,0.45349892206950365,-9.353772196716323,2.958724060495315,-0.6488683734571257,0.22598318713326965,-0.3103025675115618,1.6753333422040337,-3.769549062085268,2.9914201080688585
167,8.3326512,1.91066885,-12.74716473,6.321538447999999,8.49465818,1.799463749,-4.171229362,3.164761305,8.506099378,-0.6647545099000001,0.4367557764,-0.3516189456,0.0,1.0,0.0,0,30.0,,,,,,1.172294815904416,-10.892059715199894,5.185764447811927,-0.6610556938324932,0.3733955731571916,-0.3389716925312126,1.755843851380388,-4.042815119545557,3.1230472827638365
168,8.3826512,0.49591249229999995,-9.87398243,3.084647417,8.54465818,0.28012824059999997,-2.193112373,-1.2979002,8.556099377999999,-0.6000810862,0.6844543815,-0.37368580700000004,0.0,1.0,0.0,0,30.0,,,,,,0.8386474988780606,-10.430546475041718,3.794289348006555,-0.6142779842272922,0.5909472068155799,-0.36305955631393233,0.7987003250154854,-2.784448760978199,-0.23401288183967717
169,8.432651199999999,2.9976086619999998,-4.353441715,0.18065811690000003,8.59465818,0.6587296724,0.9816083908,-0.7337994576000001,8.606099378,-0.7195017337999999,0.4656946659,-0.18355959649999998,0.0,1.0,0.0,0,30.0,,,,,,1.9036244717511905,-7.675682627391348,1.4011442712025346,-0.6950021772631808,0.5033467461750726,-0.23850587987642619,0.7079158926889705,-0.22237243060435086,-0.6135273661677438
170,8.4826512,0.5748756528,-12.88116264,0.08255238086,8.64465818,0.6587296724,0.9816083908,-0.7337994576000001,8.656099378,-0.8908443451000001,0.37964156270000005,0.07047650218,0.0,1.0,0.0,0,30.0,,,,,,1.248176416767171,-10.035422877504722,0.5279002988913258,-0.8452458344951241,0.41682849291203145,-0.02410532130407217,0.6760138975071174,0.5967045617088955,-0.7048563512953177
171,8.532651199999998,1.307378531,-9.112766266,1.4327025409999998,8.69465818,0.6587296724,0.9816083908,-0.7337994576000001,8.706099378,-0.8490777016,0.5748836398,-0.06352811307,0.0,1.0,0.0,0,30.0,,,,,,1.2773797618576181,-9.617165591567531,1.1271100393338478,-0.84818551663573,0.5273707906957361,-0.051460500969103165,0.6648034149331603,0.8585574625703701,-0.7268343886795835
172,8.582651199999999,0.6083751321,-10.06809998,-0.8057830334,8.74465818,0.5655766128999999,0.3547811508,0.43183636670000003,8.756099378,-0.7888329029000001,0.5927509069,-0.1156028435,0.0,1.0,0.0,0,30.0,,,,,,0.9473717294114776,-9.821582477781522,-0.15295791590203445,-0.8026521473337758,0.5730970351187146,-0.09596839157240986,0.6004452889731678,0.515834739010026,0.1530058383037265
173,8.632651199999998,-0.4402793646,-10.79581738,-0.527916491,8.79465818,0.5655766128999999,0.3547811508,0.43183636670000003,8.806099377999999,-0.7624900937000001,0.4308763742,-0.07414158434,0.0,1.0,0.0,0,30.0,,,,,,0.2628682344107226,-10.263221153442393,-0.4012760786303363,-0.7718411433219807,0.4736292293962289,-0.08082293365980038,0.5778295984668439,0.40626880052362274,0.364736663668848
174,8.682651199999999,1.226022482,-9.605986595,1.037886858,8.84465818,0.5655766128999999,0.3547811508,0.43183636670000003,8.856099378,-0.6321505307999999,0.3432198167,-0.06978929788,0.0,1.0,0.0,0,30.0,,,,,,0.7379750184544067,-9.965284587327496,0.5518166627846731,-0.6646751088739644,0.3824221006411363,-0.07316677650676888,0.5698823587135331,0.37124137441164334,0.41568903096796894
175,8.7326512,0.4791627228,-9.71605587,0.20937198399999998,8.89465818,-0.8916333914,-0.1411724091,1.1209516529999999,8.906099378,-0.5283828974,0.159202069,-0.054289050400000004,0.0,1.0,0.0,0,30.0,,,,,,0.6103075365685401,-9.852304605881601,0.32503098801709623,-0.5601162156873402,0.22630408937745058,-0.06006766388140373,-0.3780511920666215,0.022642515426935905,0.9512323871622532
176,8.782651199999998,-0.10498509560000001,-10.03460121,0.03469592705,8.94465818,-1.019397259,0.004696846008,0.8599032759999999,8.956099378,-0.4829511046,0.10590564460000002,-0.09315420687,0.0,1.0,0.0,0,30.0,,,,,,0.25746645947168767,-9.934943024725602,0.13275516424344003,-0.5009176854484135,0.14209853836080844,-0.08302616802391947,-0.7940258089936881,0.01043394476613469,0.8818813436887922
177,8.832651199999999,0.08165507019,-10.14227772,0.8198408484,8.99465818,-1.019397259,0.004696846008,0.8599032759999999,9.006099378,-0.41468894479999996,0.2150945961,-0.1374406368,0.0,1.0,0.0,0,30.0,,,,,,0.170741841916309,-10.028931671015684,0.5877810419129779,-0.4347658372810531,0.19315130136877298,-0.1207839599488344,-0.9402008732079153,0.00653095435997701,0.8651922298880808
178,8.882651199999998,-0.17706887420000003,-9.857233047000001,0.1471585929,9.04465818,-1.019397259,0.004696846008,0.8599032759999999,9.056099377999999,-0.3161898255,0.1908897758,-0.2297549248,0.0,1.0,0.0,0,30.0,,,,,,-0.0008269709052440843,-9.951097513246365,0.29597665539335205,-0.3437982287104955,0.19156961141457376,-0.1963980955225777,-0.9915673473353013,0.0052831969824922356,0.8611760463455839
179,8.932651199999999,0.043369911610000006,-10.2906332,-0.2503490746,9.09465818,-0.6589618325,0.4383678436,1.1325907709999998,9.106099378,-0.3272614181,0.1316375881,-0.26251161100000003,0.0,1.0,0.0,0,30.0,,,,,,0.02097456168564176,-10.10501531288961,-0.06583024948082256,-0.3311117325795502,0.149653712482153,-0.24227376827109626,-0.7758406768259252,0.29991386175939216,1.0672756579930924
180,8.9826512,0.4624129832,-9.699306488,0.1543370634,9.14465818,-1.251512051,-0.1680593491,0.09172546864,9.156099378,-0.35841462020000003,0.35742199420000004,-0.2504473627,0.0,1.0,0.0,0,30.0,,,,,,0.23872824893957875,-9.921100008079984,0.07997663763031032,-0.3520576081726321,0.29496491378809486,-0.24794536414382204,-1.0843593187525347,-0.01845174937342553,0.32648859998950797
181,9.032651199999998,0.3568296731,-9.246764183,0.09451649338,9.19465818,-1.251512051,-0.1680593491,0.09172546864,9.206099378,-0.3155026138,0.3189386129,-0.3159607351,0.0,1.0,0.0,0,30.0,,,,,,0.2969855716333764,-9.615411121843525,0.08960572869688146,-0.32401382113700256,0.31173189570781096,-0.2951407201499705,-1.1927739442122784,-0.12023089784422343,0.1482204890295458
182,9.082651199999999,0.3568296731,-9.246764183,0.09451649338,9.24465818,-1.251512051,-0.1680593491,0.09172546864,9.256099378,-0.08773294091,0.10796725,-0.37002071740000003,0.0,1.0,0.0,0,30.0,,,,,,0.32650559777922256,-9.44829665461196,0.09285790678961829,-0.14274691640257745,0.16922080018250424,-0.34709938887949976,-1.2308712563882231,-0.15276894435804458,0.10532082030304436
183,9.132651199999998,0.7016952634,-9.730413437000001,-0.6861419082,9.29465818,-1.6891220809999998,-1.261517525,1.027370334,9.306099377999999,0.1420219839,-0.42667680979999995,-0.07353074104,0.0,1.0,0.0,0,30.0,,,,,,0.5115799572538657,-9.576185403453879,-0.42303855657114947,0.07571839939644481,-0.24754443867063924,-0.15727215499270458,-1.5280909963106033,-0.9070587438985612,0.805481974278871
184,9.182651199999999,0.584446907,-10.08006477,-1.1240284440000001,9.34465818,-1.6891220809999998,-1.261517525,1.027370334,9.356099378,0.7354601026,-0.45149248840000006,-0.020310672,0.0,1.0,0.0,0,30.0,,,,,,0.5475239218547504,-9.80460322989372,-0.8872725614857808,0.5818504924485,-0.3901838052839192,-0.062235608698129816,-1.6325351445854182,-1.148199654891661,0.973973587271135
185,9.2326512,0.2060818523,-10.55653572,-0.42023947829999997,9.39465818,-1.6891220809999998,-1.261517525,1.027370334,9.406099378,1.598739982,-0.2953446507,0.114457503,0.0,1.0,0.0,0,30.0,,,,,,0.3790966486374492,-10.145468118194339,-0.5779776024423693,1.36197459724033,-0.3238541838312462,0.06037041687360782,-1.669237215960961,-1.225290633703789,1.0145205720438935
186,9.282651199999998,0.2060818523,-10.55653572,-0.42023947829999997,9.44465818,-0.9507077931999999,0.010092735290000002,1.6682555680000002,9.456099378,1.967004538,-0.299238801,0.5810684562,0.0,1.0,0.0,0,30.0,,,,,,0.2937515404322339,-10.331812655961546,-0.4735147530372999,1.8261336288688645,-0.3066384143224625,0.42167888284589694,-1.2032017681868523,-0.3848502577162506,1.5109362657914125
187,9.332651199999999,0.12233305720000001,-12.16062355,-0.4992026389,9.49465818,-1.123452187,0.7671079636,-0.6018675565999999,9.506099378,1.797494411,-0.27854636309999997,0.6940752268000001,0.0,1.0,0.0,0,30.0,,,,,,0.20919386496840844,-11.160846417341668,-0.4905266819171342,1.8041625650771553,-0.28699109532783224,0.6106926638408896,-1.1514764932065988,0.39883537778099487,-0.09342786101793354
188,9.382651199999998,1.068096161,-10.20209885,2.1029920580000003,9.54465818,-1.123452187,0.7671079636,-0.6018675565999999,9.556099377999999,1.378605962,-0.3509317636,0.6559736133,0.0,1.0,0.0,0,30.0,,,,,,0.6328750237011771,-10.726228432872652,1.2270438743114682,1.4776895631481057,-0.3317106032758937,0.6421127751883203,-1.1333000346342172,0.6493739217081835,-0.4795131187018592
189,9.432651199999999,-0.390030086,-9.369096756,0.0466600433,9.59465818,-1.123452187,0.7671079636,-0.6018675565999999,9.606099378,1.0609653000000001,-0.4818821251,0.8355627059999999,0.0,1.0,0.0,0,30.0,,,,,,0.12829420673563974,-10.111015573963341,0.44532886984773146,1.1579924411969011,-0.4367391671283989,0.7763462319452781,-1.1269127578848983,0.7294692547728616,-0.5724233400848988
190,9.4826512,2.0303099159999998,-10.98485088,-0.7722834945,9.64465818,-0.6043914557,-0.7112874985,-2.682188034,9.656099378,0.7736380695999999,-1.065164924,0.9171871543000001,0.0,1.0,0.0,0,30.0,,,,,,1.066524577364517,-10.50714126179454,-0.36104091411773487,0.8631284336273304,-0.8762542887593271,0.8740746921255284,-0.7880074307588094,-0.25068814235254044,-2.1744796953372623
191,9.532651199999998,2.391925335,-12.74237919,-0.7962117195,9.69465818,0.2335616201,0.01240539551,-2.4793910980000002,9.706099378,0.6227588058,-1.222763538,0.9289459586,0.0,1.0,0.0,0,30.0,,,,,,1.7203210934736584,-11.52041590468268,-0.6492349228329086,0.6787247764388304,-1.1185996309098099,0.9121494525907496,-0.12542163399205342,-0.07170367693979293,-2.4060151134131567
192,9.582651199999999,-0.2991028428,-10.81974602,-0.42981076240000005,9.74465818,0.2335616201,0.01240539551,-2.4793910980000002,9.756099378,0.6557445526,-0.9604045749,0.4049153626,0.0,1.0,0.0,0,30.0,,,,,,0.7241753416688064,-11.202789301595946,-0.5039201921143869,0.6610951060263272,-1.007959481977738,0.5601835201065825,0.10741353779150983,-0.014483657433318718,-2.46173339460445
193,9.632651199999998,-0.2991028428,-10.81974602,-0.42981076240000005,9.79465818,3.2784969810000004,1.517586231,-0.9650189876999999,9.806099377999999,0.5750363468999999,-0.8880955576999999,0.020081603899999998,0.0,1.0,0.0,0,30.0,,,,,,0.21941049360132858,-11.029148705083212,-0.45484085736436103,0.595073662077789,-0.9241277696164705,0.18541084941239405,2.1641661849198197,1.0277947361288415,-1.3251986736944221
194,9.682651199999999,0.2730808854,-10.077672,0.8844470978,9.84465818,1.6895010469999998,1.017627716,-1.266391754,9.856099378,0.3177169263,-0.9331455231,0.01557660475,0.0,1.0,0.0,0,30.0,,,,,,0.24588513908694437,-10.597826740534108,0.4321091857709783,0.38229471463488807,-0.930434702400953,0.06756414023377989,1.8563001838427915,1.0208780377337972,-1.2805434571873493
195,9.7326512,2.751147747,-7.958827019,2.086242199,9.89465818,1.6895010469999998,1.017627716,-1.266391754,9.906099378,-0.2322746664,-0.8336538076000001,0.1002553031,0.0,1.0,0.0,0,30.0,,,,,,1.4816864283710518,-9.401519417411077,1.5275669189282817,-0.08918266154534465,-0.8627470459200831,0.0902482930615196,1.7481148988625248,1.0186668200386069,-1.2697973176520856
196,9.782651199999998,2.0614166259999998,-8.152646065,2.263610125,9.94465818,1.6895010469999998,1.017627716,-1.266391754,9.956099378,-0.45156884189999996,-0.310539484,0.2698417902,0.0,1.0,0.0,0,30.0,,,,,,1.7676569782701081,-8.835382056693673,2.015015156256618,-0.3671933967988067,-0.47653821980715216,0.2148668743735573,1.7100981778042839,1.017959909975993,-1.2672112924585213
197,9.832651199999999,2.0614166259999998,-8.152646065,2.263610125,9.99465818,-0.051252648229999996,0.8805103301999999,0.42026424409999996,10.00609938,-0.31321191789999997,-0.210360527,0.270376265,0.0,1.0,0.0,0,30.0,,,,,,1.9125633646197318,-8.525885219628455,2.1796483981506425,-0.32578058511552965,-0.2903760203823004,0.2533844244280603,0.5676927383903261,0.9244519517134984,0.014178483077617932
198,9.882651199999998,0.021834505719999998,-7.882256985,1.94028008,10.04465818,-0.1369453371,0.08138942719,1.9619622230000002,10.05609938,-0.1091125906,-0.5408288836,0.2538833916,0.0,1.0,0.0,0,30.0,,,,,,0.9799005954173139,-8.23411665124196,2.021125550667251,-0.15956003992245152,-0.4655404204972119,0.25373065402107636,0.11066716556916606,0.35091032659636034,1.4932340991846784
199,9.932651199999999,-0.030807591969999996,-8.375477791,3.549154282,10.09465818,-0.1369453371,0.08138942719,1.9619622230000002,10.10609938,-0.07696675508999999,-0.5981721878,0.1721062213,0.0,1.0,0.0,0,30.0,,,,,,0.4813363023551453,-8.298198267128639,3.033070101966402,-0.09619719364052884,-0.558301843360407,0.19709207207941393,-0.0499333608480268,0.16755327993145894,1.8491642519045617
200,9.9826512,-0.1671984792,-8.983553886000001,4.932804108,10.14465818,-0.1369453371,0.08138942719,1.9619622230000002,10.15609938,0.47218492630000003,-0.2343362868,0.200205192,0.0,1.0,0.0,0,30.0,,,,,,0.16142568036404514,-8.608882629662789,4.2911783017981815,0.33984683787327685,-0.3317233501628537,0.19925224263339297,-0.10636899731857591,0.10893537830172381,1.9348177406818416
201,10.032651199999998,-0.4426721931,-10.15424156,4.884947299999999,10.19465818,1.916758299,-3.71630764,2.621168852,10.20609938,-0.8493831158,-0.02053973824,-0.1826433241,0.0,1.0,0.0,0,30.0,,,,,,-0.13656500869564242,-9.309422380465866,4.6844047446310295,-0.5724911918015881,-0.11408443001753107,-0.0657422282061838,1.205823663921543,-2.493405531650744,2.456000582885362
202,10.082651199999999,-0.679561615,-9.534201622000001,4.870590687,10.24465818,1.849493384,4.444313526,-3.182309389,10.25609938,-0.9116895198999999,0.4403445125,-0.24754585329999998,0.0,1.0,0.0,0,30.0,,,,,,-0.4044155342276072,-9.411318962918473,4.8077073016369125,-0.8327129709137133,0.2736780089883385,-0.1918944007086322,1.6233053938221063,2.2263756794105403,-1.8254675587185694
203,10.132651199999998,2.257927179,-14.93988705,5.983851433,10.29465818,1.849493384,4.444313526,-3.182309389,10.30609938,-0.760810256,0.5283065438,-0.3354314864,0.0,1.0,0.0,0,30.0,,,,,,0.9088705649998208,-11.917521002472503,5.586614543998844,-0.777551577570218,0.45176283491368774,-0.2914937083986895,1.7700100632735627,3.735255080426885,-2.8557896053751937
204,10.182651199999999,1.982453585,-3.608675718,-2.017149448,10.34465818,1.849493384,4.444313526,-3.182309389,10.35609938,-0.8537353873000001,0.6264238357999999,-0.5210527182,0.0,1.0,0.0,0,30.0,,,,,,1.4384498895989781,-8.150967949038701,0.5509843980337292,-0.835997285796976,0.573919112293857,-0.4507829843473789,1.8215626426977864,4.217632746890688,-3.103733414535247
205,10.2326512,1.982453585,-3.608675718,-2.017149448,10.39465818,1.182897568,1.746803284,-1.683045149,10.40609938,-0.7217923999,0.2460950911,-0.1976090819,0.0,1.0,0.0,0,30.0,,,,,,1.7067971940337396,-6.0918629728207465,-1.1497748876155025,-0.7483830609158355,0.34464204488021655,-0.27510751137373723,1.40732690680744,2.5367093224942847,-2.0249293794802545
206,10.282651199999998,1.333699465,-9.797411919,2.7735805510000002,10.44465818,1.182897568,1.746803284,-1.683045149,10.45609938,-0.7400414348000001,0.07505785674,0.09353598952,0.0,1.0,0.0,0,30.0,,,,,,1.5227547493994444,-7.771656761149426,1.448486570858792,-0.7419836402288955,0.1560973743159336,-0.0193085496974848,1.2617628920103174,1.9993304448858291,-1.76531852998252
207,10.332651199999999,2.018345833,-7.558926582000001,0.7983054519,10.49465818,1.182897568,1.746803284,-1.683045149,10.50609938,-0.7321004272,0.29572641850000003,0.04176668078,0.0,1.0,0.0,0,30.0,,,,,,1.7672209773750842,-7.675222241410244,1.0179009232252425,-0.734401564854001,0.2537526274576668,0.02307109486841441,1.2106111429746766,1.8275343630961909,-1.7028439831817197
208,10.382651199999998,-1.316650629,-10.65703392,-0.08494520187000001,10.54465818,0.7155852914,0.2742815018,0.1981970668,10.55609938,-0.8139539956999999,0.4701996744,-0.08444963395999999,0.0,1.0,0.0,0,30.0,,,,,,0.24600220569789144,-9.02693255731253,0.28753564630911455,-0.7954315681732702,0.4051336763078304,-0.05153673281618884,0.8895392604481798,0.7708450377093821,-0.2592825735165538
209,10.432651199999999,-2.09222436,-11.27946663,0.2859423161,10.59465818,0.883577466,0.5821008682,-0.18525989350000002,10.60609938,-0.8296069503,0.3652102947,-0.055663455279999996,0.0,1.0,0.0,0,30.0,,,,,,-0.9074031877136735,-10.048047862221882,0.28648045550274237,-0.8216497950872017,0.37721163503190597,-0.054400234595572534,0.8856724632758267,0.6424409934684745,-0.2030732221924283
210,10.4826512,0.8476574420999999,-9.763913155,1.006481051,10.64465818,0.883577466,0.5821008682,-0.18525989350000002,10.65609938,-0.7416449189000001,0.2272351831,-0.13484452660000001,0.0,1.0,0.0,0,30.0,,,,,,-0.04166313227931118,-9.919244350546006,0.7633043955496219,-0.7602726906302233,0.2723195012866023,-0.11021992578739775,0.8843136560266065,0.6013911632542618,-0.18954661590176033
211,10.532651199999998,1.221236825,-9.515059471,0.26679971809999997,10.69465818,0.883577466,0.5821008682,-0.18525989350000002,10.70609938,-0.6855233312000001,0.10208784789999999,-0.20226679739999998,0.0,1.0,0.0,0,30.0,,,,,,0.5813028555876143,-9.736019878354172,0.4344917280773258,-0.702927445394145,0.1532610682575124,-0.17409055997125336,0.8838361659855631,0.5882678339185115,-0.18629147999585627
212,10.582651199999999,-0.28713873030000003,-10.09920692,0.1088734269,10.74465818,-0.4760738611,0.18831539149999998,0.28625983,10.75609938,-0.5618267655,0.2458660156,-0.1905079931,0.0,1.0,0.0,0,30.0,,,,,,0.15291613553456684,-9.900659275359615,0.2188494047417823,-0.5946796537435852,0.2180281059717783,-0.18548249374477255,0.0018037002697742777,0.31617725095807847,0.1725418209505965
213,10.632651199999998,-0.2943171859,-10.21884823,0.0466600433,10.79465818,-0.6767122745999999,-0.04594802856000001,1.386426806,10.80609938,-0.5708367825,0.3248943985,-0.3084778786,0.0,1.0,0.0,0,30.0,,,,,,-0.06769607232695601,-10.04490020558043,0.10481615224181778,-0.57638818862685,0.2927693956920274,-0.27082806922048214,-0.43827917754525236,0.06982076461144293,1.09430914463381
214,10.682651199999999,0.36161533,-9.395418167,-0.3891327679,10.84465818,-0.6767122745999999,-0.04594802856000001,1.386426806,10.85609938,-0.554038465,0.248080343,-0.3573456407,0.0,1.0,0.0,0,30.0,,,,,,0.14407557300561985,-9.750477999910366,-0.22230395240641193,-0.5592422172072465,0.2615142884314162,-0.33086196344885777,-0.5929259764278686,-0.008937595348979435,1.3161295959528059
215,10.7326512,0.01944168471,-9.821340561,0.8389834166,10.89465818,-0.6767122745999999,-0.04594802856000001,1.386426806,10.90609938,-0.46890163420000003,0.40224292869999995,-0.266100347,0.0,1.0,0.0,0,30.0,,,,,,0.08259590242827104,-9.782601307829893,0.4805388336179596,-0.4899358990866531,0.3599385888678856,-0.2859243633201852,-0.6472694503739113,-0.034116064792352276,1.3695100004856458
216,10.782651199999998,0.2587239444,-9.672985077,-0.2407777756,10.94465818,-1.4660240409999998,-0.36439514159999997,0.9151092768000001,10.95609938,-0.2583120465,0.6295544504999999,-0.4130091071,0.0,1.0,0.0,0,30.0,,,,,,0.16947671910929013,-9.7329102454526,0.002843357269045832,-0.31224171250643973,0.548505411584772,-0.3741075143264928,-1.178310560554621,-0.2588073456214912,1.0244594034512158
217,10.832651199999999,-0.1073779166,-9.706484795,-0.7292127012999999,10.99465818,-1.4660240409999998,-0.36439514159999997,0.9151092768000001,11.00609938,-7.635590737e-05,0.2386122048,-0.3497864008,0.0,1.0,0.0,0,30.0,,,,,,0.032909273191172705,-9.720931100441438,-0.4819643722788859,-0.07275873825051746,0.3317689887701401,-0.35723127597416043,-1.3649204286145986,-0.3306394984417344,0.9414240460507937
218,10.882651199999998,-0.5814558864,-9.883553505,-1.308574915,11.04465818,-1.4660240409999998,-0.36439514159999997,0.9151092768000001,11.05609938,0.3964398801,-0.3894151151,0.02909160033,0.0,1.0,0.0,0,30.0,,,,,,-0.2701460847019855,-9.794650840463875,-1.0293912744975509,0.2871949794565114,-0.1726204571433037,-0.08916472823987698,-1.4304958467691598,-0.35360371031390964,0.9214418444899951
219,10.932651199999999,1.005882859,-10.98485088,-0.22881366309999998,11.09465818,-3.370098591,-3.2840576169999998,-0.0324858427,11.10609938,1.240325332,-0.003206948051,-0.003436015919,0.0,1.0,0.0,0,30.0,,,,,,0.3592961977434463,-10.334190506075133,-0.4992048092094423,1.0184051755294115,-0.05413422662254008,-0.0296782174395488,-2.6885148015304843,-2.3472130182584805,0.19707390047825935
220,10.9826512,0.05054837838,-10.60917759,-0.2455634177,11.14465818,0.3163439035,-1.3449592590000001,3.2522325519999997,11.15609938,1.326607585,0.2566322088,-0.02657185495,0.0,1.0,0.0,0,30.0,,,,,,0.20699641407044173,-10.458847230685018,-0.33122954869865123,1.2548479073104166,0.16321292417900135,-0.027522735794706772,-0.7395748864397913,-1.665372427411016,2.5170180853801387
221,11.032651199999998,-2.434697151,-13.16590881,-2.3500509259999998,11.19465818,0.3163439035,-1.3449592590000001,3.2522325519999997,11.20609938,1.0940273999999999,0.02725905925,0.2361688167,0.0,1.0,0.0,0,30.0,,,,,,-1.0961038291821856,-11.686008252677919,-1.6682039469147096,1.1314717139120885,0.06812805717840413,0.15545085566483055,-0.05470997967553537,-1.4473929965222663,3.075305467572777
222,11.082651199999999,0.43848475810000004,-12.27787209,1.095314622,11.24465818,0.3163439035,-1.3449592590000001,3.2522325519999997,11.25609938,1.045312405,-0.048104222860000004,0.4518742561,0.0,1.0,0.0,0,30.0,,,,,,-0.3391186936871743,-11.954311061402752,0.16194983325340706,1.0653731311901238,-0.0131637170186759,0.36113683106418876,0.1859541561890053,-1.377706572850237,3.209655596831896
223,11.132651199999998,3.58654213,-9.088837624,-1.430608869,11.29465818,0.7084259987,-0.2339763641,-1.466380119,11.30609938,0.9318475127,-0.20028154550000002,0.4030064642,0.0,1.0,0.0,0,30.0,,,,,,1.5973396605017132,-10.655339019249919,-0.8927300090311554,0.9629366770028844,-0.14403218365484394,0.39018985564440756,0.5248274039187533,-0.5996185147093651,-0.34110660800336445
224,11.182651199999999,1.7718851569999998,-9.876375198,-2.1774685380000003,11.34465818,1.46250248,-0.4186849594,-1.508104563,11.35609938,0.9805625676999999,-0.17164808510000001,0.42171368,0.0,1.0,0.0,0,30.0,,,,,,1.6834398355776297,-10.302220329741646,-1.7435544262621114,0.9764586794974826,-0.16334648795241713,0.4120640010613421,1.1329998877713288,-0.4765280886443064,-1.2272701196615947
225,11.2326512,1.664208174,-10.45573807,-0.8297112584,11.39465818,1.46250248,-0.4186849594,-1.508104563,11.40609938,0.9278770089,-0.2341835648,0.487303406,0.0,1.0,0.0,0,30.0,,,,,,1.6739532003626418,-10.371812756199525,-1.1383572884608038,0.9391884228226857,-0.21288927978551864,0.4642720601039387,1.3467140142178067,-0.4371769831488612,-1.4405226238976971
226,11.282651199999998,2.595315218,-10.79581738,-0.2551347017,11.44465818,1.46250248,-0.4186849594,-1.508104563,11.45609938,0.9623134731999999,-0.2794626355,0.4366794229,0.0,1.0,0.0,0,30.0,,,,,,2.1284446239939627,-10.564021882459977,-0.5534387812854135,0.9569291994111361,-0.2594500647903809,0.4451257359698537,1.4218139719690237,-0.42459672363383444,-1.4918411785038
227,11.332651199999999,1.616351724,-9.943673133999999,1.174277663,11.49465818,1.3858927490000001,0.02811813354,-1.191954851,11.50609938,0.918866992,-0.41407808659999995,0.4043045342,0.0,1.0,0.0,0,30.0,,,,,,1.8758383445390803,-10.282806335249894,0.5907499416140779,0.927729128212824,-0.3675954632124022,0.4168002100823458,1.3985156034130963,-0.11661148250808218,-1.2641215669460966
228,11.382651199999998,1.34087801,-10.0082798,1.006481051,11.54465818,1.3858927490000001,0.02811813354,-1.191954851,11.55609938,0.8463288546,-0.7624900937000001,0.398425132,0.0,1.0,0.0,0,30.0,,,,,,1.6119519681997172,-10.158358385785549,0.8660699162180177,0.8652815207915521,-0.6437810901501456,0.404049881177892,1.3903284679938537,-0.018150862116908348,-1.2093215477741475
229,11.432651199999999,1.8197416069999999,-10.03699398,1.2795618770000001,11.59465818,1.3858927490000001,0.02811813354,-1.191954851,11.60609938,0.5901548266,-0.7968502640999999,0.2594573796,0.0,1.0,0.0,0,30.0,,,,,,1.7144508848237154,-10.103341658909523,1.1399070035044159,0.6542133877668586,-0.750836244867,0.30371822827999806,1.3874514774349607,0.013326275334157082,-1.1961340929005693
230,11.4826512,1.2786645890000001,-9.328120232,1.459023595,11.64465818,1.058492064,1.112239838,-1.6508402819999999,11.65609938,0.18714833260000002,-0.5304445028,0.16676130890000002,0.0,1.0,0.0,0,30.0,,,,,,1.4994852901549545,-9.751919465554,1.3512435375021168,0.2958964694451861,-0.5966963129822505,0.20868484864790549,1.174089654704889,0.7609252398883146,-1.5414166463557688
231,11.532651199999998,0.4145565331,-9.835697174,1.787139416,11.69465818,1.1119867559999999,1.3311204909999999,-1.353880882,11.70609938,-0.304812789,-0.324970752,0.1203369126,0.0,1.0,0.0,0,30.0,,,,,,0.9643093159892357,-9.789897448418904,1.639917729278355,-0.16494787739085065,-0.4066539861962983,0.14738087811976963,1.1338099512727315,1.1488332555548342,-1.399010783009987
232,11.582651199999999,1.192523003,-8.416155815,1.930708766,11.74465818,1.1119867559999999,1.3311204909999999,-1.353880882,11.75609938,-0.5939726233,-0.269230932,0.06673506647,0.0,1.0,0.0,0,30.0,,,,,,1.0768830506870959,-9.167154989442654,1.8324955252323203,-0.49408152409215633,-0.31054158190249137,0.09142135399285248,1.119655510121439,1.272844600181702,-1.3647412530904293
233,11.632651199999998,1.431805253,-8.033004761,2.2037897109999998,11.79465818,1.1119867559999999,1.3311204909999999,-1.353880882,11.80609938,-0.25334888699999997,-0.2290677279,0.014049487190000001,0.0,1.0,0.0,0,30.0,,,,,,1.2519598326009598,-8.653023740049234,2.078386928060744,-0.30939937816999086,-0.25355952719081043,0.03773359564806399,1.114681585607748,1.312490116580066,-1.356494396863338
234,11.682651199999999,0.9290133715000001,-7.894220829,2.277967215,11.84465818,-0.1387677342,0.029596328739999997,2.2194142340000003,11.85609938,0.01908897609,-0.30870693920000003,0.056961506610000004,0.0,1.0,0.0,0,30.0,,,,,,1.092656112595145,-8.309044363399128,2.21055995557238,-0.05739393803238202,-0.2921291135796596,0.05107569891602376,0.3016991293163537,0.43972805383187497,1.3588828982924992
235,11.7326512,0.3954139352,-8.169395447000001,2.632104874,11.89465818,-0.1383815557,-1.0755186079999999,3.01636982,11.90609938,0.021456010640000002,-0.3543677628,0.09552124142999999,0.0,1.0,0.0,0,30.0,,,,,,0.7487190023488661,-8.245738929813434,2.489730153320485,0.003097144109579647,-0.33565824522223675,0.08191612767078446,0.016264472640081296,-0.5911053750647085,2.61750072599635
236,11.782651199999998,0.347258389,-8.928518295,5.062315464,11.94465818,-0.1383815557,-1.0755186079999999,3.01636982,11.95609938,0.2897706628,0.02176143415,0.03489464894,0.0,1.0,0.0,0,30.0,,,,,,0.5506856536679026,-8.555255428905232,4.19343744310268,0.22302362038693785,-0.0856822500962377,0.04928827608321797,-0.08403835251027021,-0.9206552540073716,2.9203832077313514
237,11.832651199999999,0.38075789810000005,-10.52542877,6.223432541,11.99465818,2.157575846,-2.7708711619999997,2.317024231,12.00609938,-0.5640410781,0.5432722569,-0.054441761229999996,0.0,1.0,0.0,0,30.0,,,,,,0.46686332751379195,-9.448371399576509,5.537811692595819,-0.38078647877580135,0.3542026746457714,-0.02268921917618335,1.3698640815002143,-2.179370720596277,2.4622206998453597
238,11.882651199999998,-0.524028182,-9.953245163,4.997709274,12.04465818,0.6162313223,2.1744656559999997,-1.8939994569999998,12.05609938,-0.8161683083,0.6802547574,-0.2528907657,0.0,1.0,0.0,0,30.0,,,,,,-0.02192575238038208,-9.677240002859977,5.180126206533902,-0.7147970704613784,0.5822404648228752,-0.18242434654280926,0.881060743337131,0.7825761320227089,-0.8456885696887722
239,11.932651199999999,2.866003275,-12.78784275,6.014957905,12.09465818,0.6162313223,2.1744656559999997,-1.8939994569999998,12.10609938,-0.6620057225,0.598477602,-0.2549523711,0.0,1.0,0.0,0,30.0,,,,,,1.4026380454292786,-11.087333689362682,5.732997609549605,-0.6742972880477811,0.5935965673525352,-0.2327509990791065,0.7092933891847384,1.7294887944884851,-1.6417266893287414
240,11.9826512,0.7591229677,-8.923732758,3.0487551689999997,12.14465818,0.6162313223,2.1744656559999997,-1.8939994569999998,12.15609938,-0.7282826304000001,0.3184041381,-0.260068208,0.0,1.0,0.0,0,30.0,,,,,,1.0852035536588986,-10.106533419607619,3.955344835652213,-0.7157130636611312,0.40112954517628996,-0.25170620554698453,0.648933686930271,2.0322098205410635,-1.8332907971342682
241,12.032651199999998,1.73360002,-8.229515076,1.523629785,12.19465818,-0.47771564130000005,1.030437469,-2.3623366359999998,12.20609938,-0.7676059604000001,0.038330666719999996,0.081242688,0.0,1.0,0.0,0,30.0,,,,,,1.4050459474394628,-9.255646330864725,2.3449295689756835,-0.7555235838987862,0.1473913883095852,-0.020675464320111248,-0.0818067776093987,1.3506967352038117,-2.235023393256734
242,12.082651199999999,0.36400815840000006,-12.50279713,0.43669012189999995,12.24465818,-1.30440259,-1.60422802,-1.295860648,12.25609938,-0.8614473343000001,0.3378748894,0.11483928560000001,0.0,1.0,0.0,0,30.0,,,,,,0.8915206037296254,-10.727639770023604,1.0811885987034047,-0.8367847945093604,0.2806137749920299,0.0733572047494963,-0.8747777663534119,-0.659560270327995,-1.5218672537571296
243,12.132651199999998,0.36879378560000003,-8.150253296,-0.35324043039999997,12.29465818,-1.30440259,-1.60422802,-1.295860648,12.30609938,-0.8622872829000001,0.6162685156000001,-0.07360709458999999,0.0,1.0,0.0,0,30.0,,,,,,0.6336688025763844,-9.559262870227869,0.13123091087931193,-0.8563494632084341,0.5153675746308206,-0.02862022081756503,-1.1534307910402486,-1.3022246758913396,-1.3502484377498465
244,12.182651199999999,-0.7971090674,-11.16700459,-0.05144568533,12.34465818,1.088308573,0.6520729064999999,-0.17696252469999998,12.35609938,-0.8783983588,0.6617766619,-0.1288124174,0.0,1.0,0.0,0,30.0,,,,,,-0.07210836059705605,-10.28808188885264,0.010252435516415817,-0.8732646493075293,0.6177647267485253,-0.09814283491067038,0.30055282488934765,0.027298317662207916,-0.4593101454485097
245,12.2326512,0.7591229677,-10.18774128,1.02562356,12.39465818,0.06830996275000001,-0.1010522842,-0.07693520932999999,12.40609938,-0.7837170362,0.6371136904,-0.09002361447000001,0.0,1.0,0.0,0,30.0,,,,,,0.33792320414457166,-10.24259563712564,0.6826869625038421,-0.8045666715856251,0.6312972117139966,-0.09250896871130197,0.14992098877163645,-0.06001953914959292,-0.16895255332380532
246,12.282651199999998,1.649851203,-9.246764183,0.44386860729999994,12.44465818,0.06830996275000001,-0.1010522842,-0.07693520932999999,12.45609938,-0.8140303493000001,0.4646256864,-0.1414874941,0.0,1.0,0.0,0,30.0,,,,,,0.985073849048321,-9.791166843376963,0.5245283307834583,-0.8118268932202706,0.5147286991166422,-0.12649480031071503,0.09698838802817825,-0.08793441689338466,-0.09907889814622829
247,12.332651199999999,0.8021938205,-9.972387314,0.05623133107999999,12.49465818,0.06830996275000001,-0.1010522842,-0.07693520932999999,12.50609938,-0.8479323387000001,0.3598653972,-0.1635543555,0.0,1.0,0.0,0,30.0,,,,,,0.8948623980108557,-9.873317430255572,0.21439633676973896,-0.8395258011580987,0.40641874799954986,-0.15221014783505535,0.07838767058570588,-0.09685859835984417,-0.08226401945768326
248,12.382651199999998,0.8021938205,-9.972387314,0.05623133107999999,12.54465818,0.06830996275000001,-0.1010522842,-0.07693520932999999,12.55609938,-0.6440621018,0.3114557564,-0.1586675793,0.0,1.0,0.0,0,30.0,,,,,,0.8491506441893191,-9.918227638565728,0.10965078292512602,-0.6895724924965901,0.34000251607776966,-0.1566909111147124,0.07185130765406861,-0.09971159365422665,-0.07821757098447932
249,12.432651199999999,0.1127617657,-10.01785088,-0.07298108935,12.59465818,-0.8091204166,0.1954250336,1.535809517,12.60609938,-0.37635827060000004,0.287250936,-0.1718007922,0.0,1.0,0.0,0,30.0,,,,,,0.4859031656455877,-9.963388692330694,-0.011298073796438726,-0.4492848633841221,0.30310855226571853,-0.16717554433808585,-0.4995435984183027,0.10107202070945846,1.1473988975689693
250,12.4826512,-0.4642075896,-9.816555023,-0.7004988194,12.64465818,-0.8091204166,0.1954250336,1.535809517,12.65609938,-0.3293993771,0.2877090573,-0.22387552260000002,0.0,1.0,0.0,0,30.0,,,,,,0.017230503306546907,-9.896826277708517,-0.4677246612614,-0.3573126691073292,0.2923382889230436,-0.20651923420280652,-0.7003339440019505,0.1652610680883837,1.4423397044443855
251,12.532651199999998,-0.12412767109999999,-9.682557106,0.03469592705,12.69465818,-1.443808556,-0.1135759354,0.262129426,12.70609938,-0.4769953489,0.419575721,-0.2354816198,0.0,1.0,0.0,0,30.0,,,,,,-0.05249895884874928,-9.79969410406876,-0.13499415266015063,-0.44912927695645144,0.38132696398061616,-0.2266160164716828,-1.182548746301996,-0.0244337925534098,0.5461433738708349
252,12.582651199999999,-0.3469592929,-9.859625816,0.8318049908,12.74465818,-0.5323496461,0.153011322,0.7054920197,12.75609938,-0.46325129270000004,0.46416756509999996,-0.4339306355,0.0,1.0,0.0,0,30.0,,,,,,-0.1977509812492593,-9.82686225633928,0.5052733407302732,-0.45996322205184953,0.4392649089189131,-0.37047007641456103,-0.7608320855427406,0.09628342167611251,0.6671452616197393
253,12.632651199999998,-0.4283152521,-9.866804123,-0.2551347017,12.79465818,-0.01878476143,-0.39917278289999997,0.7218353748,12.80609938,-0.34085276719999996,0.2241045833,-0.4255314767,0.0,1.0,0.0,0,30.0,,,,,,-0.3114842171316985,-9.844968642293328,0.0016893702556785017,-0.3685856063654033,0.2887837809311412,-0.40867676932091446,-0.2795430164724668,-0.24077907188534883,0.7086743684873094
254,12.682651199999999,0.20368902390000002,-9.565308571000001,-1.4808580880000002,12.84465818,-0.01878476143,-0.39917278289999997,0.7218353748,12.85609938,0.05749600007999999,-0.03298575059,-0.1414874941,0.0,1.0,0.0,0,30.0,,,,,,-0.057358460657413846,-9.71819356585986,-0.9801349839413145,-0.04170983930630706,0.06374116720927414,-0.2232761342806451,-0.11041620508991581,-0.3485354763979498,0.7186682194207854
255,12.7326512,1.135095239,-10.12552834,-0.6909275651000001,12.89465818,-2.175823689,-3.184387207,0.252779007,12.90609938,0.9321529269,0.2017323077,-0.07498150319,0.0,1.0,0.0,0,30.0,,,,,,0.5308576466607231,-9.902845941509495,-0.7886059467142308,0.7054055815536606,0.16025088574572705,-0.12037560148069741,-1.4500316347818791,-2.2777862292865683,0.3648938028700632
256,12.782651199999998,0.36640095710000004,-10.45095158,-1.34925282,12.94465818,0.10239493849999999,-2.143348694,3.0291345119999997,12.95609938,1.624930024,0.3277195692,0.03023693897,0.0,1.0,0.0,0,30.0,,,,,,0.44973409963772776,-10.151312350675425,-1.159897099261625,1.4108344312261312,0.2773769233318238,-0.015866688754537353,-0.4431336702456641,-2.186327386900584,2.3879932376523265
257,12.832651199999999,-0.9334999323000001,-12.79741383,-2.263610125,12.99465818,0.10239493849999999,-2.143348694,3.0291345119999997,13.00609938,1.53215766,-0.18157434460000002,0.3195494711,0.0,1.0,0.0,0,30.0,,,,,,-0.23259053755217457,-11.350839029855702,-1.8908364851220645,1.5039096138064019,-0.043609319297507054,0.2168760700944352,-0.08930589173709763,-2.1570886664714264,2.87484585018954
258,12.882651199999998,1.127916813,-12.2419796,0.8461619020000001,13.04465818,0.10239493849999999,-2.143348694,3.0291345119999997,13.05609938,1.396778584,-0.05612159147999999,0.5293754935,0.0,1.0,0.0,0,30.0,,,,,,0.4385234336650506,-11.75480951154735,-0.07824582591835316,1.4217222178505569,-0.052360285934885065,0.4337170773111746,0.03503053683237767,-2.1477412622179757,2.9920054233964892
259,12.932651199999999,1.127916813,-12.2419796,0.8461619020000001,13.09465818,0.4906793833,-0.5099554062,-1.111444831,13.10609938,1.259185314,-0.1021642014,0.48646348710000004,0.0,1.0,0.0,0,30.0,,,,,,0.7785888719843492,-11.975652711495936,0.5339477437765747,1.2970292617140649,-0.08719268061707136,0.47031741567510726,0.33056264375099637,-1.0335435199020622,-0.12396223741875412
260,12.9826512,1.080060363,-9.436096191,-3.1663026810000003,13.14465818,1.8724567890000001,-1.510586739,-1.8169258830000001,13.15609938,1.303471684,-0.2660239935,0.5812211633,0.0,1.0,0.0,0,30.0,,,,,,0.9272993727794782,-10.82442482868276,-1.9165613205644203,1.301971676133239,-0.21226563539618842,0.5472726947252089,1.3306293155983733,-1.3580795239764676,-1.4095194257785297
261,13.032651199999998,1.343270779,-10.19731236,-0.2479562461,13.19465818,1.8724567890000001,-1.510586739,-1.8169258830000001,13.20609938,1.220167398,-0.38758260009999995,0.6472690105,0.0,1.0,0.0,0,30.0,,,,,,1.1324906361846319,-10.540143159972247,-0.811519393579399,1.2392141301351416,-0.3348806878049601,0.616659388633104,1.6820565518458908,-1.4618313017682854,-1.7188847812121402
262,13.082651199999999,2.6913273330000003,-11.44696426,-0.47048875689999997,13.24465818,0.5911853909,-0.2701320648,-1.501747489,13.25609938,1.040807366,-0.6813237667,0.6414659618999999,0.0,1.0,0.0,0,30.0,,,,,,1.9014369311355082,-10.95122191774946,-0.5856701751524196,1.087002999417913,-0.5771797507856071,0.6338724838794858,0.9745216703873602,-0.6511095615357232,-1.5540009057810267
263,13.132651199999998,0.7447660565,-9.934102057999999,0.480060041,13.29465818,0.8384387493000001,0.1277914047,-2.558251858,13.30609938,0.9511655568999999,-0.6673506497999999,0.5131117104999999,0.0,1.0,0.0,0,30.0,,,,,,1.3308718520225171,-10.49014269664494,0.12011490826727012,0.9827929900110863,-0.6402444378234496,0.5500774885678196,0.886258805915366,-0.12121751557643179,-2.316581976778444
264,13.182651199999999,0.1007976532,-10.45813084,0.7336992620999999,13.34465818,0.8487827182,0.4183721542,-0.9783840179000001,13.35609938,0.7327876687,-1.075167537,0.3278722763,0.0,1.0,0.0,0,30.0,,,,,,0.7240982243810177,-10.47563112909241,0.5264641679965143,0.7909971463643855,-0.9444256027888411,0.39589095757695403,0.8619519581016994,0.24586929841005606,-1.3004172117406014
265,13.2326512,1.381555915,-9.450452805,0.5781657696,13.39465818,0.8487827182,0.4183721542,-0.9783840179000001,13.40609938,0.2840439677,-1.144880533,0.2643441558,0.0,1.0,0.0,0,30.0,,,,,,1.0484103579624477,-10.010898856857148,0.5607038082291601,0.40207937421948303,-1.0846219143060645,0.30461161797788117,0.8534104392314961,0.36322425772699085,-1.055880308550679
266,13.282651199999998,0.5653043389,-9.275477409,2.146062851,13.44465818,0.06807588041,1.755627632,-1.778725624,13.45609938,-0.4372902811,-0.9452861547,0.293664813,0.0,1.0,0.0,0,30.0,,,,,,0.8101027892135791,-9.677518729548767,1.6106156408031729,-0.2418573641035916,-0.987171781696349,0.29701571209715927,0.34404543454519676,1.3104864962267437,-1.6047751378762705
267,13.332651199999999,0.7160521745999999,-8.44726181,1.74885428,13.49465818,0.2118992507,2.169783115,-1.8924367430000002,13.50609938,-0.7027034163,-0.6184064746,0.37467843289999997,0.0,1.0,0.0,0,30.0,,,,,,0.7637093011745244,-9.119820541988897,1.702164859998635,-0.5954032683251756,-0.7292607601964031,0.3509052918797883,0.2583359228803439,1.8950722951109746,-1.823211868578442
268,13.382651199999998,0.2084746659,-7.681259632000001,2.117348909,13.54465818,0.2118992507,2.169783115,-1.8924367430000002,13.55609938,-0.2544942498,-0.4726430774,0.3481829464,0.0,1.0,0.0,0,30.0,,,,,,0.48982197456304327,-8.467694307555451,1.977122541124758,-0.333869103895222,-0.5497847426957386,0.34901627679009317,0.22821727414179221,2.081960083044,-1.8757779912257382
269,13.432651199999999,0.347258389,-7.135396957,1.523629785,13.59465818,0.2118992507,2.169783115,-1.8924367430000002,13.60609938,0.049860406669999996,-0.7247702479000001,0.336958617,0.0,1.0,0.0,0,30.0,,,,,,0.41949790462750564,-7.863739307709328,1.6767947300436095,-0.03948446909656994,-0.6721679754310396,0.34064955703450467,0.21763346629811442,2.1417067367348066,-1.8884278658200346
270,13.4826512,0.024227328599999997,-8.425726891,3.635295868,13.64465818,0.2118992507,2.169783115,-1.8924367430000002,13.65609938,-0.2822114229,-0.7062921524,0.2828986347,0.0,1.0,0.0,0,30.0,,,,,,0.22451799077652979,-8.11849866039906,2.9738217525370247,-0.22569658906741902,-0.6960341070099864,0.3005766249464572,0.21391427592392895,2.160807303265823,-1.8914720189588368
271,13.532651199999998,0.2132603228,-10.37916756,5.32791853,13.69465818,-0.4045017064,-0.15802860259999998,-0.1346986294,13.70609938,0.18355959649999998,-0.3077906668,-0.1088071689,0.0,1.0,0.0,0,30.0,,,,,,0.21896478428066352,-9.143301631592784,4.532833934991054,0.08827126959996079,-0.4245002606288969,0.016508279407908166,-0.18718797556370623,0.5832862118447479,-0.5574607040692479
272,13.582651199999999,0.009870393202,-10.3217392,5.59142828,13.74465818,-0.4045017064,-0.15802860259999998,-0.1346986294,13.75609938,-0.6790331006,0.2922904193,-0.3033620119,0.0,1.0,0.0,0,30.0,,,,,,0.1158222565244233,-9.677509148717476,5.233893252558895,-0.5003793569084135,0.07681646551120647,-0.2054473177775795,-0.3281368339358892,0.07896430091895446,-0.23643501317032362
273,13.632651199999998,-0.7683951855,-9.292227745,3.848556042,13.79465818,-0.4045017064,-0.15802860259999998,-0.1346986294,13.80609938,-0.9662076234999999,0.8694646954999999,-0.2637332976,0.0,1.0,0.0,0,30.0,,,,,,-0.32034641152504095,-9.502853971281752,4.316446863084096,-0.8577474517759749,0.6311872556457253,-0.2458915222166233,-0.3776667994315681,-0.08226371132316837,-0.15918117501553902
274,13.682651199999999,3.6966118810000004,-11.86361504,5.504987717000001,13.84465818,-0.09487102926,0.08554935455,-2.559360266,13.85609938,-0.5774033665999999,0.1243837699,-0.3794125021,0.0,1.0,0.0,0,30.0,,,,,,1.6611473534243506,-10.573030571359846,5.103563895916729,-0.6426767082679464,0.2767336175673486,-0.3385407291615443,-0.19424653964357738,0.031900749459227426,-1.9817646019783022
275,13.7326512,2.7080769539999996,-9.443274498,3.180360317,13.89465818,0.20572426920000003,-1.141828537,-1.74249053,13.90609938,-0.6587987542,-0.12583453949999998,-0.167906642,0.0,1.0,0.0,0,30.0,,,,,,2.177579022477924,-10.060891273747462,3.829912855806906,-0.655045010620944,-0.004818802414383538,-0.2201390152386733,0.06517300404957896,-0.7665959015129673,-1.8000710942934979
276,13.782651199999998,0.2635096014,-8.964410782,0.04187439755,13.94465818,0.20572426920000003,-1.141828537,-1.74249053,13.95609938,-0.9619317055,-0.1585912257,0.173633337,0.0,1.0,0.0,0,30.0,,,,,,1.2334027708967135,-9.563836411910179,1.321265733989962,-0.8904783695428813,-0.11236580321691908,0.05309666801575852,0.1563340194449518,-1.0218694183465082,-1.756347114455148
277,13.832651199999999,0.7878368497,-11.17896843,0.03708875178999999,13.99465818,0.20572426920000003,-1.141828537,-1.74249053,14.00609938,-0.8593857288,0.1718007922,0.04947862774,0.0,1.0,0.0,0,30.0,,,,,,1.013613061769614,-10.296005591229473,0.47081320406203964,-0.8666251202423708,0.08637766720263795,0.050586136992564534,0.18836834735104407,-1.1034784874856514,-1.7458250741397563
278,13.882651199999998,-0.9598209858,-9.277871132000001,-0.0011964113219999999,14.04465818,0.8989081979000001,-0.0055475234990000006,0.6597307324,14.05609938,-0.9475768209000001,0.2484621257,-0.12155860660000001,0.0,1.0,0.0,0,30.0,,,,,,0.040153300483682375,-9.834466433205497,0.1582225120323681,-0.9287285972069148,0.19973802796380213,-0.06886381009232609,0.6492217890188932,-0.3565479917862733,0.08084117866875595
279,13.932651199999999,-0.5575276613,-10.666605,-0.9014959334999999,14.09465818,0.8989081979000001,-0.0055475234990000006,0.6597307324,14.10609938,-1.0246962309999998,0.04886778072,-0.1149156392,0.0,1.0,0.0,0,30.0,,,,,,-0.254672040714976,-10.211690215374212,-0.5435812467456542,-1.002351803179301,0.0942207820840547,-0.10081882904879208,0.811167443123448,-0.11775979619991528,0.520422754405343
280,13.9826512,1.135095239,-10.36002445,1.420738459,14.14465818,0.8989081979000001,-0.0055475234990000006,0.6597307324,14.15609938,-0.975446701,-0.1007898003,-0.231358394,0.0,1.0,0.0,0,30.0,,,,,,0.43087533074063605,-10.278932865053273,0.7572991507279108,-0.9817110954760867,-0.04216780310346695,-0.19139925457592621,0.8680757625849186,-0.041420963229922475,0.6262066990257493
281,14.032651199999998,0.9580263495,-9.230013847,-0.118743822,14.19465818,0.8989081979000001,-0.0055475234990000006,0.6597307324,14.20609938,-0.7556180358,-0.1270562261,-0.2619007528,0.0,1.0,0.0,0,30.0,,,,,,0.6909095110366513,-9.803438498048937,0.17713537829433834,-0.8082599509245283,-0.10153797561024697,-0.24031971565574578,0.8880735627224754,-0.017015998801465638,0.6516632776384953
282,14.082651199999999,-0.05473581702000001,-9.826126099,-0.3245265782,14.24465818,-0.9104787111,-0.01275444031,1.03876543,14.25609938,-0.6119925976,0.01641651988,-0.22853323820000002,0.0,1.0,0.0,0,30.0,,,,,,0.32309599127630867,-9.813723206492979,-0.15509272264002344,-0.657690105377369,-0.01904169996757142,-0.23214116728938813,-0.2784605940976297,-0.01411682927016579,0.9456104964046208
283,14.132651199999998,0.2419741899,-9.589237212999999,-0.15463615949999998,14.29465818,-0.9104787111,-0.01275444031,1.03876543,14.30609938,-0.5254049896999999,0.21196399629999998,-0.354673177,0.0,1.0,0.0,0,30.0,,,,,,0.2830800558452509,-9.711959558859784,-0.1547903614783373,-0.5562053240656191,0.14252153265306783,-0.31716521024912536,-0.6883851383905942,-0.01318998605642095,1.016347984114778
284,14.182651199999999,0.1845464408,-9.546165466,0.2979064286,14.34465818,-0.9104787111,-0.01275444031,1.03876543,14.35609938,-0.4684434831,0.2424300015,-0.2948864996,0.0,1.0,0.0,0,30.0,,,,,,0.23447518381504814,-9.636802034055453,0.1450103168774377,-0.48887733185601423,0.21239658532089728,-0.30170617997573773,-0.8324341840455071,-0.012893681085776577,1.033370741426613
285,14.2326512,-0.1962114573,-10.03699398,0.4824528694,14.39465818,-1.5833680630000002,-0.1386289597,0.4181098938,14.40609938,-0.30007871989999996,0.5300627351,-0.3533751369,0.0,1.0,0.0,0,30.0,,,,,,0.0220251577702186,-9.818216435929733,0.3684833089101747,-0.34403725853673917,0.43456933205639636,-0.3375588818076227,-1.3194870387322717,-0.09843231423273321,0.5661705110426294
286,14.282651199999998,1.108774185,-10.17338467,0.1064806059,14.44465818,-0.6255928278,-1.428358078,1.4119479659999998,14.45609938,-0.1544679999,0.4007157981,-0.385979116,0.0,1.0,0.0,0,30.0,,,,,,0.5580990387832362,-9.979220755708251,0.19497072870374865,-0.1986059705424533,0.4108924857109772,-0.37115731929786794,-0.8694298955263284,-1.0031905755070765,1.2084142409282173
287,14.332651199999999,-0.48574298619999995,-9.692128181000001,-1.538285851,14.49465818,-0.6255928278,-1.428358078,1.4119479659999998,14.50609938,0.2179961205,-0.3003077805,-0.11438114939999999,0.0,1.0,0.0,0,30.0,,,,,,0.043190415555078965,-9.849076388449049,-0.9528869763209681,0.12099742465728022,-0.08651435711290045,-0.19298225997782067,-0.7112781018082638,-1.2924351489921364,1.362968205209313
288,14.382651199999998,0.4360919297,-11.07846928,-0.1594218016,14.54465818,-0.6255928278,-1.428358078,1.4119479659999998,14.55609938,1.025459886,-0.39995223280000003,0.049554985020000004,0.0,1.0,0.0,0,30.0,,,,,,0.23700171348794713,-10.406382894674733,-0.4274107572061796,0.8148712183688712,-0.30572988836596104,-0.024687483896097845,-0.655702959331754,-1.3849045155306818,1.4001611379908563
289,14.432651199999999,0.960419178,-9.684949875,-1.013958573,14.59465818,-1.599579334,-1.92116642,2.237173796,14.60609938,1.6893744469999998,-0.1463742703,0.23181653019999998,0.0,1.0,0.0,0,30.0,,,,,,0.5938506252578479,-10.079343980044529,-0.8158549366855823,1.485761276251146,-0.19427805317424746,0.15329872858032786,-1.2678975822941587,-1.749727426310613,2.035749292224639
290,14.4826512,-1.8095721009999999,-12.42862034,-1.681855202,14.64465818,-1.599579334,-1.92116642,2.237173796,14.65609938,1.7512991430000002,-0.18699561059999997,0.5576272011,0.0,1.0,0.0,0,30.0,,,,,,-0.5917148695249537,-11.144314350589022,-1.3893678765124169,1.689473176765949,-0.18918478065511402,0.4338592245339341,-1.4830251037381512,-1.8663586323937618,2.1887016128404206
291,14.532651199999998,-1.251745343,-12.39512062,-0.017946170640000002,14.69465818,-1.599579334,-1.92116642,2.237173796,14.70609938,1.545978069,0.002596100792,0.6734591126,0.0,1.0,0.0,0,30.0,,,,,,-0.9172961110903675,-11.711327938508758,-0.48113709872717414,1.5793884591656013,-0.05505501821508177,0.6001157906941232,-1.5586217338730055,-1.9036447726839352,2.225509115034912
292,14.582651199999999,2.504388094,-9.608379364,0.6332007050999999,14.74465818,1.715967655,-1.8425750730000001,-1.50933075,14.75609938,1.333784938,-0.1264453828,0.650628686,0.0,1.0,0.0,0,30.0,,,,,,0.7705595806389816,-10.758022502725243,0.2568385989811427,1.3909695314180381,-0.10498477437484433,0.6351663100348987,0.5652644758476266,-1.8620986077861101,-0.6105531045768537
293,14.632651199999998,1.633101463,-9.515059471,-0.7076773047,14.79465818,2.02476263,-1.3917846680000001,-2.371586561,14.80609938,1.101968408,-0.4727194309,0.6660525799,0.0,1.0,0.0,0,30.0,,,,,,1.196036082500448,-10.194564399722488,-0.3819168076731616,1.1692573932042725,-0.362174968473313,0.6565980611363043,1.5118894218822243,-1.5421405815306173,-1.9477993145735986
294,14.682651199999999,2.3584258559999998,-11.72961617,-0.152243346,14.84465818,2.02476263,-1.3917846680000001,-2.371586561,14.85609938,0.9390249251999999,-0.73820889,0.7979955673000001,0.0,1.0,0.0,0,30.0,,,,,,1.7694221920972062,-10.890431721420116,-0.22981442671973318,0.9926306310260733,-0.625169591179761,0.754712730669007,1.844537032199413,-1.4398523496364521,-2.269603472960144
295,14.7326512,2.801397085,-11.87557888,-0.6308078765999999,14.89465818,2.02476263,-1.3917846680000001,-2.371586561,14.90609938,0.8245674372,-0.6522321701,0.5971031785,0.0,1.0,0.0,0,30.0,,,,,,2.2784769711627795,-11.337017126791693,-0.49537431344237165,0.8636980871793483,-0.6440969068478237,0.6453486439653524,1.96143066902281,-1.40715155288982,-2.3470446469045627
296,14.782651199999998,0.4217349887,-9.594022751,-0.13070793449999998,14.94465818,2.726567268,0.709321022,-1.689981937,14.95609938,0.7031615376000001,-0.5492280126,0.1648524106,0.0,1.0,0.0,0,30.0,,,,,,1.3625793209425963,-10.54688557851074,-0.2538722083184869,0.7405397368179136,-0.577746485692715,0.3119359097199745,2.4576953540978517,0.032700278759868695,-1.8481020432318136
297,14.832651199999999,0.4265206456,-10.15424156,0.6667001843,14.99465818,3.252200127,1.85506916,-1.244543076,15.00609938,0.3977379203,-0.7567633986,0.035734564069999995,0.0,1.0,0.0,0,30.0,,,,,,0.900838298608646,-10.368892792613618,0.3557813917508975,0.47755348011663534,-0.7029492474389782,0.12028186655893464,2.9730081244917628,1.272471208630864,-1.3897876716395057
298,14.882651199999998,2.38474679,-9.218050003,0.8389834166,15.04465818,3.252200127,1.85506916,-1.244543076,15.05609938,-0.1069746241,-0.8041804432999999,0.010918894779999999,0.0,1.0,0.0,0,30.0,,,,,,1.6328238481218884,-9.847194497026434,0.6757843120336191,0.029122781532972264,-0.7737494030547268,0.0443957203006802,3.1540909940649033,1.6688168726368846,-1.2794957377202614
299,14.932651199999999,2.38474679,-9.218050003,0.8389834166,15.09465818,-0.105810456,1.74932766,-1.073463678,15.10609938,-0.5709894896,-0.40743511920000003,0.1512610465,0.0,1.0,0.0,0,30.0,,,,,,2.003734002603,-9.561991675962048,0.7838637226197595,-0.43126357630458734,-0.517552604356994,0.1185487690370889,1.0397313256630767,1.7235889521147263,-1.1230446552716655
300,14.9826512,0.3930211067,-8.411369323999999,2.196611166,15.14465818,0.005172796547,1.3873291019999998,-0.1748993397,15.15609938,-0.37964156270000005,0.022830415519999998,0.17813833059999998,0.0,1.0,0.0,0,30.0,,,,,,1.20919810561561,-9.040393308688735,1.719462673565508,-0.3916608686571816,-0.1396137528129371,0.15989751906804736,0.36872060276697693,1.494828906997973,-0.40306757304422414
301,15.032651199999998,-0.1336989701,-7.678866863,2.323430777,15.19465818,0.005172796547,1.3873291019999998,-0.1748993397,15.20609938,0.2810660899,-0.2642678022,0.06642963737,0.0,1.0,0.0,0,30.0,,,,,,0.5467709683360313,-8.423188220014282,2.119443523821311,0.12443308438450079,-0.22679563408518233,0.09504085665667616,0.13292487986360135,1.4216960001074386,-0.22980731829699516
302,15.082651199999999,0.32572299239999997,-7.899006844,2.7400810719999997,15.24465818,0.005172796547,1.3873291019999998,-0.1748993397,15.25609938,0.6100836992,-0.3475720882,0.08826743065999999,0.0,1.0,0.0,0,30.0,,,,,,0.4377319507243606,-8.18556711906855,2.530463796112223,0.49700823160343505,-0.3112655613380173,0.09034082713782914,0.050065365041608564,1.398315946708997,-0.18811277465651913
303,15.132651199999998,0.32572299239999997,-7.899006844,2.7400810719999997,15.29465818,2.4595704080000003,-7.196655272999999,1.406974792,15.30609938,-0.606189549,0.6326850653,-0.1010188684,0.0,1.0,0.0,0,30.0,,,,,,0.38247993257494795,-8.055664052665255,2.6692838691568976,-0.3493287500604318,0.3489247159535491,-0.042442231027599656,1.6128611616123354,-4.448906077772723,1.0231219101480447
304,15.182651199999999,0.04097708687,-10.28824043,7.140182972000001,15.34465818,2.323569059,3.213281631,-2.9910576339999997,15.35609938,-1.0334771870000001,0.5285356045,-0.4831801951,0.0,1.0,0.0,0,30.0,,,,,,0.21402267956109247,-9.067732167282578,5.630158815319977,-0.8741848850696059,0.47454289868096133,-0.34826700022887463,2.073823598074283,0.7637364758380558,-2.0250577606774245
305,15.2326512,2.609672308,-15.93350697,4.240979195,15.39465818,2.323569059,3.213281631,-2.9910576339999997,15.40609938,-0.9089407325,0.8803836106999999,-0.2618243992,0.0,1.0,0.0,0,30.0,,,,,,1.3957538442143669,-12.18011471220925,4.710167771009728,-0.9008484258323937,0.7583841131137135,-0.28828512742875745,2.2358075533644826,2.4301800295289637,-2.7585927568868027
306,15.282651199999998,1.901097536,-9.04576683,1.396810174,15.44465818,2.323569059,3.213281631,-2.9910576339999997,15.45609938,-0.9062682390000001,0.6843779683,-0.40422818060000004,0.0,1.0,0.0,0,30.0,,,,,,1.645030859711813,-10.759256917795305,2.515880386943888,-0.9050063279024113,0.706624904653868,-0.36873714287087267,2.2927293320084208,2.9629297987826293,-2.9351156816388655
307,15.332651199999999,1.738385677,-7.951648712000001,-0.45852464439999996,15.49465818,0.4677678347,1.65633297,-1.59051466,15.50609938,-0.8083036542,0.10399674619999999,-0.1515664756,0.0,1.0,0.0,0,30.0,,,,,,1.6910811235111676,-9.486516254307196,0.5460660085646942,-0.8308192234442983,0.2851523829019016,-0.21804404492751683,1.10906625338319,2.074042383031483,-1.9140887309371692
308,15.382651199999998,0.1606182158,-13.28106308,0.47018966079999996,15.54465818,-0.9395999908,-0.5942802429,-1.390847802,15.55609938,-0.8700755834999999,0.1604237556,0.08086090535,0.0,1.0,0.0,0,30.0,,,,,,0.9361311120641495,-11.20665442553104,0.4958165236235027,-0.8609354091637925,0.1979183425894581,-0.010636140720028303,-0.21969087231300444,0.25876291003983076,-1.516764110960864
309,15.432651199999999,1.108774185,-7.89182806,0.5494518876,15.59465818,-0.9395999908,-0.5942802429,-1.390847802,15.60609938,-0.8556442857,0.4169032574,-0.029015244920000002,0.0,1.0,0.0,0,30.0,,,,,,1.0212928558534355,-9.703982400583955,0.5313368075300238,-0.8568762335937321,0.35107435259309194,-0.023389263339726428,-0.6866211855340343,-0.32156860987590163,-1.4211491718554916
310,15.4826512,1.108774185,-7.89182806,0.5494518876,15.64465818,0.5244801043999999,0.3207855225,-0.1010276675,15.65609938,-0.9559759498,0.5385382175,-0.06581879407,0.0,1.0,0.0,0,30.0,,,,,,1.0644458328019148,-8.88249936283111,0.5433336085125817,-0.9329022700347799,0.4821848338999899,-0.052830796634748704,0.0988944998712541,0.11542962245241928,-0.4187108185338775
311,15.532651199999998,-1.505683661,-10.89631653,0.3625126183,15.69465818,0.1558115184,0.3303966522,-0.352868855,15.70609938,-0.9184852242,0.608327508,-0.1203369126,0.0,1.0,0.0,0,30.0,,,,,,-0.20335313221512608,-9.79539988442182,0.42358401735851803,-0.9218419876163153,0.5704078453870115,-0.0996727844132988,0.1358106613969992,0.2616732710708044,-0.36871351958209203
312,15.582651199999999,1.060917735,-9.689735413,0.7671987414,15.74465818,0.1558115184,0.3303966522,-0.352868855,15.75609938,-0.8918370008,0.5468609929,-0.18714833260000002,0.0,1.0,0.0,0,30.0,,,,,,0.42028910108703543,-9.747500227444544,0.6511445603860224,-0.8988231505732062,0.5539393960540032,-0.16037141152248297,0.14878314111567084,0.3084262918279118,-0.35668182445332514
313,15.632651199999998,0.5413761139,-9.74477005,-0.5207380056,15.79465818,0.1558115184,0.3303966522,-0.352868855,15.80609938,-0.7036196589,0.3293230236,-0.1938676536,0.0,1.0,0.0,0,30.0,,,,,,0.48001916134675426,-9.746262587597542,-0.12494043947790501,-0.7490694646770885,0.3968447969693773,-0.18361420279582133,0.15334171988161285,0.32337288930797303,-0.35378643428812456
