,Time (s),Acceleration x (m/s^2),Acceleration y (m/s^2),Acceleration z (m/s^2),Time (s).1,Linear Acceleration x (m/s^2),Linear Acceleration y (m/s^2),Linear Acceleration z (m/s^2),Time (s).2,Gyroscope x (rad/s),Gyroscope y (rad/s),Gyroscope z (rad/s),Sitting,Walking,Running,Bikking,Unnamed: 16,Unnamed: 17,Unnamed: 18,Acceleration x (m/s^2)_kalman,Acceleration y (m/s^2)_kalman,Acceleration z (m/s^2)_kalman,Gyroscope x (rad/s)_kalman,Gyroscope y (rad/s)_kalman,Gyroscope z (rad/s)_kalman,Linear Acceleration x (m/s^2)_kalman,Linear Acceleration y (m/s^2)_kalman,Linear Acceleration z (m/s^2)_kalman
0,0.031360282,3.141177893,4.686941147,11.73709393,0.154233876,0.17824363710000002,-0.2588305473,-1.467961311,0.14130372,0.3967452943,0.41736137869999995,0.10208784789999999,0,0,0,1,,COUNT,TIME,2.1154370122201898,3.973934070885116,9.69424290103643,0.34003160540386035,0.45344709268880656,0.11549969433641052,0.009809712018233045,-0.1713540497917992,-1.3017102369379159
1,0.050985282,0.9915258884,4.358825684,10.15693378,0.193499709,-0.7435727715,0.05869579315,-1.653717995,0.19130372,0.1791309565,0.37299859520000006,0.1915006191,0,0,0,1,ACC,3401,2.8319937503,1.6555966993773468,4.220845547866763,9.849631832852026,0.2151693614782868,0.39841131419247966,0.17056954786428202,-0.48026514512158885,-0.019809727701013108,-1.5346255822499977
2,0.100985282,1.350449324,3.568894863,8.466703415,0.24349970899999998,0.0,0.0,0.0,0.24130372,0.07811209559,1.062568784,0.1843231618,0,0,0,1,LA,3398,2.8306544304,1.5015780333096278,3.764527196591622,9.252061134141563,0.10595495408093213,0.8740590288140859,0.18089578008064094,-0.1427180569172259,-0.005739790413418348,-0.4424829565902748
3,0.150985282,1.202094316,5.100899696,8.143373489,0.293499709,1.278730869,-0.4985482693,-0.7150907516,0.29130372,-0.4296546876,1.325233102,0.2368560284,0,0,0,1,GYR,3398,2.83083335466667,1.3437132740509348,4.706799835910048,8.740354384339263,-0.321305381910907,1.1983296523140903,0.2230012924949461,0.8627945619655402,-0.3578586572006628,-0.6376058294814584
4,0.200985282,1.041775107,4.0402808189999995,7.305586815,0.343499709,-0.5126196742,0.01370573044,-0.872382164,0.34130372,-0.2544178963,1.924550653,-0.182490617,0,0,0,1,,,,1.1830589999065366,4.236539875844142,8.066093165443018,-0.2679463267430194,1.7204306343963942,-0.08213839458070615,-0.11068900103909463,-0.09224159680366323,-0.8057279198294733
5,0.250985282,2.013560295,3.698107481,8.322834969,0.393499709,-0.5126196742,0.01370573044,-0.872382164,0.39130372,0.4098021686,1.177178979,-0.4087331593,0,0,0,1,,,,1.6258481202518096,3.8566299917166678,8.18735094782469,0.2727240835973897,1.329862848290347,-0.32790859496068553,-0.39517876563891957,-0.016500948543288194,-0.8534604472565372
6,0.30098528199999997,-0.471386075,4.349254131,9.093922615,0.44349970899999996,-0.5126196742,0.01370573044,-0.872382164,0.44130372,0.9759812354999999,-0.34963369369999997,-0.332377255,0,0,0,1,,,,0.5071947785431001,4.204219914449891,8.616112464466486,0.8337439360077716,0.1223959378028574,-0.3312713678068948,-0.47830471886035614,0.0050935630169746185,-0.8670107332561882
7,0.350985282,3.553042412,3.5590245719999998,10.07557774,0.493499709,-0.2986725569,-1.0845985409999999,-0.6588668823,0.49130372,0.8689302206,-1.9973942040000001,-0.7138513923,0,0,0,1,,,,2.131989679922059,3.7489773187193567,9.30662896322377,0.8618136174846286,-1.4016183990107043,-0.61917193666413,-0.35115907612401986,-0.7739187504451973,-0.7179539944457916
8,0.40098528200000005,1.752742529,2.48195529,10.72672462,0.543499709,0.6098927259,-0.9157481194,0.08327102661,0.54130372,-0.05558710173,-0.7542436719,-0.729809761,0,0,0,1,,,,1.9296776098819253,2.854980756167146,9.978590070174821,0.1299618100648008,-0.9361910169762575,-0.7024295314139656,0.32908410136347355,-0.8753114527485683,-0.1441777791849509
9,0.45098528200000004,1.752742529,2.48195529,10.72672462,0.5934997089999999,0.6098927259,-0.9157481194,0.08327102661,0.59130372,-2.045192957,-0.3454341292,-1.485046029,0,0,0,1,,,,1.8352899116836423,2.591778161360135,10.332602966412086,-1.6052569599985975,-0.5114687959816553,-1.2913670632097056,0.5278435762597787,-0.9042193082786845,0.018703698215723374
10,0.500985282,0.7663014531,3.1857442860000003,9.115457535,0.643499709,0.055760383610000006,-0.4879312515,-7.418509482999999,0.64130372,-4.825082302,-0.3004604876,-1.8430788519999999,0,0,0,1,,,,1.2650273072148068,3.0108740121201634,9.756652142906976,-4.173856424607488,-0.35976524542014987,-1.7065433084623085,0.1936978297065342,-0.6066182443097511,-5.307260826712737
11,0.5509852820000001,-0.7636095285,5.8193445210000005,8.916853905,0.693499709,-2.636665344,-2.69180727,-7.130287647,0.69130372,-3.7373161319999997,0.100026235,-1.608971715,0,0,0,1,,,,0.18283042661877325,4.9924993760906915,9.359260364563756,-3.825608602509543,-0.02920006231425798,-1.6331183632768929,-1.8096647777932702,-2.0973035103831084,-6.612773515032853
12,0.600985282,-0.10019944609999999,1.7587246890000001,0.8653044701,0.7434997090000001,-2.636665344,-2.69180727,-7.130287647,0.74130372,-2.30319953,0.37887802719999997,-1.161831498,0,0,0,1,,,,0.03184526537748186,2.7107841431616384,5.339925462012353,-2.6111144253427465,0.2641859923020283,-1.2784637860428933,-2.395024998153446,-2.522309581401976,-6.983377643497288
13,0.650985282,-2.6883361339999996,-3.9583268169999997,3.2497522830000003,0.7934997090000001,-2.636665344,-2.69180727,-7.130287647,0.79130372,-1.8695744280000002,0.6170321107,-1.346078277,0,0,0,1,,,,-1.4192631546132075,-1.9948659226619103,4.350856577364222,-2.0195546235502553,0.517863249720774,-1.3293452986623906,-2.5660607289270985,-2.643482148484579,-7.088583377048013
14,0.700985282,-5.980261802999999,-3.30239439,13.51825142,0.843499709,-4.1209445,2.024466038,1.209766388,0.84130372,-1.788942575,1.4997063880000001,-1.247044683,0,0,0,1,,,,-3.8523742545278226,-2.917443378046363,8.6888633624956,-1.8355850226137094,1.2237553126672074,-1.267412127191352,-3.6666247959681346,0.6935973671486244,-1.1459385468736247
15,0.750985282,-4.785645485,0.03020938672,9.958030701,0.8934997090000001,-4.785246372,1.239790201,0.42114830020000005,0.89130372,-2.4444580080000002,2.297243834,-1.033095479,0,0,0,1,,,,-4.350237281076817,-0.8376125714623188,9.289432738410193,-2.321310382728707,1.9955354447239135,-1.091083275386771,-4.45839761807269,1.0840663366694152,-0.0237105360327865
16,0.8009852820000001,-5.843871117000001,-0.7740781307,10.37707329,0.943499709,-4.785246372,1.239790201,0.42114830020000005,0.94130372,-2.0527522559999998,1.680822611,-0.7388961315000001,0,0,0,1,,,,-5.147031436716949,-0.7927833810264076,9.804103726905995,-2.10706948881974,1.7692739544889657,-0.8260540716082203,-4.689744809981252,1.1953921050037206,0.2948634139683698
17,0.850985282,-6.748657227000001,-2.593520641,8.500203133,0.9934997090000001,-4.785246372,1.239790201,0.42114830020000005,0.99130372,-1.060507178,1.304769754,-0.1737860441,0,0,0,1,,,,-6.001434998364378,-2.0633634416435496,9.187098587910725,-1.2721796718724163,1.4353205810649963,-0.33520686442456593,-4.757341880390559,1.2271319554467237,0.3852990122950392
18,0.900985282,-4.754538536,-2.7924239639999997,7.156932353999999,1.043499709,-1.842512608,1.2787714,2.729658127,1.04130372,-1.192450166,2.129260778,-0.3620797098,0,0,0,1,,,,-5.336265403101781,-2.5777803877108267,8.226424894522038,-1.2085758595581952,1.9342260157716717,-0.355429319811285,-2.694193226475316,1.2640485893187117,2.064150105177445
19,0.950985282,-6.169294834,-5.088337421,9.974780082999999,1.093499709,-0.008792400359999999,1.545269966,2.092156887,1.09130372,-0.6703284979,1.1687035559999999,0.2494547516,0,0,0,1,,,,-5.780653422669421,-4.349201337559544,9.053745735565565,-0.7791917352264228,1.3838568096187727,0.09976033323837002,-0.7934365848110994,1.4650915440514682,2.084206425077745
20,1.000985282,-6.169294834,-5.088337421,9.974780082999999,1.143499709,-0.008792400359999999,1.545269966,2.092156887,1.14130372,-1.02446723,0.9168053865000001,0.8674794436,0,0,0,1,,,,-5.987978135014164,-4.8707274873963655,9.489578749287054,-0.9748590268392903,1.0480721207570953,0.677487226659186,-0.23805668381659462,1.5224104686033753,2.0898999392222883
21,1.050985282,-4.584349155,-4.690829754,8.538488388,1.1934997090000001,0.16619634630000002,0.7113518715,0.2178888321,1.19130372,-2.7860744,2.1037578580000003,0.8336538076000001,0,0,0,1,,,,-5.239197984867515,-4.743793659679939,9.03952324403319,-2.419746976765129,1.8070530153540423,0.7950062938211384,0.048078117514417484,0.9425910442179528,0.7493084429765342
22,1.1009852820000001,-7.016952515,-6.840780735,7.784450054,1.243499709,0.6952905655,0.5697345734,-1.6262342930000002,1.24130372,-2.779355049,0.3417690396,0.8683957458,0,0,0,1,,,,-6.187559213576153,-6.223404274750497,8.445623209268705,-2.7066225069617302,0.7535931615283415,0.8502336022281828,0.5061823033384598,0.6760388800730524,-0.95187397985613
23,1.150985282,-7.016952515,-6.840780735,7.784450054,1.293499709,0.6952905655,0.5697345734,-1.6262342930000002,1.29130372,-0.3453577757,-0.36933353539999997,0.538461864,0,0,0,1,,,,-6.630007502645936,-6.6590181966708295,8.132756387659825,-0.822935449388905,-0.05373034274587907,0.6156179526151915,0.6400352394751788,0.6000427656800932,-1.434799373696796
24,1.200985282,-5.688038349,-7.200003147,0.4462614357,1.343499709,0.6952905655,0.5697345734,-1.6262342930000002,1.34130372,1.5930132869999998,1.564227104,-0.024128466839999998,0,0,0,1,,,,-6.127504480519702,-7.040731124089585,4.495510642928693,1.104375497770091,1.1094934717375484,0.13419355334305066,0.6791455752172371,0.5783756769083503,-1.5718904539278213
25,1.250985282,-6.870691299,-8.435297966,3.750151396,1.393499709,2.0017261509999997,-0.8329911231999999,0.6835052967,1.39130372,0.6310052276,0.7882983684999999,-0.1217876747,0,0,0,1,,,,-6.52396504520561,-8.024721882540293,4.142807002728086,0.7267467466970561,0.8785715807179952,-0.058438410196037766,1.615282850584662,-0.43059936946711863,0.04325186678495996
26,1.300985282,-3.83270359,-5.131408215,13.63789272,1.4434997090000001,-1.15610218,-0.9267683029000001,-3.105736017,1.44130372,-0.1200314835,-0.02489202656,0.20280128719999999,0,0,0,1,,,,-5.088284259525512,-5.983232134601277,8.63587703637559,0.05123367453829575,0.22903015705734342,0.13815067658419272,-0.3463343698983006,-0.7853066451376982,-2.211812947205169
27,1.350985282,-5.015356064,-7.6980094910000005,1.2412767409999999,1.493499709,-1.15610218,-0.9267683029000001,-3.105736017,1.49130372,-0.531437099,-0.06948387622999999,-0.1958529055,0,0,0,1,,,,-5.049379972062546,-7.19315984889327,5.1367557038949325,-0.41358900305715,0.014414727502230135,-0.11319496439824983,-0.9194970535478373,-0.8864364738312762,-2.8519724320528055
28,1.400985282,-9.662218094,-7.30768013,0.3792623878,1.543499709,-1.15610218,-0.9267683029000001,-3.105736017,1.54130372,-0.01229330152,-0.4797441661,-0.1175117418,0,0,0,1,,,,-7.510145367818527,-7.273964077763618,2.8855121360551186,-0.0934573764638521,-0.3408587652019126,-0.11644344209565866,-1.086968800073113,-0.9152693818460828,-3.033698546308156
29,1.450985282,-8.52981472,-7.223931789,0.489631325,1.593499709,2.473069668,0.9970855713,0.17053341870000002,1.59130372,0.06818582863,-0.17264071109999998,-1.5438400509999999,0,0,0,1,,,,-8.054098351010419,-7.238661854954308,1.751782479119405,0.03549267701380787,-0.21991909094516565,-1.1905933457394469,1.432866114929008,0.45185816244537735,-0.7390721373791349
30,1.5009852819999998,-6.404090881,-6.967600346,3.889234066,1.643499709,3.9718565939999997,2.474145889,0.92689991,1.64130372,-0.20784078539999998,0.4087331593,-1.83246541,0,0,0,1,,,,-7.173885090352521,-7.047403887140505,2.76322355045592,-0.1586253681688046,0.23204784422007435,-1.6736173434651578,3.2299918808284476,1.8975757837000966,0.4539699077012609
31,1.5509852819999999,-3.4782667160000003,-5.231906891,3.1660034660000003,1.6934997090000001,3.9718565939999997,2.474145889,0.92689991,1.69130372,0.41736137869999995,-0.6777350307,-0.05230379477,0,0,0,1,,,,-5.202419894441673,-5.766409521983772,2.9538188141979886,0.30086516077669456,-0.42203679074080575,-0.45354032940260813,3.755091995205017,2.309761226190312,0.7926462846471074
32,1.600985282,-2.07786727,-4.755435943999999,3.968197346,1.743499709,-2.6786017419999997,-1.377543926,-2.290574789,1.74130372,0.44225341079999997,-0.8512920141,-0.19470755760000003,0,0,0,1,,,,-3.535595528704018,-5.053077877873536,3.4338222514547536,0.41365692578502805,-0.7306480581600842,-0.25876251133842204,-0.7987481548775093,-0.32626428247879335,-1.4153213586524067
33,1.650985282,-9.600004196,-9.160622597,2.337787628,1.793499709,0.6868228912000001,1.604552746,1.315002203,1.79130372,0.1263690293,-0.1562241912,-0.2878617644,0,0,0,1,,,,-6.770715990455989,-7.951315468078661,2.915179190534673,0.18447445197349233,-0.31766839485973136,-0.28066039151912325,0.25275559275779313,1.0540616544219374,0.5399280171622849
34,1.700985282,-9.600004196,-9.160622597,2.337787628,1.843499709,0.6868228912000001,1.604552746,1.315002203,1.84130372,-0.1021642014,-0.1294996142,-0.01847812906,0,0,0,1,,,,-8.280028549749318,-8.804589045915208,2.6419577786454784,-0.044190091430295064,-0.18238522831194964,-0.08336200208658953,0.5599932656172364,1.447603414387736,1.0949770008566726
35,1.7509852819999998,-4.517350197,-5.9237313270000005,5.529214859,1.893499709,0.6868228912000001,1.604552746,1.315002203,1.89130372,0.2938175201,0.2134147584,-0.7084301114,0,0,0,1,,,,-6.272789526462024,-6.771888076288162,4.008206451830858,0.22545377985883275,0.10217353510875937,-0.5537406238043435,0.6497646885307244,1.5598052593988658,1.2525422598517335
36,1.8009852819999999,-6.413661957,-7.975576877999999,2.921935558,1.9434997090000001,0.3519568443,-0.05694723129,-0.1114468575,1.94130372,0.4663055241,-0.7476006745999999,-0.7036960125,0,0,0,1,,,,-6.347939356697998,-7.621197425211238,3.494183583180174,0.417592046878372,-0.508768118254787,-0.66658562101421,0.43897297643334393,0.40400159507248934,0.275757344065078
37,1.850985282,-5.290830135,-9.629914284,3.652045488,1.993499709,0.2161593437,-1.067935467,-1.4271912569999998,1.99130372,-0.27220880989999996,-0.4892886579,-0.7524874806,0,0,0,1,,,,-5.784013694719979,-9.03852556305521,3.5688837614088333,-0.1326931155252346,-0.49476344080380863,-0.7312288138621312,0.2812630032645064,-0.6482746559468577,-0.9437644873361648
38,1.900985282,-4.414458752,-8.502297401,3.470191002,2.043499709,0.2161593437,-1.067935467,-1.4271912569999998,2.04130372,-0.6668161154,-0.06665870547,-0.8147175312,0,0,0,1,,,,-5.053410685806876,-8.660168972604618,3.5221823946826714,-0.5587870509707881,-0.18697931200982115,-0.7940560597361461,0.23518190726072444,-0.9482868753261335,-1.2899578483903462
39,1.950985282,-4.27567482,-8.830412865,2.914757013,2.093499709,0.2161593437,-1.067935467,-1.4271912569999998,2.09130372,0.2350998372,0.024052111430000002,-0.055205322800000005,0,0,0,1,,,,-4.638519580762571,-8.780291157827335,3.2347489939685983,0.07453221924389908,-0.03525914296757962,-0.2380533040182664,0.2217175247220471,-1.0338227141229208,-1.3882339432924624
40,2.000985282,-4.493422031000001,-8.835198402,3.362514019,2.143499709,-0.5631310939999999,-1.4683170319999999,-0.5350809097,2.14130372,0.9269607067,-0.27365958690000003,-0.2778591514,0,0,0,1,,,,-4.561115817819774,-8.819033095189088,3.295207342874507,0.7545527557306162,-0.2066561560959465,-0.2680081510681639,-0.333807077113603,-1.3444392911569798,-0.7772708472748843
41,2.050985282,-4.337888241,-7.997112274,5.028815746,2.193499709,0.8773450851000001,2.56481123,-0.3170080185,2.19130372,0.12812520560000001,-0.49936762450000005,-0.7795938253,0,0,0,1,,,,-4.442032797265334,-8.239094961172384,4.1155500124351745,0.2548233298039433,-0.41709985564452673,-0.6529885408305136,0.5234599252979145,1.4502532191667399,-0.44766573331372794
42,2.100985282,-4.254139423,-9.553344727,3.640081406,2.243499709,0.8773450851000001,2.56481123,-0.3170080185,2.24130372,-0.4652365446,-0.5637356639,-0.3347443044,0,0,0,1,,,,-4.341799166610371,-9.166414889176085,3.8905584945015006,-0.3196008116932042,-0.5225230634869084,-0.4135021823670672,0.7739437865608192,2.2470419917848186,-0.3540986488346014
43,2.1509852819999997,-1.668395638,-3.477070332,4.537988186000001,2.293499709,0.8773450851000001,2.56481123,-0.3170080185,2.29130372,-0.009544488043,-0.3156553209,-0.5531222224,0,0,0,1,,,,-2.9156448734765705,-5.152077033100279,4.19692191563437,-0.07225493969338914,-0.37379635556162205,-0.5185695838654746,0.8471323784192234,2.4742127255327984,-0.3275371698796488
44,2.200985282,-3.557528973,-7.705187798,3.723830223,2.293499709,-0.8066146374,-0.3256206512,-0.09865808487,2.34130372,0.2695363462,-0.1507265568,-0.7491278052,0,0,0,1,,,,-3.2580644723357306,-6.953523419182657,3.97305515238746,0.20040733874410294,-0.21342124635891907,-0.6920701300863485,-0.3234081953878988,0.4726338227540965,-0.1636314356323355
45,2.250985282,-3.557528973,-7.705187798,3.723830223,2.393499709,-0.8066146374,-0.3256206512,-0.09865808487,2.39130372,0.04230117425,-0.23013670739999997,-0.79394871,0,0,0,1,,,,-3.417816854732778,-7.483889393431316,3.8551220347229207,0.07427894160613593,-0.22543875795610696,-0.7687361849867856,-0.6654271018281555,-0.09803203452783538,-0.11710248012365676
46,2.300985282,-2.53280282,-8.619544982999999,5.064708233,2.443499709,-0.8066146374,-0.3256206512,-0.09865808487,2.44130372,0.2454078794,-0.4291965663,-0.7898254991,0,0,0,1,,,,-2.9456971198940582,-8.285195269380942,4.427497646709303,0.2107961905785881,-0.37192959153905814,-0.7846063955090405,-0.7653612134515806,-0.26073335008188336,-0.10389401178866871
47,2.350985282,-2.28365016,-8.521439552,3.901198149,2.493499709,-0.5075274706,0.331404686,-0.5828232765,2.49130372,0.39514181020000005,-0.23777230079999997,-0.7791357040000001,0,0,0,1,,,,-2.592521437882983,-8.45188659184001,4.178452975312947,0.35785698099398144,-0.2754777622748098,-0.780489570039261,-0.5828636159138754,0.16258148369814268,-0.44686660268642436
48,2.4009852819999997,-1.989332914,-8.78973484,4.94955349,2.543499709,-0.4572885036,-1.03440094,-0.09809827805,2.54130372,0.1042258143,0.025961007919999998,-0.6918608545999999,0,0,0,1,,,,-2.270744387263462,-8.690268535496967,4.5433373708933,0.15552399406082582,-0.05875960521372184,-0.7137943533434548,-0.49398015153564667,-0.6931318548259591,-0.19710534411669883
49,2.450985282,-1.989332914,-8.78973484,4.94955349,2.593499709,-0.4572885036,-1.03440094,-0.09809827805,2.59130372,0.1876828223,0.05123481527,-0.29809346800000003,0,0,0,1,,,,-2.120622575870572,-8.76045084720365,4.735558644537529,0.1811785375037847,0.02032042844796507,-0.4009695481713534,-0.46800939412021647,-0.9371024448629139,-0.1262040389174095
50,2.500985282,-1.553540111,-9.71605587,4.456632137,2.643499709,-0.4572885036,-1.03440094,-0.09809827805,2.64130372,0.2255553454,-0.20364120600000002,-0.05245650932,0,0,0,1,,,,-1.8181066691212249,-9.434715058107669,4.603570754362025,0.21657991271328084,-0.1406958623356357,-0.1387051958233072,-0.46042102832631593,-1.0066603752156655,-0.10607683781444346
51,2.550985282,-0.9957132936,-9.536594391,5.2154560089999995,2.6934997089999997,0.2050295472,0.665810585,-0.8620147705,2.69130372,0.2877090573,-0.3735330999,-0.1720298529,0,0,0,1,,,,-1.3793925614809472,-9.506599975274376,4.893114564940965,0.273322829912793,-0.30809323124352195,-0.16378279299347812,0.010592307507160115,0.1889759856073967,-0.6474218973595144
52,2.600985282,-0.9646066427,-8.741579056,4.401597023,2.743499709,-0.2794197202,-0.46737957,-0.11640119550000001,2.74130372,0.23151111600000002,-0.4180485904,-0.3532987833,0,0,0,1,,,,-1.1581207959055695,-8.966809775067963,4.66052869855678,0.2399677455561316,-0.38714518194134123,-0.3063980840082223,-0.19468143874873592,-0.28024744880708113,-0.2671453944600797
53,2.6509852819999997,-0.9646066427,-8.741579056,4.401597023,2.7934997089999998,-0.2794197202,-0.46737957,-0.11640119550000001,2.79130372,-0.1225512326,-0.40224292869999995,-0.08979454637,0,0,0,1,,,,-1.0548887033920602,-8.807889499874571,4.538002353200448,-0.04922994506638895,-0.39799964455928205,-0.14339876925189443,-0.254660139005994,-0.4140267332935321,-0.15919390291735003
54,2.700985282,-1.165603757,-8.746364594,5.780461311,2.8434997089999996,-0.2794197202,-0.46737957,-0.11640119550000001,2.84130372,-0.021608721459999997,-0.16156910359999999,0.164623335,0,0,0,1,,,,-1.1139507743511123,-8.764478214404543,5.125933339530319,-0.027195252927299837,-0.22801888502940654,0.08839519159448359,-0.2721852465765715,-0.45216825744830824,-0.128549031521281
55,2.750985282,-1.0651051999999999,-9.507881165,4.803591251,2.893499709,-0.049500048160000004,-0.7877731323,-0.04166793823,2.89130372,0.1711899489,-0.1582094431,0.2402156889,0,0,0,1,,,,-1.0878936059911741,-9.289015017348326,4.973401217173924,0.13106554357621714,-0.1778296754856559,0.20264372743677145,-0.11456618063553717,-0.692089548048235,-0.06633142265989825
56,2.800985282,-1.0651051999999999,-9.507881165,4.803591251,2.9434997089999997,-0.049500048160000004,-0.7877731323,-0.04166793823,2.94130372,0.2483857721,-0.15996561939999998,-0.01068982668,0,0,0,1,,,,-1.0757368990214504,-9.443444521702077,4.893047222357648,0.22465716553702725,-0.16498638628214374,0.042105153069989826,-0.06851164671028243,-0.7604929913450853,-0.048669317256071556
57,2.850985282,-0.3349951804,-8.847162247,5.232205868,2.993499709,-0.049500048160000004,-0.7877731323,-0.04166793823,2.99130372,0.1604237556,-0.1953947693,-0.055205322800000005,0,0,0,1,,,,-0.6805806979321444,-9.022714420862476,5.053536931584381,0.1734152860165103,-0.18684836748943423,-0.031123294897179216,-0.05505502531483577,-0.7799953499859772,-0.04365546389518637
58,2.9009852819999997,0.46959143880000004,-8.490332602999999,5.48345232,3.0434997089999998,-0.2811513543,-0.7855043411,0.1960926056,3.04130372,0.1643179059,-0.2641914487,0.001221694518,0,0,0,1,,,,-0.06700967757086473,-8.647071767852289,5.2569726883566865,0.16615789680854295,-0.24245385582093212,-0.00678292092250524,-0.21508852750923965,-0.7839336845068442,0.12803380758943875
59,2.950985282,-0.1576271951,-9.019445419,5.114957333,3.0934997089999996,-0.17170630399999998,0.003341674805,-0.16639137269999998,3.09130372,0.11858072130000001,-0.40949672460000003,0.1460688561,0,0,0,1,,,,-0.11535051363436798,-8.909814449460569,5.189771089760221,0.1282034444682033,-0.3625486354322585,0.10824167742157312,-0.18438210605042335,-0.2211167101307021,-0.08281103806740514
60,3.000985282,-0.1576271951,-9.019445419,5.114957333,3.143499709,-0.17170630399999998,0.003341674805,-0.16639137269999998,3.14130372,0.002061609412,-0.1642415524,-0.05635065958,0,0,0,1,,,,-0.13790343920854373,-8.987168835016792,5.154369255563953,0.02757443029306257,-0.21997657826479017,-0.015617971581593504,-0.1754100320163895,-0.060653172705670166,-0.14266489545593847
61,3.050985282,-0.1336989701,-8.047361374,5.406881809,3.1934997089999997,-0.17170630399999998,0.003341674805,-0.16639137269999998,3.19130372,-0.11224318300000001,-0.1272853017,-0.16668494050000002,0,0,0,1,,,,-0.13566052240390883,-8.324051206899732,5.273858075510596,-0.08396436712002509,-0.1533365683458109,-0.1292994593221389,-0.1727884920046317,-0.014903758570647435,-0.1596559878069342
62,3.100985282,-0.4139583111,-8.495118141,6.180361747999999,3.243499709,0.3410905004,-0.10369110109999999,-0.17888116839999998,3.24130372,0.1485122442,-0.18233790989999998,-0.1005607322,0,0,0,1,,,,-0.2841213072846901,-8.444754121484795,5.702815180801537,0.10149267976601817,-0.1741869629310824,-0.10767288349992152,0.1909407875278597,-0.07837713275888275,-0.17342359499281607
63,3.1509852819999997,0.8739784956000001,-8.751151085,5.114957333,3.2934997089999998,0.5747061372,-0.312497139,-0.2885975838,3.29130372,0.33191913370000004,-0.3702498078,0.06024480984,0,0,0,1,,,,0.33367880720257614,-8.660944390288313,5.424641127450266,0.2853142238647066,-0.3151455343443832,0.01868917525102623,0.46257418024106567,-0.24574768739666822,-0.2559024164892968
64,3.200985282,0.8739784956000001,-8.751151085,5.114957333,3.3434997089999996,0.5747061372,-0.312497139,-0.2885975838,3.34130372,0.8174663186,-0.7017871737000001,0.09552124142999999,0,0,0,1,,,,0.6219071693154106,-8.72459322459329,5.278098903453778,0.7098358796751056,-0.5931199418158515,0.07650713277017188,0.5419424294135509,-0.2934663463581153,-0.2793162002317708
65,3.250985282,0.950548768,-8.63390255,5.4020962720000005,3.393499709,0.09065556526,3.161253452,-0.9097552298999999,3.39130372,0.0003054236295,0.10781454289999999,-0.136906147,0,0,0,1,,,,0.7972243715238437,-8.660602899248085,5.336774398872655,0.14381152869687264,-0.08918599310972264,-0.0840914370480752,0.22251655600563847,2.176285718661471,-0.7307885226568984
66,3.300985282,0.4121637046,-10.80538845,5.574678421000001,3.4434997089999997,-0.09254807234,-0.6347885132,0.20730924609999998,3.44130372,0.062000997360000004,0.0430647321,-0.09170344472000001,0,0,0,1,,,,0.5918098437800754,-10.173939584146467,5.449350468671077,0.07854758899419079,0.005895118784510545,-0.08981965389917694,-0.000489700287270245,0.16667081683432183,-0.058994489703017905
67,3.350985282,0.4121637046,-10.80538845,5.574678421000001,3.493499709,-0.09254807234,-0.6347885132,0.20730924609999998,3.49130372,0.0035123717969999997,0.02374668792,-0.02496838197,0,0,0,1,,,,0.49597578435309536,-10.61948283841885,5.508655595940486,0.018688622049783686,0.018729430578300323,-0.04101752905670576,-0.0656496422947176,-0.4062861668577321,0.13171192343041604
68,3.4009852819999997,0.670588553,-9.09601593,6.534499645,3.5434997089999998,-0.09254807234,-0.6347885132,0.20730924609999998,3.54130372,0.01756185852,-0.011911521670000001,0.01259872504,0,0,0,1,,,,0.5891247410861175,-9.544541635558044,5.994084510730735,0.017789752113662613,-0.0032997553043673106,-0.0006700224000864979,-0.08468865094404093,-0.5696407005363109,0.185848956845711
69,3.450985282,0.2587239444,-7.72911644,6.010172367000001,3.5934997089999996,-0.03969150782,-0.159386158,0.038862228389999996,3.59130372,0.06467345357000001,-0.05558710173,-0.001450762269,0,0,0,1,,,,0.4128690768545028,-8.263597932053706,6.00169727668873,0.0551909890328585,-0.04089152675119461,-0.001257547724165455,-0.05283917140855215,-0.2763529485073606,0.08058827891840831
70,3.500985282,0.13190434869999998,-7.824829102000001,6.290431498999999,3.643499709,0.2281424999,-0.1203289032,-0.3243284225,3.64130372,0.05581616982999999,-0.022906772790000002,-0.054747186600000004,0,0,0,1,,,,0.2629855860106957,-7.954007555082555,6.138326173185812,0.055689723866435774,-0.027961462278718225,-0.04150977341913386,0.14604278795366224,-0.16481258328165843,-0.2093821622846886
71,3.550985282,0.13190434869999998,-7.824829102000001,6.290431498999999,3.6934997089999997,0.2281424999,-0.1203289032,-0.3243284225,3.69130372,0.09536852687999998,-0.04138490185,-0.1061347127,0,0,0,1,,,,0.19305896725388588,-7.862860683785767,6.210302341033447,0.08734328930495981,-0.037612188639192475,-0.09014157755751966,0.20415387933644455,-0.13301154958036415,-0.29169790199647355
72,3.600985282,0.9580263495,-7.980362415,5.766104221,3.743499709,0.2281424999,-0.1203289032,-0.3243284225,3.74130372,0.13033953310000002,-0.056885149329999996,-0.08513683826,0,0,0,1,,,,0.6011385949179955,-7.945768590707454,6.0001080026821185,0.12164332642936863,-0.05146840401341839,-0.08637539217870902,0.2211332924140676,-0.12394482523869219,-0.3150653906831996
73,3.6509852819999997,0.7591229677,-7.910970688,5.91206646,3.7934997089999998,-0.3119931817,-0.18580579760000002,-0.43024301530000003,3.79130372,0.08063183724999999,-0.050547610970000004,-0.060779303310000005,0,0,0,1,,,,0.685416964848948,-7.921215579851224,5.9584467865185005,0.08892661730393553,-0.050806403662134056,-0.06711372641333808,-0.15621956927983593,-0.16816874876375404,-0.39754681588235574
74,3.700985282,0.6466603278999999,-8.085646629,6.094220161,3.8434997089999996,-0.1152674556,0.05758428574,-0.3493738174,3.84130372,0.04703523964,0.1407239437,-0.01511846948,0,0,0,1,,,,0.6647418428278785,-8.037236288382385,6.022694682765519,0.05550798156598792,0.08689354739793308,-0.027986058683249798,-0.12723320666601218,-0.0067796765279063975,-0.363048990624079
75,3.750985282,0.6466603278999999,-8.085646629,6.094220161,3.893499709,-0.1152674556,0.05758428574,-0.3493738174,3.89130372,0.09643751382999999,0.1828723997,0.017027366909999998,0,0,0,1,,,,0.6550960748571789,-8.071394083245748,6.05654050515516,0.08815930997227003,0.1558971462762371,0.005887614876315846,-0.11876371465121055,0.039233614846991886,-0.3532558751851368
76,3.800985282,0.23001007739999998,-7.7769727710000005,6.326323986,3.9434997089999997,0.5915772319,-0.2128081322,-0.09715938568,3.94130372,0.09735377877999998,0.1491994411,0.00923906453,0,0,0,1,,,,0.42832962755384385,-7.863653699681702,6.184201919627565,0.09549415119700105,0.1510818588242343,0.008409660466435615,0.384023526211479,-0.14094905160601176,-0.1698591128797145
77,3.850985282,0.5533402561999999,-8.052146912000001,6.594320297,3.993499709,0.3427998424,0.04721975327,-0.21527385710000002,3.99130372,0.032680328939999996,0.1236965731,-0.07513421029,0,0,0,1,,,,0.49501781842152776,-7.996652400786997,6.378269740284906,0.04538474056472978,0.1313933209049555,-0.05445908966278111,0.3548449432166969,-0.006428650100870181,-0.20238168696936149
78,3.9009852819999997,1.312164068,-7.987541199,6.290431498999999,4.043499709,0.3427998424,0.04721975327,-0.21527385710000002,4.04130372,0.037872530519999996,0.09124530852,-0.0807081908,0,0,0,1,,,,0.9309327934720915,-7.990223638570266,6.33670472663607,0.039391912802691914,0.10252907345473024,-0.07421216269520799,0.3463192865494586,0.03192417233359412,-0.21161407538941274
79,3.950985282,0.9580263495,-7.491927624,6.127719879,4.093499709,0.3427998424,0.04721975327,-0.21527385710000002,4.09130372,0.0531437099,0.003206948051,-0.12010784449999999,0,0,0,1,,,,0.9453861264247044,-7.638631546444893,6.237813196493132,0.05036233973691309,0.0311218421993745,-0.10874975502312342,0.3438281847156025,0.04285886307366988,-0.21423493177377345
80,4.000985282,0.1869392693,-7.915756226,6.627819538,4.143499708999999,-0.6878000498000001,0.3266654015,0.07021570206,4.14130372,0.055892523379999996,-0.06253548712,-0.06917845457999999,0,0,0,1,,,,0.540784939208168,-7.834167619021509,6.422364011313439,0.0547740159090083,-0.0362127073379853,-0.07897141009493165,-0.3863697802883532,0.24574992952561095,-0.010533095089845401
81,4.050985282,0.6107679604999999,-8.231907845,6.402894497,4.193499709,-0.931736052,0.1564688683,0.3585538864,4.19130372,0.08307522535,-0.061237439510000005,-0.01740914769,0,0,0,1,,,,0.5781180934739288,-8.114808671436464,6.413151046388486,0.07735116333245945,-0.05420413503125907,-0.03264434316286459,-0.7723861071933118,0.1819235996668785,0.25377883494836506
82,4.100985282,-0.1504487246,-7.432106972000001,6.484250069,4.243499709,-0.931736052,0.1564688683,0.3585538864,4.24130372,0.09575030953,-0.2118876427,0.01557660475,0,0,0,1,,,,0.18945671686860088,-7.633101991563527,6.446795069814772,0.09202898962523737,-0.16757004070893552,0.0036430672499756997,-0.885175774591781,0.16372621199686066,0.32881073111500264
83,4.150985282,-0.14087744060000001,-7.6091761589999996,6.999006271,4.293499709,-0.7427907586,0.5752482414,0.38347625729999996,4.29130372,0.08857285231,-0.2241045833,0.09674293548,0,0,0,1,,,,0.013236602006509224,-7.616220191769771,6.708101146978322,0.08927187347597444,-0.20821531624751044,0.0737029328013496,-0.7843940729667072,0.4579200804473745,0.3679580092987454
84,4.2009852819999995,0.1630110443,-7.046563625,7.097112179,4.343499709,-0.4853045344,0.5070881844,0.6186642647,4.34130372,0.057572353629999996,-0.20219044390000002,0.1504211426,0,0,0,1,,,,0.09313530101633108,-7.214276892951164,6.8921809816764386,0.06398374103071519,-0.2038837591734554,0.1314352106720222,-0.5726951633337952,0.4930699719697664,0.5474946972693606
85,4.250985282,-0.002093719784,-7.015456676,6.848258495,4.393499708999999,-0.1385191679,0.5699014664000001,0.4902529716,4.39130372,0.04604261369,-0.18363595010000003,0.201350525,0,0,0,1,,,,0.04233441165720589,-7.073991573009663,6.871396882089032,0.04967129696989404,-0.18932668057822966,0.18404814790279234,-0.26538055355703066,0.5479962042003078,0.506502541664842
86,4.300985282,0.4480560422,-7.101897717000001,7.109076022999999,4.443499709,-0.1385191679,0.5699014664000001,0.4902529716,4.44130372,0.08735115825999999,-0.17798562350000002,0.2589992285,0,0,0,1,,,,0.2587707405227614,-7.093681835602361,6.983866538241605,0.07973021671138242,-0.18117307448409112,0.24045061901148146,-0.17558665053399675,0.5636561041720722,0.49486583967216136
87,4.350985282,0.6179464459,-6.819245337999999,6.66640377,4.493499709,-0.027543365960000003,0.4382410049,0.1041793823,4.49130372,0.08880192041000001,-0.1675248593,0.26655846829999996,0,0,0,1,,,,0.4503766723920996,-6.900042514149105,6.833643307953132,0.08696712269163007,-0.1713607466341053,0.26009739669999676,-0.07079996331765383,0.4739978342238805,0.2150860133537168
88,4.400985282,0.49591249229999995,-7.24307394,7.154539585,4.543499709,0.05177021027,0.2709546089,0.4016079903,4.54130372,0.09536852687999998,-0.1545443535,0.3347443044,0,0,0,1,,,,0.4746682184808334,-7.142081649903179,6.985491273235581,0.09366930060412057,-0.15927067033345113,0.3162709704986307,0.01595657196140629,0.3288438263115882,0.34865881917612596
89,4.4509852819999995,0.49591249229999995,-7.24307394,7.154539585,4.593499709,0.05177021027,0.2709546089,0.4016079903,4.59130372,0.08528954536,-0.2443388999,0.3961344361,0,0,0,1,,,,0.48600119233137234,-7.213340679887235,7.065484853778956,0.08698439302254365,-0.2204301220966342,0.37637012822130134,0.041305864405137505,0.28745927921820047,0.3865769748027168
90,4.500985282,0.7016952634,-7.393822192999999,7.231409072999999,4.643499708999999,0.05177021027,0.2709546089,0.4016079903,4.64130372,0.078952007,-0.2998496592,0.46416756509999996,0,0,0,1,,,,0.6010653875414546,-7.340686416054217,7.144000115108612,0.08057659748829407,-0.2775284698153748,0.4424397880502562,0.04871264506242023,0.2756602199792733,0.3973410410156701
91,4.550985282,0.37118661399999997,-7.429714203,6.93679285,4.693499709,-0.02856782079,-0.07083415985000001,0.07921123505,4.69130372,0.07177454977999999,-0.2565558553,0.47821703549999994,0,0,0,1,,,,0.4784342185903605,-7.403503426218115,7.045949736332526,0.07355480822241117,-0.2624502953352475,0.46936301786849166,-0.005987330191369038,0.02795410776843041,0.1695207514028715
92,4.600985282,0.2012962103,-7.525427341,6.996613503,4.743499709,0.2946310937,0.1675243378,0.11970853810000001,4.74130372,0.09529217333,-0.23777230079999997,0.4839437306,0,0,0,1,,,,0.33059213034270396,-7.489531576484947,7.022603854017871,0.09089568185215872,-0.24470815326244466,0.48033535104724207,0.20679374157201066,0.1277317695897606,0.13384904552012677
93,4.650985282,0.5102694035,-7.350750923,6.862615108,4.793499709,0.2946310937,0.1675243378,0.11970853810000001,4.791303697,0.0805554837,-0.3036674559,0.5256340504,0,0,0,1,,,,0.4264427985017658,-7.391609500452146,6.946897255949868,0.08264684080686421,-0.28709670004214266,0.5144236998766569,0.26896599865063503,0.15617916421497835,0.12372269317767288
94,4.7009852819999995,0.6538388132999999,-7.250252724,6.95114994,4.843499709,-0.28891929980000003,0.5060176849,0.04724597931,4.841303697,0.04695888236,-0.37712183590000004,0.5574744939999999,0,0,0,1,,,,0.5477495145806865,-7.291869740553897,6.948909624246039,0.05417695153774027,-0.3518198991504956,0.5468204465549568,-0.12591143494600132,0.4062759764979248,0.06895590686825129
95,4.750985282,-0.0284147691,-7.60678339,7.006184577999999,4.893499708999999,0.08166760951,0.6047725677,-0.44236183170000004,4.891303697,0.03733803704,-0.4276694357,0.6028298736,0,0,0,1,,,,0.24038881947108498,-7.514069287751033,6.97601210501435,0.040743792233029784,-0.40635160976200563,0.5889688727597419,0.021015326820200048,0.5481796314143155,-0.29721083730680675
96,4.800985282,-0.07148557901000001,-6.733103752000001,6.967899322999999,4.943499709,-0.2216554731,0.1505723,0.33127498629999996,4.9413036969999995,-0.0196234677,-0.4366030693,0.5606050491,0,0,0,1,,,,0.07401625070796927,-6.963028744825982,6.9721731402030365,-0.007413885611584306,-0.42810077147851955,0.5676244207470965,-0.15074977067490425,0.2639332713146957,0.152862747932698
97,4.850985282,0.1486541033,-6.6158556939999995,6.6206412320000005,4.993499709,-0.2216554731,0.1505723,0.33127498629999996,4.991303697,-0.1200314835,-0.5416688323,0.47943875189999996,0,0,0,1,,,,0.11383257202048919,-6.718067324900765,6.80582840870547,-0.0972540076164758,-0.5097500590819178,0.501262607159041,-0.20093761731981666,0.18289240275821267,0.28062797786444893
98,4.900985282,-0.1794617027,-6.835995197000001,7.396513939,5.043499709,-0.2983428836,0.6010146141,0.02015161514,5.041303697,-0.2144073844,-0.4406499267,0.4288147688,0,0,0,1,,,,-0.04262824081490865,-6.80127591204999,7.085340519834048,-0.19071252443037107,-0.46007080468208134,0.44674388535946086,-0.2698821506608725,0.4818046894523863,0.0940946846015755
99,4.9509852819999995,-0.6460621357,-6.780960082999999,6.800402163999999,5.093499709,-0.040697366,0.9170060158,-0.4969415665,5.091303697,-0.1738623977,-0.22265382109999998,0.18714833260000002,0,0,0,1,,,,-0.36453618727632775,-6.786941290411967,6.950507825988343,-0.17727042059712225,-0.2893808463172637,0.25139205650750507,-0.10766260511757089,0.7929267013759294,-0.32916037469699133
100,5.000985282,-0.5120640397,-6.991528511,6.946363926,5.143499708999999,-0.040697366,0.9170060158,-0.4969415665,5.141303697,-0.304507345,0.1998997629,0.179054603,0,0,0,1,,,,-0.44323642010167463,-6.931295743961196,6.9485469344592214,-0.2787730367568329,0.06238542395714197,0.19695640192663388,-0.06026386233883693,0.8816300292373234,-0.4493124603660075
101,5.050985282,0.1654038578,-5.991029739,5.890531062999999,5.193499709,1.6694262030000002,-0.602853775,-1.669387341,5.1913036969999995,0.026877280319999995,0.5596888065,0.49035763740000005,0,0,0,1,,,,-0.11855107566927164,-6.267854572705707,6.447894328803729,-0.03494203432663273,0.4199196339778959,0.4177478112093138,1.1640300483918207,-0.1796157894500674,-1.3230369820433807
102,5.100985282,-0.3541377485,-7.738687515,6.326323986,5.243499709,1.6694262030000002,-0.602853775,-1.669387341,5.241303697,0.41010758280000004,0.09613208473,0.7690566778,0,0,0,1,,,,-0.24422718153836873,-7.305657838349762,6.390367300604239,0.32009405826821347,0.18713391465288348,0.6821160904550686,1.5217550806371034,-0.4821853029812881,-1.571066677786832
103,5.150985282,1.295414329,-7.726723194,3.5108690260000004,5.293499709,-2.51848793,-4.173413277,0.7341122627,5.291303697,0.3282540441,-0.7696675658,0.6608603597,0,0,0,1,,,,0.5771102358844997,-7.602756841661323,5.027790090690153,0.32660364586961127,-0.5007545523348689,0.6661206473957012,-1.3379739632693508,-3.121015205776848,0.07972656441451553
104,5.2009852819999995,-1.888834357,-11.94497108,7.707581042999999,5.343499709,-2.51848793,-4.173413277,0.7341122627,5.341303697,-0.03550549597,-1.204896212,0.2997733057,0,0,0,1,,,,-0.7383729790966551,-10.666574622095474,6.29586589115866,0.03773290009106767,-1.006994285900084,0.3904355578697139,-2.1735549095420357,-3.873366325490124,0.5483476634452413
105,5.250985282,-3.7010984419999997,-10.66181946,7.140182972000001,5.393499708999999,-2.51848793,-4.173413277,0.7341122627,5.391303697000001,-0.10811996460000001,-0.8776348233,0.06024480984,0,0,0,1,,,,-2.318868999964773,-10.663219431525508,6.695396331045815,-0.07862048878946076,-0.913991835319873,0.14195916522101878,-2.4177023469580656,-4.087867535565912,0.6813780932063416
106,5.300985282,-2.583052158,-7.822436333,4.511667252,5.443499709,0.426093936,0.5052280426,-1.28374958,5.441303697,0.1292705536,-0.7025507092000001,0.06795676053,0,0,0,1,,,,-2.459800191813085,-8.658794665360457,5.66205677230045,0.0872235441674741,-0.7619771122659885,0.08627059527916309,-0.40483163516624465,-0.8042995618574018,-0.7258963819383866
107,5.350985282,0.7519445418999999,-6.220740795,3.17557478,5.493499709,-0.1677232087,-0.9520697593999999,-0.02628135681,5.491303697,0.21173493559999998,-0.26862007379999997,0.176763922,0,0,0,1,,,,-0.7464623091260163,-6.938531136353815,4.485454679382164,0.18655188017878938,-0.4072801100178799,0.15436897632206992,-0.2370036475964494,-0.9099393160840729,-0.2248854906254969
108,5.400985282000001,-0.004486542661,-7.13061142,5.504987717000001,5.543499709,-0.1677232087,-0.9520697593999999,-0.02628135681,5.541303697000001,0.1412584335,-0.2407501787,0.015882028269999997,0,0,0,1,,,,-0.3506477926844488,-7.0740608348887015,4.967897226304398,0.15041926097484665,-0.2875541046729333,0.05015425350916464,-0.18796618058067674,-0.9400580392706157,-0.08266036605427984
109,5.450985282,-0.9047860503,-10.42702389,6.584748745,5.593499709,-2.409569502,-0.5904469489999999,0.2744941711,5.591303697000001,-0.1307213157,-1.490390897,0.09101624042000002,0,0,0,1,,,,-0.6462584802579276,-9.43987404524766,5.732990593684521,-0.07385921941120638,-1.1523286413507265,0.08090387070474671,-1.7604417779035864,-0.6901238152354084,0.17310645797153784
110,5.500985282,2.28903389,-10.08963585,8.916853905,5.643499708999999,-2.074761391,1.4244022369999998,-2.018949986,5.641303697000001,-0.2789281309,-0.9453625083,-0.04894413799,0,0,0,1,,,,0.9196030782567399,-9.898338703139697,7.239593193742601,-0.23745191162403445,-1.0035311960186153,-0.016809844732020407,-1.9829207038767525,0.8215342607454824,-1.3966770845628294
111,5.550985282,2.28903389,-10.08963585,8.916853905,5.693499709,-2.074761391,1.4244022369999998,-2.018949986,5.691303697,0.2411319613,-0.193485871,-0.2267770469,0,0,0,1,,,,1.6501398679442971,-10.033315828642875,8.03327216211355,0.14433596482041866,-0.4211524599718649,-0.17481515918929877,-2.0479265658434676,1.252519844500992,-1.842301448739307
112,5.600985282000001,0.6394818425,-4.928018093,5.069493771,5.743499709,-2.074761391,1.4244022369999998,-2.018949986,5.741303697,-0.1184280142,0.06536065787,0.1421747059,0,0,0,1,,,,1.110994068711944,-6.431074874734607,6.6308136409927965,-0.06528267723907002,-0.07137586615233182,0.06372725498635529,-2.066920554022578,1.3753972176030727,-1.9688036502002082
113,5.650985282000001,2.626421928,-7.288537979,7.868198872000001,5.793499709,0.7580724955,-0.5594906807,-2.7664611339999996,5.791303697000001,-0.9917868972,-0.001603474026,0.4129327536,0,0,0,1,,,,1.9194144681332528,-7.036091246180569,7.216343741880346,-0.8043967565624305,-0.021213293416486645,0.32651269975168024,-0.06735898047971545,-0.007838952304761948,-2.5400250684750296
114,5.700985282,3.105285645,-10.53978539,8.610273361,5.843499709,1.485262871,1.5127668380000001,-3.621630192,5.841303697000001,-0.3731513321,-1.358066201,-0.1995179802,0,0,0,1,,,,2.5520295041796284,-9.508258624285329,7.875950572830747,-0.4603728892411428,-0.9823381621543714,-0.06933790042353505,1.031604074529259,1.079230190705224,-3.314588117330163
115,5.750985282,1.4988043309999999,-8.200502396000001,4.640879631000001,5.893499708999999,1.485262871,1.5127668380000001,-3.621630192,5.891303697000001,0.7499676943000001,0.1193442866,-0.7193490267,0,0,0,1,,,,1.9901758270964418,-8.585520463138932,6.345116546328809,0.5051702208738382,-0.19028812224585046,-0.5584867357425125,1.3527088279253143,1.3891621367101106,-3.5344682197826356
116,5.800985282,2.169392824,-5.389832973,0.44147577880000005,5.943499709,1.485262871,1.5127668380000001,-3.621630192,5.941303697,1.62722075,0.9904888272,-0.140036732,0,0,0,1,,,,2.0857809563230947,-6.330679130180435,3.5515165512221603,1.400280384249996,0.6586265817999372,-0.24359315358332234,1.4465320571809142,1.4775261674362532,-3.596886972556824
117,5.850985282000001,0.32093733550000003,-3.752544165,10.09950638,5.993499709,-3.7487349510000003,0.4130787849,-2.381569386,5.991303697,1.454045534,0.1237729266,0.8687775135,0,0,0,1,,,,1.1443071832611769,-4.511575947839136,6.650022213897117,1.4431712620255557,0.27409575860788316,0.5934922350660015,-2.230735848236742,0.7165610894468099,-2.7265692611914236
118,5.900985282000001,6.277570248,-17.09223175,9.46750164,6.043499709,-2.502681255,-1.9545702930000002,0.6837902069,6.041303697000001,0.41621604560000003,-1.352492213,0.77493608,0,0,0,1,,,,3.882698555903904,-13.388345904643334,7.98325213452225,0.6239229057388197,-0.895332936073322,0.7300330446458447,-2.4232218390414966,-1.1930097681812044,-0.28433006471246625
119,5.950985282,-3.763311863,-4.298406601,7.003791809,6.093499709,-2.502681255,-1.9545702930000002,0.6837902069,6.091303697000001,0.06940752267999999,-1.558729529,0.3781908154,0,0,0,1,,,,-0.19614344059643685,-6.974586448384415,7.519771975733607,0.1815610492041554,-1.3722791729754604,0.46526339736463185,-2.4794640997142645,-1.7374434095410658,0.40896379371386515
120,6.000985282,-5.010570526,-12.36879921,7.796414375,6.143499708999999,3.1779322619999997,2.64352417,-0.6387581825,6.141303697000001,-0.2127275616,-0.9104678631,0.9145147204,0,0,0,1,,,,-2.7644485186438734,-10.78068261145078,7.650679027250446,-0.1329807060129684,-1.0402618418131593,0.8033357050086107,1.5249041142521627,1.394475923066436,-0.3413347309192628
121,6.050985282,-2.333899498,-4.372584343,3.1157541280000003,6.193499709,0.8673461676,-0.8983931541,-1.017697811,6.191303697,-0.5659499764,-0.6339830756,0.9773555993999999,0,0,0,1,,,,-2.534767766093142,-6.259200179824236,5.504754727881712,-0.4783797628134556,-0.7481694032560342,0.9342898152186401,1.059477269108173,-0.2446781815467982,-0.825694353705261
122,6.100985282000001,5.121238708,-5.018945694,6.68076086,6.243499709,0.8673461676,-0.8983931541,-1.017697811,6.241303697,-0.21158221359999999,-0.4727194309,0.6193227768,0,0,0,1,,,,1.5494067279735426,-5.384090493053642,6.061240268846325,-0.2655433604763374,-0.5501357849285312,0.6972696262007023,0.923484733551421,-0.7120138838904448,-0.9631925775612061
123,6.150985282000001,2.186142683,-7.113861561,6.05324316,6.293499709,0.8673461676,-0.8983931541,-1.017697811,6.291303697000001,-0.07605048268999999,-0.5185329914,0.382848531,0,0,0,1,,,,1.8890799970237664,-6.604597602331509,6.057456040872183,-0.11437637074401583,-0.52741508723932,0.46066027245148433,0.8837492307111563,-0.845254961145083,-1.0022250663859251
124,6.200985282,3.481257915,-5.042873859,7.621439457,6.343499709,0.5434832573,0.6901426315000001,0.22433805469999998,6.341303697000001,-0.01855448633,-0.5499916077,0.4213318825,0,0,0,1,,,,2.738443495634541,-5.502662805012433,6.797532247323914,-0.03793494462851911,-0.5436463832219721,0.43106472343084473,0.6429051814296207,0.2523887252138095,-0.12385416173905306
125,6.250985282,3.090928555,-7.769794463999999,8.782556534,6.393499708999999,0.34607291219999997,1.163904667,0.8325757979999999,6.391303697000001,0.02053973824,-0.40774053340000005,0.4798205197,0,0,0,1,,,,2.9264802340932463,-7.102325534468157,7.736844792819813,0.008712939385596002,-0.4459374345743032,0.46775461994151546,0.4328039921841049,0.9040243166597673,0.5610679874639202
126,6.300985282,2.1119651790000002,-5.732305527,7.039684296,6.443499709,0.34607291219999997,1.163904667,0.8325757979999999,6.441303697,-0.01954711229,-0.2657185495,0.3956763148,0,0,0,1,,,,2.4919688968476907,-6.135654747535117,7.406948778111698,-0.013831374631911173,-0.31636981254126345,0.4135139807085622,0.3714147669017788,1.0898107390244725,0.7555011618340606
127,6.350985282000001,1.944168448,-5.950052737999999,8.105088234,6.493499709,0.34607291219999997,1.163904667,0.8325757979999999,6.491303697,0.020387027409999998,-0.04650074616,0.2344889939,0,0,0,1,,,,2.1997391780488167,-6.004696046627571,7.737308035595743,0.013466183413350413,-0.12234856346495954,0.2787934193806567,0.3534775196434574,1.1427799064367148,0.8106961344884583
128,6.400985282000001,3.0119655130000003,-7.3675007820000005,8.255836487,6.543499709,1.09922719,1.4392733569999998,1.6581687930000002,6.541303697000001,0.07879929990000001,-0.2093679011,0.2444152534,0,0,0,1,,,,2.6330295746235732,-6.966275818129782,7.982675451371534,0.06558534833326277,-0.18491075632991527,0.2529230316746877,0.8813274499770715,1.3547407470942472,1.417591379182789
129,6.450985282,3.067000389,-5.866303921,6.898507595,6.593499709,-1.021370769,1.4371848109999998,1.066321373,6.591303697000001,0.07658497244,-0.49593162539999996,0.2496838123,0,0,0,1,,,,2.8645357178763415,-6.1901479560217885,7.469647738921903,0.07436024311564718,-0.4085179237187597,0.2504854420093303,-0.4654235604388518,1.41367936094822,1.1660386071932152
130,6.500985282,2.497209549,-5.768198012999999,8.717949867,6.643499708999999,-1.021370769,1.4371848109999998,1.066321373,6.641303697000001,-0.1614163816,-0.3750602305,0.36139249799999995,0,0,0,1,,,,2.6685818383817597,-5.892424798061372,8.060343710596909,-0.11372937282964027,-0.38446365355793005,0.33394563997075705,-0.8589291920562514,1.4304832224174298,1.0946287337697078
131,6.550985282,0.4145565331,-4.904089928,7.348657608,6.693499709,-1.623119116,1.1939387320000001,0.5081663132,6.691303697,-0.1997470558,-0.4027774036,0.36223241689999996,0,0,0,1,,,,1.4661491221380318,-5.195066772983295,7.723574186342726,-0.18234954655654811,-0.397630248398695,0.35523211248701014,-1.399831339318232,1.2613794231626803,0.6746491028116681
132,6.600985282000001,2.085644007,-5.7945189479999994,7.770093441,6.743499709,0.004747867584,0.6403226852,-1.155715942,6.741303697,-0.3507026732,0.1969982386,0.3351260722,0,0,0,1,,,,1.796624966855428,-5.618033519523624,7.7455870754610325,-0.3166524061868212,0.029875442876390046,0.34010183885401907,-0.4056545183758331,0.8173908364269347,-0.636118662009501
133,6.650985282000001,2.085644007,-5.7945189479999994,7.770093441,6.793499709,0.004747867584,0.6403226852,-1.155715942,6.791303697000001,-0.1650814712,1.031491995,0.33336988089999997,0,0,0,1,,,,1.9508051121922474,-5.742559662703212,7.757183475948864,-0.1957374555044668,0.749983520164943,0.3350358803612703,-0.11516713441352483,0.6908062051035295,-1.0082145822141606
134,6.700985282,2.126322031,-6.29491806,4.494917393,6.843499709,0.004747867584,0.6403226852,-1.155715942,6.841303697000001,0.18913358449999998,1.097539783,0.5383855104,0,0,0,1,,,,2.044436397058227,-6.132297567158676,6.213480721494584,0.11129148000111733,0.9998576574702368,0.4880613143883506,-0.030289959182988532,0.654715933042506,-1.1138438001037556
135,6.750985282,3.493221998,-8.018648147999999,6.144469261,6.893499708999999,-2.26934576,-3.474582672,1.317184448,6.891303697000001,0.09636115283,0.6490252018,0.6452837586,0,0,0,1,,,,2.817305806097212,-7.463285428442099,6.180824531387689,0.09938088662743388,0.747628114532713,0.6063749437792054,-1.615118616316117,-2.2972872254013987,0.6270731124364746
136,6.800985282,4.244867325,-10.61396313,5.268098354,6.943499709,-2.303568602,-2.47665453,-0.3075966835,6.941303697,-0.04176668078,0.1462979168,0.560452342,0,0,0,1,,,,3.5788530125771674,-9.686368356555576,5.74892293978553,-0.013218875019941831,0.3153042559963696,0.5718170935341589,-2.1024111907697915,-2.4255155031456956,-0.04226606801002353
137,6.850985282000001,-2.9587252139999998,-11.14546871,7.990232944,6.993499709,-2.303568602,-2.47665453,-0.3075966835,6.991303697,-0.1918824017,-0.14622156320000002,0.2144837379,0,0,0,1,,,,0.0913154387008106,-10.715893239919716,6.8095097648898815,-0.15574680440422756,-0.01650782282510127,0.30291524301748807,-2.244792648670938,-2.462074391703698,-0.23227560666483785
138,6.900985282000001,-1.857727647,-9.088837624,6.369394778999999,7.043499709,-2.303568602,-2.47665453,-0.3075966835,7.041303697000001,-0.32252734899999996,0.3962107897,-0.0128277922,0,0,0,1,,,,-0.9484214115974583,-9.567861003795038,6.601247563601984,-0.28879514461787814,0.2802145166017673,0.06531109794908097,-2.2863949233963115,-2.4724976178134774,-0.28621481392255677
139,6.950985282,0.14626128970000002,-6.098706722,5.181956768,7.093499709,0.736133039,0.511100769,-0.14678001400000001,7.091303697000001,-0.12064233419999999,0.37002071740000003,-0.04650074616,0,0,0,1,,,,-0.3644517947170902,-7.12006456258181,5.929639836152097,-0.15465208626419708,0.34478031320808633,-0.018829974583283837,-0.14701593636919563,-0.3395465518579108,-0.1863622509255206
140,7.000985282,0.2850449979,-5.236692429,4.231407642,7.143499708999999,-1.03199172,-0.8823566437,0.766187191,7.141303697000001,-0.049096848820000004,-0.3288649023,0.2574721277,0,0,0,1,,,,-0.017971127111354235,-5.7911782597715575,5.1260371721208635,-0.07044592673986566,-0.13953412820588457,0.18909393018845536,-0.7734116619045249,-0.7275972255198936,0.49578096753513534
141,7.050985282,0.1342971772,-7.4679994579999995,6.793223381000001,7.193499709,-1.03199172,-0.8823566437,0.766187191,7.191303697,0.05803048982999999,-0.7000309825,0.1659213901,0,0,0,1,,,,0.06325794796442208,-6.974324533832299,5.914948890922676,0.03204548809168359,-0.5425010233410681,0.17165604249851096,-0.9564375098250653,-0.8382335187215861,0.6894252692922171
142,7.100985282000001,-3.966701746,-9.644271851000001,7.274479866,7.243499709,-1.03199172,-0.8823566437,0.766187191,7.241303697,0.07788302748999999,-0.7835643291,0.07673768699,0,0,0,1,,,,-2.0865650242054126,-8.85820948382179,6.558278299836314,0.06861215449696667,-0.7158124899952254,0.10022772201121671,-1.0099156222090608,-0.8697767943920031,0.7443962996978365
143,7.150985282000001,-2.846262455,-9.644271851000001,7.717152119,7.293499709,-1.5077601669999998,1.5753302569999998,0.4131426811,7.291303697000001,-0.027106346560000005,-0.5223507881,0.1532463133,0,0,0,1,,,,-2.4918333426561063,-9.412846293772276,7.106656838123295,-0.0077467980711130174,-0.5767239996010692,0.14012547321574176,-1.3622955410863022,0.8782110432149745,0.5071777370128904
144,7.200985282,-2.846262455,-9.644271851000001,7.717152119,7.343499709,-1.5077601669999998,1.5753302569999998,0.4131426811,7.341303697000001,-0.1068982705,-0.2762556672,0.12583453949999998,0,0,0,1,,,,-2.6809071561826876,-9.576137577007893,7.395542913673411,-0.0868443863123585,-0.36070353478698636,0.12937120565887925,-1.4652570250388948,1.3765760971639192,0.4398370060757633
145,7.250985282,-2.846262455,-9.644271851000001,7.717152119,7.393499708999999,-1.5077601669999998,1.5753302569999998,0.4131426811,7.391303697000001,-0.2434989959,-0.1733279079,-0.013438640159999998,0,0,0,1,,,,-2.769117621531051,-9.624212358022005,7.547728236073963,-0.2118148128305648,-0.2259906028500224,0.021903399441704635,-1.4953412228317124,1.51866388613707,0.42072056766630694
146,7.300985282,1.316949725,-5.751448154,7.420442104,7.443499709,0.2904923856,1.5975866319999998,0.8531703948999999,7.441303697,-0.3800233603,-0.012369656940000001,-0.21967594329999998,0,0,0,1,,,,-0.5893634515539175,-6.891633272214691,7.487496499253669,-0.34600233511685374,-0.07240870733633384,-0.159890802756001,-0.2313082862315663,1.5750851374616217,0.7304081324093564
147,7.350985282000001,-0.1289133132,-5.629414558,6.869793892000001,7.493499709,-0.05418923497000001,2.7441482539999997,-0.08877754211000001,7.491303697,-0.2503710091,0.6112290621,-0.18714833260000002,0,0,0,1,,,,-0.3437316437310285,-6.001025871982626,7.195199920105718,-0.2697129260094584,0.4190898394105754,-0.18040274237711118,-0.10594144722082938,2.410839182783594,0.14376986678691073
148,7.400985282000001,0.38075789810000005,-5.93091011,7.042077065,7.543499709,-0.05418923497000001,2.7441482539999997,-0.08877754211000001,7.541303697000001,0.1821088344,1.087002754,0.1455343664,0,0,0,1,,,,0.04275466838922459,-5.951552975257289,7.122742257880504,0.09072560979479005,0.8992830669705429,0.06487268552012368,-0.06931065445568324,2.6491192216511092,-0.02276284109046886
149,7.450985282,0.6011967063,-4.463511467,6.702296257,7.593499709,-0.05418923497000001,2.7441482539999997,-0.08877754211000001,7.591303697000001,0.5113555193,1.007134438,0.43247985840000003,0,0,0,1,,,,0.3406612513054587,-4.901607538202079,6.923787410828648,0.4262810035035389,0.9768223637755112,0.3415058279463419,-0.0586075451710329,2.7170547311954643,-0.07003753218745469
150,7.500985282,1.934597135,-8.739186287,6.9056863779999995,7.643499708999999,-1.437060833,-3.8213801380000003,0.03678417206,7.641303697000001,0.5830537081,1.04088378,0.4852418005,0,0,0,1,,,,1.1909625541185884,-7.6093601607936545,6.91522201095512,0.5513456397018929,1.0228790536665033,0.4496705665959686,-1.0342921493245067,-1.9572210313251732,0.0064600205143691
151,7.550985282,1.934597135,-8.739186287,6.9056863779999995,7.693499709,-1.437060833,-3.8213801380000003,0.03678417206,7.691303697,0.40170842409999996,1.011257648,0.4228590131,0,0,0,1,,,,1.5876619817573139,-8.406552832637884,6.910709754215988,0.43197330391775285,1.014523892466024,0.42949423476813137,-1.3193763136929535,-3.2898937435964184,0.028175863724682598
152,7.600985282000001,-2.542374134,-10.59960651,5.835496426000001,7.743499709,-1.437060833,-3.8213801380000003,0.03678417206,7.741303697,-0.017790926619999998,0.8559496998999999,0.3513898849,0,0,0,1,,,,-0.6155477751565233,-9.953946969918954,6.401919320013011,0.07317615220367879,0.9005176325796871,0.3707188535411452,-1.4026747283934395,-3.6698491951495527,0.03434047722771923
153,7.650985282000001,0.5916253924,-6.967600346,5.888138294,7.793499709,0.2164165974,1.418686867,-1.763540268,7.791303697000001,-0.23387815059999997,0.6076403260000001,0.3061871827,0,0,0,1,,,,0.02843102467483427,-7.84681420902796,6.158798383685015,-0.17177487275744943,0.6899547043925442,0.3221572360929802,-0.25666383833542805,-0.03209470874920983,-1.2531645108899914
154,7.700985282,-0.7995018362999999,-5.777769566,5.016851902,7.843499709,-0.8798661231999999,-0.7001738548,0.5768032074,7.841303697000001,-0.09620844573,0.33688226340000005,0.3522298038,0,0,0,1,,,,-0.4132381777763137,-6.386919461223331,5.618429853272221,-0.1114921358421562,0.43611473328992234,0.3447875586752143,-0.6977733630424894,-0.5096992459579064,0.05731871872155048
155,7.750985282,-0.7995018362999999,-5.777769566,5.016851902,7.893499708999999,-0.8798661231999999,-0.7001738548,0.5768032074,7.891303697000001,0.1304922402,0.4747046828,0.3504736125,0,0,0,1,,,,-0.6192944536380109,-5.957110111246655,5.333763453691058,0.08154968248107408,0.4638588178987801,0.3490664494765524,-0.8266606486578874,-0.6458680486414122,0.42933386611999813
156,7.800985282,-3.9188451769999997,-8.528617859,7.128218651,7.943499709,-0.8798661231999999,-0.7001738548,0.5768032074,7.941303697,0.08238802105000001,0.6997255087,0.2969481349,0,0,0,1,,,,-2.3794733340665206,-7.771537202808437,6.18289879700334,0.0822184628574474,0.633434199681356,0.30984617793881364,-0.8643200766748569,-0.6846908431915347,0.5349401545231793
157,7.850985282000001,-2.4514467719999997,-8.301300049,7.238587379,7.993499709,0.6350164413,-0.6017003059,-0.9567565918000001,7.991303697,0.04298837483,0.47943875189999996,0.1369825006,0,0,0,1,,,,-2.417868296099119,-8.145331938913404,6.682450130648634,0.050922857537402826,0.5227198094611081,0.17976214853282924,0.19692702543431895,-0.625361559572998,-0.5332992194194082
158,7.900985282000001,-2.2788643840000002,-8.770293236,6.867401123,8.043499708999999,0.4975571632,-0.4057569504,0.1419553757,8.041303697,-0.07085828482999999,0.2660239935,0.08238802105000001,0,0,0,1,,,,-2.3437152457470303,-8.586297636664394,6.769968852028519,-0.04622743598862467,0.338169414282662,0.1064858012157929,0.40971638840715174,-0.4683679483236458,-0.04973340908219176
159,7.950985282,-2.087438583,-6.89342308,5.153242588,8.093499709,0.4975571632,-0.4057569504,0.1419553757,8.091303697,0.023288551719999998,0.1463742703,-0.124612838,0,0,0,1,,,,-2.2070018545864603,-7.391824293062694,6.00493475510081,0.00922859340233971,0.20027908880924378,-0.06742142231412021,0.4718910680847476,-0.423607837379719,0.08753947022262326
160,8.000985282,-3.679563046,-8.066504477999999,6.321538447999999,8.143499709,0.4975571632,-0.4057569504,0.1419553757,8.141303697,0.1808871478,0.1773747802,-0.2104368806,0,0,0,1,,,,-2.992554593713578,-7.867871082203587,6.154751471716378,0.14616834138071766,0.18381213085273784,-0.17504395679353385,0.49005781636109447,-0.4108463783893239,0.1265079890670252
161,8.050985282000001,-2.8893332480000002,-5.5217375760000005,5.019244671,8.193499709,-0.6191422939,0.3211655617,0.20176029210000002,8.191303697,0.18569757039999998,0.03054236248,-0.1898207814,0,0,0,1,,,,-2.9374901174438017,-6.212465533130586,5.617430195199856,0.1777025849555925,0.07361946481697561,-0.18616386879135235,-0.2950463871035882,0.11246321137742787,0.18039794574087703
162,8.100985282,-2.8893332480000002,-5.5217375760000005,5.019244671,8.243499709,-0.6191422939,0.3211655617,0.20176029210000002,8.241303697000001,0.2577011883,0.4576009512,-0.2148655206,0,0,0,1,,,,-2.911800345892026,-5.7250956154945305,5.334369090424811,0.24152106824409672,0.34968136627309754,-0.20776254454491433,-0.5244450829875682,0.26166288332316956,0.19569602794621865
163,8.150985282,-4.395316124,-6.828816891000001,6.055635929,8.293499708999999,-0.6191422939,0.3211655617,0.20176029210000002,8.291303697,0.2845784724,0.31519719960000003,-0.02565558441,0,0,0,1,,,,-3.7031969209145936,-6.50386899664954,5.6756722144400324,0.27586989572688314,0.324889117260297,-0.07072272498587251,-0.5914728245803923,0.3042008809903608,0.20003879111780135
164,8.200985282000001,-2.216650963,-7.717152119,6.173183441,8.343499709,-0.00408744812,-1.665195465,-1.244102955,8.341303697,0.22425730530000001,0.5229616165,-0.01420219894,0,0,0,1,,,,-2.9101838655547576,-7.359947990917479,5.911094289608461,0.2346962113982261,0.4672925213580891,-0.028189684599718087,-0.17571490692962694,-1.1037051073495894,-0.8341453206450168
165,8.250985282,-3.2150564189999997,-7.295716286,6.4794645310000005,8.393499709,0.7327952385,0.8992853165000001,1.534791946,8.391303697,0.38093963270000003,0.04863871261,0.1542389393,0,0,0,1,,,,-3.072821229091005,-7.314626818472768,6.180046816692107,0.35136116481344537,0.16630309714450375,0.10909219458304346,0.46733870210387846,0.3282170234571371,0.8623067694411063
166,8.300985282000001,-3.2150564189999997,-7.295716286,6.4794645310000005,8.443499709,0.7327952385,0.8992853165000001,1.534791946,8.441303697,0.30542361739999996,-0.35604760049999995,0.17042638359999998,0,0,0,1,,,,-3.1486980374812186,-7.3012837581611025,6.321731136252074,0.31471471749094837,-0.20923877645232414,0.15524763087961183,0.6552317978799334,0.7364692633280616,1.3438893338626814
167,8.350985282,-3.4328031539999997,-5.662913799,7.995018482000001,8.493499709,0.7327952385,0.8992853165000001,1.534791946,8.491303697000001,0.2640387416,-0.1401894391,0.3113030195,0,0,0,1,,,,-3.3002568004390573,-6.145268248539452,7.113529910188355,0.27428821271456333,-0.1595960409259448,0.2726830231629588,0.7101320658270653,0.8528651816352444,1.4805992166293007
168,8.400985282,-5.269294738999999,-7.290930747999999,6.168397903,8.543499708999999,0.3835744858,0.05322265625,1.348669052,8.541303697,0.23929941649999997,-0.19654010239999997,0.3711660802,0,0,0,1,,,,-4.350660108256328,-6.953634888184853,6.666293895430973,0.24637607663032887,-0.18615682109254256,0.3467938663781824,0.47899097019388454,0.281207017313438,1.3861209007900157
169,8.450985282000001,-3.7609190939999997,-5.298905849,4.703093052,8.593499709,-2.123515368,-0.3151741028,0.1893901825,8.591303697,0.265794903,-0.2970244884,0.5871005654,0,0,0,1,,,,-4.036056768228464,-5.786076594877142,5.73730819273806,0.2618673476837419,-0.2658646719818495,0.5276303739611015,-1.3630920284607548,-0.14514116393965415,0.529113686392756
170,8.500985282,-3.600599766,-6.342774391,8.243872643,8.643499709,-2.123515368,-0.3151741028,0.1893901825,8.641303697,0.2237228155,-0.2620534599,0.5755708218,0,0,0,1,,,,-3.8037578028898773,-6.178876330495795,6.9234132947241,0.2314377390869573,-0.2631246168066408,0.5637067013642562,-1.9013281450636317,-0.2666963771853688,0.28582963820235274
171,8.550985282000001,-6.368198395,-6.440880299,6.781259537,8.693499709,-2.123515368,-0.3151741028,0.1893901825,8.691303697,0.004046862945,0.05001311749,0.44874367119999997,0,0,0,1,,,,-5.171784709827678,-6.363743398575814,6.856146204255894,0.05003781186752984,-0.037995537892798054,0.4771942863479002,-2.0585947380604326,-0.30135272267225127,0.2167670596037148
172,8.600985282,-5.384150028,-6.462415695,6.932007313,8.743499709,0.8618490696,-0.49217748640000003,1.005396366,8.741303697000001,-0.022754060099999997,-0.1769929975,0.4930301011,0,0,0,1,,,,-5.285073148090732,-6.433365466924036,6.892043644620675,-0.008031537712021898,-0.13792718659335343,0.48911111363020554,0.008527946205356685,-0.4377718483289833,0.7815231863053035
173,8.650985282,-5.384150028,-6.462415695,6.932007313,8.793499708999999,0.8618490696,-0.49217748640000003,1.005396366,8.791303697,0.2347944081,-0.3289412558,0.4711159468,0,0,0,1,,,,-5.33792671713544,-6.453862982916734,6.910954433328181,0.18568163865435128,-0.2752559616071348,0.4755693224890689,0.6125181501937317,-0.47666601192377106,0.9418440732664788
174,8.700985282000001,-3.947559118,-6.177670002,8.708378792000001,8.843499709,0.8618490696,-0.49217748640000003,1.005396366,8.841303697,0.5372401475999999,-0.09743013978000001,0.19821994010000002,0,0,0,1,,,,-4.596220985366964,-6.258984306169946,7.761494782376906,0.4661356701282841,-0.14740882250500364,0.2668573144810846,0.7889973544957694,-0.4877550432781035,0.9873553755450977
175,8.750985282,-3.698705673,-4.197608948,5.380560875,8.893499709,1.469326735,0.8927836418,-0.10387325289999999,8.891303697,0.6308525205,-0.03168770298,0.07826480269,0,0,0,1,,,,-4.117432316877666,-4.804500920062932,6.634837993099991,0.5975377086357099,-0.06421160225601995,0.12493696302239352,1.270542074028191,0.4991812256696466,0.20590070674552863
176,8.800985282000001,-3.5380873680000002,-4.482654095,8.53370285,8.943499709,-0.4142112732,-0.41157722469999997,1.045492649,8.941303697,0.6240568161,-0.017027366909999998,0.0836860761,0,0,0,1,,,,-3.808374863585398,-4.577409401550201,7.533379937774524,0.618693193172993,-0.030288691408822614,0.09389468931870852,0.07805487317708137,-0.15191284120233572,0.8071523841105481
177,8.850985282,-3.411267757,-4.046861172,7.346264839,8.993499709,-0.4142112732,-0.41157722469999997,1.045492649,8.991303697000001,0.8654941916,0.08002099395,0.01672194339,0,0,0,1,,,,-3.5965340403293498,-4.203060507418684,7.444837162371239,0.815577447811394,0.0490180006296189,0.03582036218347876,-0.2703765930236825,-0.3375448706601119,0.9778334934329576
178,8.900985282,-5.156532764,-5.46909523,8.638986588,9.043499708999999,-0.4142112732,-0.41157722469999997,1.045492649,9.041303697,0.9370396732999999,-0.1191152185,0.05169294775,0,0,0,1,,,,-4.4287312205322245,-5.0963604408152,8.009908100735796,0.9124733270239602,-0.0718606818669679,0.047764860404288845,-0.3721843831216932,-0.3904700194426274,1.0262858174367744
179,8.950985282000001,-3.2222347260000004,-4.250251293,7.717152119,9.093499709,-0.08616781235,-0.4054253101,-0.1172161102,9.091303697,1.051191807,-0.46409121159999994,0.06047387794,0,0,0,1,,,,-3.7851133987997545,-4.499355294207284,7.871376109675071,1.023135296233395,-0.35385319889406763,0.05732869842623456,-0.16973866580518457,-0.40116143936169396,0.20739700084196644
180,9.000985282,-3.4998021130000003,-5.895017623999999,10.34836006,9.143499709,-0.5022525787,0.2671675682,0.2148590088,9.141303697,1.1149489879999999,-0.5833591223,0.031229566780000002,0,0,0,1,,,,-3.6329111923467785,-5.4841190165772264,9.043483734208197,1.0963792068056935,-0.5188555332566362,0.03768848100443556,-0.40509572025358326,0.0766217218646919,0.2127407214858742
181,9.050985282000001,-4.871787071,-3.900899172,7.9782690999999994,9.193499709,-0.5022525787,0.2671675682,0.2148590088,9.191303697,0.8895463347,-0.09078717232000001,0.1108687744,0,0,0,1,,,,-4.293802125842588,-4.36701681035393,8.539424677505508,0.9313793238937791,-0.2110975556811368,0.09275839260213553,-0.4738644277949463,0.21284145165781315,0.2142576771996751
182,9.100985282,-4.500600338,-2.907279491,8.64138031,9.243499709,0.7102644444,0.1288092136,-0.7123041153,9.241303697000001,0.4150707126,-0.02451024577,0.2886253297,0,0,0,1,,,,-4.404120734668532,-3.3370424925787323,8.587670034196053,0.5194967272540236,-0.07695138095928383,0.24015292218008905,0.3642751886190907,0.15276746433836488,-0.4492751699261475
183,9.150985282,-3.4567313189999997,-2.519343138,8.957531929,9.293499708999999,-0.5626037121,-1.2969117159999999,-2.536372185,9.291303697,0.17111359539999998,0.26762744780000003,0.27365958690000003,0,0,0,1,,,,-3.898726218804592,-2.7600829778615013,8.762688506398103,0.2415758368423383,0.17078214280556667,0.26536748446105557,-0.29178003017463083,-0.883596802247076,-1.9438947794256292
184,9.200985282000001,-3.4567313189999997,-2.519343138,8.957531929,9.343499709,-0.5626037121,-1.2969117159999999,-2.536372185,9.341303697,0.6326087117,0.424844265,0.7340093255,0,0,0,1,,,,-3.6629395458785634,-2.5902196405514757,8.85488832103922,0.5535203451120011,0.35343905472654,0.6180316181479033,-0.4834720513802324,-1.1790723899575097,-2.3681818834257147
185,9.250985282,-4.797609329,-3.8075790410000003,6.005386829,9.393499709,-0.5626037121,-1.2969117159999999,-2.536372185,9.391303697,0.05780142173,0.2263952643,0.42614230509999995,0,0,0,1,,,,-4.26824067822573,-3.449174810922123,7.5065055744171385,0.15806306842547285,0.2621014470386185,0.47363034534102527,-0.5394823229873279,-1.2633147994536194,-2.4886269421393923
186,9.300985282000001,-3.069094181,-1.904088616,7.9854474070000006,9.443499709,2.223551035,1.405128837,-0.5833921432,9.441303697,-0.340547353,0.1072036922,0.04833329096,0,0,0,1,,,,-3.628543787343305,-2.3589792815622883,7.733140621027221,-0.2397008863000184,0.15073834686412452,0.15358419472966345,1.4162234901346746,0.6443346090941207,-1.1242431732529776
187,9.350985282,-7.10548687,-6.1728839870000005,7.726723194,9.493499709,2.4506011009999997,2.623713017,-2.7982420919999997,9.491303697000001,0.011300674640000001,0.12812520560000001,0.017256435009999998,0,0,0,1,,,,-5.483354425483757,-5.0500277644245966,7.730103897676979,-0.03946565409138578,0.134480722507769,0.05099431250086871,2.1483674943265174,2.0593766947266356,-2.323033451167028
188,9.400985282,-3.99302268,-0.1995015889,6.206682682,9.543499708999999,2.4506011009999997,2.623713017,-2.7982420919999997,9.541303697,-0.6500178576,0.0284807533,-0.3175642192,0,0,0,1,,,,-4.688321803495927,-1.6275507723935543,7.009221705119262,-0.5265306021246469,0.0582724830712303,-0.2263547500981249,2.362291810385079,2.4628163012125226,-2.663341615255642
189,9.450985282000001,-1.673181176,0.9975079298,5.256134033,9.593499709,2.4506011009999997,2.623713017,-2.7982420919999997,9.591303697,-0.7716528176999999,0.5892385244,-0.1927223057,0,0,0,1,,,,-3.0798643803005366,0.224661273467331,6.179661455004062,-0.7220756161744104,0.4400083223971804,-0.20104553558852664,2.424798110701829,2.5778400999631677,-2.759947042142217
190,9.500985282,-9.942477226,-5.083551883999999,9.220742226,9.643499709,2.4889097209999997,-0.2988092899,-0.2928218842,9.641303697,-0.8310576677,0.7456917762999999,-0.3939964771,0,0,0,1,,,,-6.740794976576564,-3.520754531320164,7.618699425054734,-0.8090154994108371,0.6597781772342298,-0.34624570911608477,2.470177023454373,0.5213460324011572,-0.9931802775785845
191,9.550985282000001,-0.30388846989999996,-1.013659477,9.97956562,9.693499709,0.7976894379,0.1847805977,-0.6416463852000001,9.691303697,-0.8135721684,0.6955259442,-0.7105680704,0,0,0,1,,,,-3.30696175525212,-1.7517763155518586,8.735860182552422,-0.8126505591282326,0.6854788864626042,-0.6204069526854609,1.2863716654265043,0.28073804511295514,-0.7414385304385499
192,9.600985282,-1.529611826,-2.94317174,8.619844437000001,9.743499709,0.7976894379,0.1847805977,-0.6416463852000001,9.741303697000001,-0.8546516895,0.2767901719,-0.9155836701000001,0,0,0,1,,,,-2.358816364778815,-2.592411595029458,8.680961586929621,-0.8461567495575756,0.39165382546631783,-0.8425344543905074,0.9404769369132117,0.21213881919980956,-0.6699750114460914
193,9.650985282,-4.740181446,-2.70149684,7.178467751,9.793499708999999,1.378453016,1.226859093,-2.228023529,9.791303697,-0.4914266169,0.4719558656,-1.001636744,0,0,0,1,,,,-3.629179779226493,-2.6693809228803804,7.969982220254903,-0.5631725712251621,0.4493866451008903,-0.9622627117896867,1.2504812884620726,0.9375543773291971,-1.7857304604850575
194,9.700985282000001,-4.579563618,-2.088634968,7.681259632000001,9.843499709,3.250672817,1.7682008740000001,2.023777485,9.841303697,-0.3239017725,0.5044834614,-0.8112051487,0,0,0,1,,,,-4.13617170061207,-2.259613075525997,7.833358829267783,-0.3722954955436346,0.4889982732803443,-0.8485883021245709,2.666239150727458,1.531377037581362,0.9423484152247703
195,9.750985282,-3.4758739469999997,-3.410071373,4.425525665,9.893499709,3.250672817,1.7682008740000001,2.023777485,9.891303697,-1.05493319,0.20249587300000002,-0.8409839869,0,0,0,1,,,,-3.7839291506408292,-3.071363576584709,6.220773801631381,-0.9168662815632846,0.2830185575750236,-0.8428658739883794,3.079907815164536,1.7006805394397175,1.7167853878845578
196,9.800985282000001,-1.4315061569999998,-1.78684032,12.17737389,9.943499709,3.250672817,1.7682008740000001,2.023777485,9.941303697,-1.337221026,0.347266674,-0.7627191543999999,0,0,0,1,,,,-2.5290051870713732,-2.1650183402958447,9.039434120264524,-1.2522021640629861,0.32920947517392046,-0.7825535608935831,3.2007771873206896,1.7489502968271002,1.936629700291546
197,9.850985282,-9.346364975,-8.586046219,6.484250069,9.993499709,4.338402748,3.12176156,-1.777384281,9.991303697000001,-0.1550024897,0.2726669312,-0.35818555950000003,0,0,0,1,,,,-6.165795079432078,-6.695623760113896,7.830322245888715,-0.37691664489873034,0.28855844701365785,-0.4632065447612109,4.006001241534383,2.7303622928176865,-0.7230636858780524
198,9.900985282,-3.873381615,-4.58554554,3.754936934,10.04349971,-3.732729912,0.5618672371,5.370563507000001,10.0413037,-0.257930249,0.12331479039999999,-0.3018349111,0,0,0,1,,,,-4.942883809222221,-5.206776179676287,5.901851860062946,-0.28199584628651386,0.1697572035708828,-0.34177055164278336,-1.4715589404371379,1.1801221998456768,3.640727087081421
199,9.950985282000001,1.6570296290000002,-2.3781666759999998,8.586344719,10.09349971,-3.732729912,0.5618672371,5.370563507000001,10.0913037,-0.3258106709,0.549151659,-0.43851196770000006,0,0,0,1,,,,-1.422092883052676,-3.210940965719053,7.1721526003577685,-0.3169489021095095,0.44252127810726266,-0.4145707685313312,-3.072040961581746,0.7381365801828457,4.879503922172792
200,10.00098528,-12.09960651,-9.426525116,9.170493126,10.14349971,-3.732729912,0.5618672371,5.370563507000001,10.1413037,-0.5370110869,-0.02954973653,-0.221355781,0,0,0,1,,,,-7.118121089952856,-7.596587589743955,8.117766383828796,-0.4925024027135091,0.10312777465394435,-0.26917189408218123,-3.539683965932118,0.612123010494925,5.2311633226802705
201,10.05098528,-0.9598209858,-4.147359848,13.434502599999998,10.19349971,-2.436589718,0.3317642212,-1.424479008,10.191303699999999,-0.27595025300000003,0.002977880416,-0.08452598751,0,0,0,1,,,,-3.8329132866818982,-5.162851092045511,10.633643425967584,-0.3197490149701342,0.03112542241909229,-0.13022145692833545,-2.758901559817957,0.4116967127970625,0.4649001973143605
202,10.10098528,-3.9978084560000005,-7.176074982,4.8897328380000005,10.24349971,2.2399048809999997,-0.5401306152,-0.4237289429,10.2413037,0.278088212,0.5971031785,-0.15996561939999998,0,0,0,1,,,,-3.920878291502372,-6.583359340601894,7.915627675475433,0.15717262456006376,0.43803278922935485,-0.15260464679199592,0.7793093655203069,-0.26875717230821045,-0.17146817897971578
203,10.15098528,-3.9978084560000005,-7.176074982,4.8897328380000005,10.29349971,2.2399048809999997,-0.5401306152,-0.4237289429,10.2913037,0.3319954872,0.6283327341,-0.3941491842,0,0,0,1,,,,-3.9619174701430153,-7.001572864464941,6.483775681602968,0.29663668353908634,0.5748481475055058,-0.3343726572019786,1.8131351538082434,-0.4627599164145487,-0.3521180873169072
204,10.20098528,-1.706680775,-7.963613033,6.014957905,10.34349971,1.07494688,0.3138017654,0.6629242897,10.3413037,0.3212293088,0.180352658,-0.3923166394,0,0,0,1,,,,-2.7588385254962438,-7.680377642361209,6.261931333256696,0.31625532662655104,0.29122724701137986,-0.37797688222589715,1.2906372644998139,0.09239793404974161,0.3747778022318723
205,10.25098528,-2.815155745,-8.507082939,7.284051418,10.39349971,-1.1041760440000001,-0.5359830856000001,1.007294178,10.3913037,0.4910448492,0.2331145853,-0.08880192041000001,0,0,0,1,,,,-2.7888815185906464,-8.263691648941228,6.745598069942607,0.4556927886907841,0.2494473892180754,-0.16036584441436058,-0.4044382930451862,-0.35682672422246975,0.8277377613760462
206,10.30098528,-3.708276987,-6.120242118999999,6.280860424,10.44349971,-1.1041760440000001,-0.5359830856000001,1.007294178,10.441303699999999,0.5211290717,0.2948864996,-0.058564979579999996,0,0,0,1,,,,-3.2793423789374296,-6.751297645699958,6.525684437585543,0.5078942541982902,0.2821156497188633,-0.0837582719355691,-0.8997204741997867,-0.4849042006433122,0.9563223644896354
207,10.35098528,-6.4399828910000005,-7.8798642160000005,6.900900364,10.49349971,-1.1041760440000001,-0.5359830856000001,1.007294178,10.4913037,0.6449783444,-0.004734066315,-0.1405712217,0,0,0,1,,,,-4.965418195025401,-7.5476015889379005,6.703236434947296,0.6172523973866851,0.07588623280748466,-0.12651136813698383,-1.0444364061105367,-0.5214200945602293,0.9928244875230238
208,10.40098528,-5.25254488,-7.154539585,7.355835915,10.54349971,0.30847120289999996,0.136033535,0.4700741768,10.5413037,0.8362498879000001,0.056961506610000004,0.1396549493,0,0,0,1,,,,-5.118588844355099,-7.270261437403451,7.012046197429869,0.7919565434905681,0.06228037917835072,0.07378511744611743,-0.08683331822792328,-0.0514116556992083,0.6184706075905748
209,10.45098528,-2.573480844,-5.899803162,5.928816319,10.59349971,-1.067510605,-0.45992136,1.810676098,10.5913037,0.9042829870999999,0.09239064902,0.4311054647,0,0,0,1,,,,-3.7608751051931364,-6.303281413440246,6.499462335434414,0.8815643986714727,0.08392803314323453,0.34267717887911775,-0.780967634328766,-0.34345203657414897,1.4722371990165386
210,10.50098528,-4.742574692,-6.304489612999999,7.207480907000001,10.64349971,-1.067510605,-0.45992136,1.810676098,10.6413037,0.8899281025,-0.14080029730000002,0.2951155901,0,0,0,1,,,,-4.284572730796072,-6.304133905233046,6.834496385977558,0.8882365013094624,-0.07763947050775365,0.306885951899046,-0.9837859432604348,-0.4267150416355917,1.7146013111062053
211,10.55098528,-5.946762562000001,-6.326025008999999,8.521739006,10.69349971,0.9201378822,1.273516655,0.38888883590000006,10.691303699999999,0.9620080590000001,-0.2492256761,0.2605263591,0,0,0,1,,,,-5.171284795970979,-6.319580023199105,7.6328987889653295,0.947087390261011,-0.20100066329639055,0.27199925547697423,0.36383256543123466,0.7887672516979841,0.7652272053917958
212,10.60098528,-5.084748268,-4.568795681,7.846663475,10.74349971,-0.32886552809999997,-1.1296710970000001,1.030832767,10.7413037,0.9551360606999999,-0.2224247605,0.45431765909999994,0,0,0,1,,,,-5.125121005358115,-5.084246182620953,7.734052136446961,0.9535081766148334,-0.21640342934116646,0.40919819132044943,-0.12646686739684754,-0.5827092641858688,0.9554336398214092
213,10.65098528,-3.607778311,-3.307179928,7.339086056,10.79349971,-0.2330260277,-1.070309162,0.03623533249,10.7913037,1.065470338,-0.3135937154,0.3410054743,0,0,0,1,,,,-4.315679117796993,-3.8303681186099077,7.547154375465498,1.0428254273646995,-0.28627798353818457,0.35788154957969537,-0.20189062897001703,-0.9312906036457834,0.2971739588398663
214,10.70098528,-5.3793644910000005,-6.127420425,8.701200485,10.84349971,-0.2330260277,-1.070309162,0.03623533249,10.8413037,1.4009782080000002,-0.464014858,0.169204697,0,0,0,1,,,,-4.883112894578825,-5.451142522275089,8.093248444117467,1.3285400055758645,-0.41406117430528666,0.2158977296776882,-0.22392861127503425,-1.0306738798380035,0.11030962764244015
215,10.75098528,-4.764110088,-4.690829754,7.288836956,10.89349971,1.812675953,-0.8801279068000001,-0.8848690987000001,10.8913037,1.3699777130000002,-0.043141089380000004,0.2731250823,0,0,0,1,,,,-4.819629637669121,-4.91467434079278,7.712601311661825,1.3615967278662018,-0.1473897134003868,0.25896267384642463,1.217602803393154,-0.9230497454763719,-0.6023614311182955
216,10.80098528,-3.6508491039999997,-3.71874547,8.363812447,10.94349971,-0.5366296768,-1.589200497,0.06206703186,10.941303699999999,1.188021541,0.06062658876,0.2499128878,0,0,0,1,,,,-4.196131778711939,-4.070840312039247,8.020754110079414,1.2231279956821293,0.002162746668657317,0.25215249457413297,-0.024062502344337933,-1.3992756883219293,-0.12654847042577438
217,10.85098528,-2.946761131,-3.323929787,7.152146816,10.99349971,-0.5366296768,-1.589200497,0.06206703186,10.9913037,0.8178481459999999,0.1863084137,0.030389651660000003,0,0,0,1,,,,-3.529642304233819,-3.5438286032764355,7.609729552973039,0.8998180349215829,0.1345535123726631,0.08527067986569029,-0.38686326255371456,-1.5350514429307414,0.00852355850708722
218,10.90098528,-5.158925533000001,-4.439583302,8.887840271,11.04349971,-0.5366296768,-1.589200497,0.06206703186,11.0413037,0.6228351593,0.42499697210000004,0.04253023863,0,0,0,1,,,,-4.398800008035002,-4.175863094878618,8.214530935073478,0.6788563396639061,0.3433666364370138,0.05310748110223192,-0.4928696001716629,-1.5737621763893992,0.04686730806255527
219,10.95098528,-3.969094515,-1.944766641,8.207980156,11.09349971,1.703689814,-0.6470059156,-0.2806968689,11.0913037,0.08261708915,0.42873841520000006,-0.1923405379,0,0,0,1,,,,-4.16956924378937,-2.6016264027546763,8.211431109514567,0.20320947782313248,0.404744323704464,-0.1315979920494809,1.0618796402249102,-0.9112314004811441,-0.18770915808847186
220,11.00098528,-1.9223338369999998,-1.319940805,8.459525108,11.14349971,1.810632706,0.6187847853,-1.905959129,11.1413037,-0.15110833939999999,0.4387410581,-0.2568612695,0,0,0,1,,,,-2.970758667694522,-1.6972833873485473,8.328829071414898,-0.07944577797494656,0.42918613529322885,-0.22586158814103657,1.5918554070846982,0.1825651603110261,-1.4181886627785179
221,11.05098528,-3.2294132710000003,-2.0476579669999997,7.597510815,11.19349971,1.810632706,0.6187847853,-1.905959129,11.191303699999999,-0.6542937756,0.3426089585,-0.4969242513,0,0,0,1,,,,-3.1087405955960308,-1.944503769786362,7.982769621165779,-0.5380278754324009,0.36694183211479214,-0.429842690364737,1.7467084179732288,0.49441514593485253,-1.7674926477243813
222,11.10098528,-3.1576285360000003,-0.46779683229999997,6.019743442999999,11.24349971,1.2940201759999999,1.4614535569999998,-0.7359962462999999,11.2413037,-1.0317974090000002,0.3663556576,-0.7511894106999999,0,0,0,1,,,,-3.1348203645779926,-0.9025558790636721,7.053866569815589,-0.9319300362510788,0.36652040435567673,-0.6716637417738528,1.4262906336738075,1.1857433149065035,-1.0288136415795766
223,11.15098528,-4.280460835,-1.648056626,8.164909363,11.29349971,1.949385643,2.2413845059999997,-0.9868497849,11.2913037,-1.051573515,0.7316423059,-0.8330429196,0,0,0,1,,,,-3.7459739212225536,-1.4285728641739026,7.579611489477026,-1.0273750193320976,0.629023285265145,-0.7931054120888122,1.7965431127596685,1.9404129159525696,-0.9987623297761159
224,11.20098528,-4.230211258,-1.0399805309999999,7.607082367,11.34349971,1.5872871880000001,1.877724051,0.30664682390000003,11.3413037,-1.135030508,0.714920342,-0.9786536694,0,0,0,1,,,,-4.004295251832467,-1.1543864620505309,7.592610695590287,-1.1132566437313156,0.6907786189056115,-0.932734889604152,1.648429436122695,1.8955971388362878,-0.06392791354242933
225,11.25098528,-3.317947626,-0.6472585201,7.152146816,11.39349971,1.5872871880000001,1.877724051,0.30664682390000003,11.3913037,-1.280564904,0.48829603200000005,-1.212760925,0,0,0,1,,,,-3.638156132655007,-0.7965626609907602,7.384183397992657,-1.2467259666412884,0.5452046004978623,-1.1434611428685195,1.6051522709856831,1.882819808983183,0.2014494337521291
226,11.30098528,-4.943571568,-3.276073217,7.451549053,11.44349971,1.5872871880000001,1.877724051,0.30664682390000003,11.441303699999999,-0.9801044464,0.1671430767,-1.077763677,0,0,0,1,,,,-4.334543268819951,-2.546077563863024,7.416060793899146,-1.0340299905077464,0.27339883162316764,-1.0940222366877659,1.5925071657879593,1.8791768919419045,0.27678377664124676
227,11.35098528,-4.993820667,-4.695615292,7.973483086,11.49349971,-0.4708623886,1.619963408,1.2371668820000001,11.4913037,-0.9004651904000001,-0.048256933689999996,-0.9261971712,0,0,0,1,,,,-4.686241500030748,-4.062767331222728,7.679832756452816,-0.9274793433236116,0.042145749543400474,-0.9677298826046086,0.13203119267042007,1.6938672067138607,0.96453686672186
228,11.40098528,-4.993820667,-4.695615292,7.973483086,11.54349971,-0.4708623886,1.619963408,1.2371668820000001,11.5413037,-0.8131904006,0.07689040154,-0.7449282408,0,0,0,1,,,,-4.850322734013683,-4.509297770492719,7.818787952147225,-0.8363059143641158,0.06712527339153525,-0.8000663470044642,-0.29470360523863387,1.641033960801597,1.1597736781505104
229,11.45098528,-5.77896595,-4.228715897,7.607082367,11.59349971,-0.4708623886,1.619963408,1.2371668820000001,11.5913037,-0.5762580037,0.1177408099,-0.37483114,0,0,0,1,,,,-5.345716899295227,-4.31132233998988,7.718608970213854,-0.6288540021930451,0.10351510402732318,-0.480066738043056,-0.4193907559335981,1.6259707876588079,1.2151967843300238
230,11.50098528,-4.807180882,-6.199205398999999,7.08036232,11.64349971,-1.644416809,-1.9026184080000001,1.4461088180000001,11.6413037,-0.4002576768,-0.258235693,-0.1496575773,0,0,0,1,,,,-5.058429385195715,-5.643391500704237,7.416590959755517,-0.4464924339311448,-0.1565641352521358,-0.23142598461686317,-1.286477852984223,-0.8965899295571622,1.380558361305937
231,11.55098528,-4.749752998,-5.746662617,7.092326164,11.69349971,-0.5394434929,-1.57851553,1.380765438,11.691303699999999,-0.029931515460000002,-0.22097399829999997,-0.01183516532,0,0,0,1,,,,-4.893762828257465,-5.716258444567987,7.263149013196883,-0.11418305733681272,-0.20287133989242978,-0.06617866935394245,-0.7577186049446205,-1.3840931880354992,1.3807066538887636
232,11.60098528,-4.749752998,-5.746662617,7.092326164,11.74349971,-0.5394434929,-1.57851553,1.380765438,11.7413037,0.1049893722,-0.1420219839,0.1298813969,0,0,0,1,,,,-4.816939320316775,-5.737711288222615,7.182315722556875,0.06066064545332661,-0.15912394705163285,0.08136119447570372,-0.603221047293555,-1.5230841938564843,1.3807487506404135
233,11.65098528,-4.412065983,-7.70040226,7.4874410629999995,11.79349971,-0.5394434929,-1.57851553,1.380765438,11.7913037,0.2063136548,-0.07162184267999999,0.05971032009,0,0,0,1,,,,-4.600955521997639,-7.122564075273426,7.3267008880731375,0.1768546007231957,-0.09621467103037513,0.06506839645437977,-0.5580785832919484,-1.5627116206749814,1.3807607009110587
234,11.70098528,-3.734597921,-7.314858912999999,7.039684296,11.84349971,-0.325053215,-0.247803688,1.071417332,11.8413037,0.4406499267,-0.005115845706,0.08620581776000001,0,0,0,1,,,,-4.1387882515071714,-7.25824516129146,7.190884773449535,0.387295994582477,-0.030719547354969012,0.08097480881437422,-0.39314062985917353,-0.6226942614745903,1.1592325867824531
235,11.75098528,-3.1528429989999998,-7.587640762,5.445167065,11.89349971,0.389316082,-0.4328885078,1.254246712,11.8913037,0.516471386,0.06039752438999999,0.1152974218,0,0,0,1,,,,-3.6128257319842088,-7.490663011446671,6.364811986373511,0.4903450130445508,0.03478869450686768,0.1068033915804534,0.1606909536493416,-0.4870036181506027,1.2272744522628753
236,11.80098528,-4.876572609,-6.910172462,7.499405384,11.94349971,0.389316082,-0.4328885078,1.254246712,11.941303699999999,0.7004891038,0.0785702318,0.3815504611,0,0,0,1,,,,-4.286984352275587,-7.081075375773608,6.9017010409512505,0.657986404002366,0.06626524965679048,0.31355709718885516,0.32251436821717366,-0.44831715058735944,1.2465899261613607
237,11.85098528,-3.873381615,-7.305287361,7.022934437000001,11.99349971,-0.9660229683,-1.621047497,1.050368309,11.9913037,0.8925241828,-0.002519744914,0.33268269899999997,0,0,0,1,,,,-4.066343766723572,-7.239276843719442,6.959068626036769,0.8450877368495572,0.016812562309813157,0.32794956749546383,-0.5895267232223007,-1.286692869331095,1.1060709782149183
238,11.90098528,-5.803193092000001,-6.690032959,6.752545357000001,12.04349971,1.61649847,-0.2791385651,0.40631151200000004,12.0413037,1.133961558,-0.11193776130000001,0.32397812600000003,0,0,0,1,,,,-4.992883698382317,-6.851736504689738,6.861341913523597,1.0755353743422795,-0.07575195033367726,0.32496096333226615,0.9719225016013042,-0.5664002063631359,0.6049566492127677
239,11.95098528,-5.072783947,-7.065706252999999,7.743473053,12.09349971,1.61649847,-0.2791385651,0.40631151200000004,12.0913037,1.369443178,-0.2594573796,0.5274665952,0,0,0,1,,,,-5.0355072983649105,-7.002711164812383,7.278765947930721,1.3099988459176528,-0.20782620887105643,0.4773512686041935,1.4281605580056214,-0.3610391139596045,0.4627021611317038
240,12.00098528,-2.752942562,-5.284548759,7.238587379,12.14349971,1.61649847,-0.2791385651,0.40631151200000004,12.1413037,1.494590521,-0.3821613193,0.42736402149999997,0,0,0,1,,,,-3.8178499324996333,-5.790394997834277,7.259753468493746,1.4572559257431419,-0.3331637154195681,0.43973467606488714,1.561468231929571,-0.3024890544610145,0.4223194815553656
241,12.05098528,-6.056832313999999,-5.940481186,8.145766258,12.19349971,0.9104654789,-0.8880581856,-0.7149248123,12.191303699999999,1.67433238,-0.48646348710000004,0.3720059693,0,0,0,1,,,,-5.012257847860045,-5.896294132678161,7.6790142979670355,1.6304275750406814,-0.44337795224499,0.3887672130471859,1.1006812259323209,-0.7211078296646384,-0.39208809525463884
242,12.10098528,-4.857429981,-5.2558350560000004,7.813164233999999,12.24349971,0.48560428619999996,-1.3728814130000002,0.19947433469999998,12.2413037,1.5071892740000001,-0.3783435225,0.5343386531000001,0,0,0,1,,,,-4.929663348240292,-5.444393375126611,7.742493983783707,1.5321148403840088,-0.39662171800192775,0.4983131846085847,0.6653229110867562,-1.1870556477113274,0.031543773219690485
243,12.15098528,-3.413660526,-4.17846632,7.528119087,12.29349971,0.48560428619999996,-1.3728814130000002,0.19947433469999998,12.2913037,1.136404991,0.011682453570000001,0.4257605374,0,0,0,1,,,,-4.120936229349844,-4.551169410780387,7.641051884987778,1.2164392993554731,-0.10307312262924262,0.4437155916525173,0.5381160648782042,-1.3199010282582155,0.1518028260882061
244,12.20098528,-4.479064941,-4.473083019,9.278169632000001,12.34349971,2.511405468,1.1838154790000002,-2.187044144,12.3413037,0.7244648337,0.22425730530000001,0.2477749139,0,0,0,1,,,,-4.3119836319648215,-4.49607252670796,8.415735221937068,0.8239691450059928,0.13225973464262936,0.2962655705078159,1.9348323026961272,0.46998624917382914,-1.5231008893571738
245,12.25098528,-4.505385876,-3.908077478,8.916853905,12.39349971,1.449347019,0.4152154922,-1.4043207169999998,12.3913037,0.1695101112,0.1309503764,0.1627144367,0,0,0,1,,,,-4.4151560252468744,-4.081189800292981,8.65286434359466,0.3018777440121404,0.1313183769435162,0.1957651652944899,1.5912004068279477,0.43083106499031526,-1.4380395942779782
246,12.30098528,-2.4128625390000003,-0.604187727,6.819544315,12.44349971,0.8247156143000001,-0.7489465475,-1.317462921,12.441303699999999,-0.5912237763,0.2087570578,-0.1549261361,0,0,0,1,,,,-3.3470122074330257,-1.6278560450144783,7.785338180730603,-0.41058949979388715,0.18699259624322861,-0.06813838146351958,1.048673925891434,-0.41258268910432466,-1.3516917825394361
247,12.35098528,-3.9619162080000003,-1.315155149,7.272087097000001,12.49349971,0.8247156143000001,-0.7489465475,-1.317462921,12.4913037,-1.042105436,0.45691373939999996,-0.3731513321,0,0,0,1,,,,-3.675038998533837,-1.4072177915614084,7.542468012813249,-0.9143781603957726,0.3810512857332158,-0.29766788265812727,0.8901537362654721,-0.6530465710705129,-1.3271796841122254
248,12.40098528,-3.250948668,-0.8937192559,6.201897144,12.54349971,2.016205072,0.8496313095,-1.260529518,12.5413037,-1.307976723,0.8564078808,-0.7721872926000001,0,0,0,1,,,,-3.4488036996439635,-1.0448989708646952,6.908110517303134,-1.2283694329137074,0.7228069436350724,-0.6547550267417472,1.6871854252422296,0.42120604995583344,-1.2794499215043775
249,12.45098528,-3.169592619,0.6358926296,7.092326164,12.59349971,2.216709137,1.8443391319999998,-0.1027808189,12.5913037,-1.4300698040000002,0.9782719016,-1.0053018329999999,0,0,0,1,,,,-3.2998557098469887,0.14104877438082175,6.995281273564114,-1.3892748891514997,0.9064724185478232,-0.9185498375602426,2.061988211546487,1.4385927191448935,-0.43680930533177165
250,12.50098528,-2.745764017,-1.4443675280000001,7.034898758,12.64349971,2.216709137,1.8443391319999998,-0.1027808189,12.6413037,-1.32607305,0.5667135715,-1.294843435,0,0,0,1,,,,-3.004269862789295,-0.9776032277428277,7.014028248270387,-1.338855940395856,0.6622042007647873,-1.201719721322575,2.171501407390364,1.7286576448662734,-0.19760359407494596
251,12.55098528,-3.449553013,-1.324726462,8.038089752000001,12.69349971,2.216709137,1.8443391319999998,-0.1027808189,12.691303699999999,-1.060201764,0.3635304868,-1.432665944,0,0,0,1,,,,-3.241810686473695,-1.222529497782488,7.498613663443832,-1.1165609734391866,0.44747396946178675,-1.3755122478339497,2.2034999423591075,1.8113574321564037,-0.12969875872795972
252,12.60098528,-4.342673779,-2.9527430530000003,7.367800236,12.74349971,0.13468647,0.06486177444,0.8869829178,12.7413037,-1.064630389,0.124612838,-1.1374739409999999,0,0,0,1,,,,-3.829077295635366,-2.443348821561207,7.436712811857254,-1.0751336111860585,0.21535429439578563,-1.1963827592459322,0.7391707034427439,0.5628013961920235,0.598371072018169
253,12.65098528,-4.673182487,-2.63689065,7.398906707999999,12.79349971,-1.697305679,-1.080227852,1.4292831419999998,12.7913037,-0.9827005267,-0.12064233419999999,-0.8400676847,0,0,0,1,,,,-4.279373792420645,-2.5799097698301874,7.418822981433957,-1.0013955831687467,-0.02620909204319427,-0.9282471893999733,-0.9853944421993379,-0.6117873157081366,1.1934068872563564
254,12.70098528,-5.259723186,-6.201598167,7.418049335,12.84349971,-1.697305679,-1.080227852,1.4292831419999998,12.8413037,-0.6924717426000001,-0.11720632019999999,-0.5388436317,0,0,0,1,,,,-4.802351144103009,-5.135332576474088,7.4184568925374546,-0.7549531438728105,-0.0916311728313937,-0.6352117489248418,-1.4892931522449735,-0.9466717778193439,1.362323460556426
255,12.75098528,-6.69840765,-6.869494915,7.738687515,12.89349971,-1.267846107,-2.373454094,1.060765743,12.8913037,-0.3383330107,-0.2334963679,-0.242659077,0,0,0,1,,,,-5.813821764768104,-6.358938117266522,7.569989870456864,-0.4225965290308615,-0.19362456808381534,-0.3398065250856373,-1.3325504652631877,-1.966667255577934,1.1463708361830955
256,12.80098528,-4.752145767,-6.493522644,7.085147857999999,12.94349971,-0.8305754662,-1.25659132,1.756771088,12.941303699999999,0.257930249,-0.2214321345,-0.08612946421,0,0,0,1,,,,-5.247459909592892,-6.453899453359058,7.340562861277386,0.12029028373722578,-0.21361670295115898,-0.14890850217094614,-0.9772469648607375,-1.4590395432518823,1.5834929148403254
257,12.85098528,-5.271687508,-8.511868477,7.025327206,12.99349971,0.43951368329999996,0.07281112671000001,0.7094202042000001,12.9913037,0.4966951907,-0.06650599837,-0.06803311408,0,0,0,1,,,,-5.260384368092451,-7.905979367672285,7.191393499407964,0.4205654041851499,-0.10785207035522416,-0.08804784872242197,0.025552016016905488,-0.3639315240991068,0.9575487425156777
258,12.90098528,-4.977071285,-7.357929707,7.611867905,13.04349971,0.43951368329999996,0.07281112671000001,0.7094202042000001,13.0413037,0.532047987,-0.07795938104,0.049860406669999996,0,0,0,1,,,,-5.10924812354642,-7.5192816594769685,7.390361787405351,0.5095000736367187,-0.0863608450131797,0.01573139409316944,0.3185586989921593,-0.05170763140191614,0.7798580187667148
259,12.95098528,-2.36500597,-7.27178812,6.9056863779999995,13.09349971,0.43951368329999996,0.07281112671000001,0.7094202042000001,13.0913037,0.6814001203,-0.1565296054,0.055968880650000004,0,0,0,1,,,,-3.6453042454616944,-7.3446529876652065,7.161013615095084,0.6466324708341522,-0.13680838506205192,0.04601105992049746,0.404171985309047,0.037309851317646484,0.7294158312643215
260,13.00098528,-4.881358147,-7.290930747999999,5.83310318,13.14349971,-0.5483283997,-1.105041027,0.4874734879,13.141303699999998,0.7627955079000001,-0.1806580722,0.5012765527,0,0,0,1,,,,-4.304689766274899,-7.306747176499336,6.532647030598637,0.7393009491314124,-0.16833393628827253,0.3886091733179861,-0.27001840567750574,-0.7793478243548085,0.5561551882466104
261,13.05098528,-4.881358147,-7.290930747999999,5.83310318,13.19349971,-0.5483283997,-1.105041027,0.4874734879,13.191303699999999,0.9071081877,-0.26640576120000004,0.78898561,0,0,0,1,,,,-4.612319376901697,-7.295587281526056,6.201623214150498,0.8731683292798469,-0.2388422692065339,0.6899019662953959,-0.46700932202633527,-1.0121833383315553,0.5069705957282538
262,13.10098528,-5.1110692019999995,-7.121040344,6.87457943,13.24349971,-0.5483283997,-1.105041027,0.4874734879,13.241303699999998,1.172215939,-0.5423560143,0.603364408,0,0,0,1,,,,-4.878382542218442,-7.172428915756122,6.520065774308737,1.1117320547925644,-0.45705222085196984,0.6247803950887616,-0.5245678717220185,-1.0785665710908336,0.4930082549504379
263,13.15098528,-6.875476837000001,-6.632605076,7.760222912000001,13.29349971,0.9585263729000001,-0.5701737404,0.1962900162,13.291303699999998,1.4259465930000002,-0.36330139640000003,0.7061394453000001,0,0,0,1,,,,-5.943752798723701,-6.791535254937664,7.106907540222094,1.3623951217581411,-0.38965045335079823,0.6860050157888178,0.5251827682133549,-0.7151205272295145,0.28052129578163115
264,13.20098528,-4.821537495,-5.320441246000001,6.429215431,13.34349971,-0.9497256279,-1.974887848,-0.4256782532,13.341303699999997,1.525056481,-0.6340594292,0.8233457208,0,0,0,1,,,,-5.345095634976133,-5.753547783797064,6.786223957503214,1.4921574028754208,-0.5653672756218855,0.7893571634194978,-0.5187738368841243,-1.6157182957891134,-0.22520492901289407
265,13.25098528,-4.821537495,-5.320441246000001,6.429215431,13.39349971,-0.9497256279,-1.974887848,-0.4256782532,13.391303699999998,1.672118068,-0.8035695553,0.73820889,0,0,0,1,,,,-5.065798221900575,-5.447952657212924,6.6172876931585165,1.635720117716547,-0.7366218193621009,0.7508668708997803,-0.8238063188298177,-1.8724857891653566,-0.3687686250671841
266,13.30098528,-5.475077152000001,-5.866303921,7.575975418,13.44349971,0.6641390324,-1.0670249459999999,-0.8014831543000001,13.441303699999999,1.347834468,0.1517955512,0.7705838084000001,0,0,0,1,,,,-5.284132228519956,-5.743136627410897,7.070938267295494,1.4060607891961396,-0.0978978253687286,0.7657043354223322,0.22937798841054313,-1.2966681552875925,-0.6786457491813966
267,13.35098528,-4.864608288,-4.497011185,7.288836956,13.44349971,0.6641390324,-1.0670249459999999,-0.8014831543000001,13.491303699999998,0.8253310323,0.42110282179999997,0.6548282504,0,0,0,1,,,,-5.060332916962471,-4.863884459173072,7.174047822862651,0.9427865478248285,0.27523554330839445,0.6822674438697928,0.5371067020516488,-1.132498027785385,-0.7666125246409554
268,13.40098528,-3.097808123,-3.43160677,7.916055678999999,13.54349971,1.0142710209999999,-0.08849287033,-3.301421165,13.541303699999998,0.2386885732,0.3755183518,0.48272204399999996,0,0,0,1,,,,-4.013404112034022,-3.8532853485714345,7.525165586595756,0.38109593159688393,0.34733345369166346,0.5321047835687793,0.874848926369004,-0.3861469360079025,-2.58184903448755
269,13.45098528,-3.212663412,-2.107777596,7.010970116,13.59349971,1.0142710209999999,-0.08849287033,-3.301421165,13.591303699999997,-0.5075377226,0.24785128239999998,-0.003054236295,0,0,0,1,,,,-3.586240844355211,-2.6216746102510298,7.281848535024688,-0.32780709445564216,0.27581115807690093,0.12938489047361612,0.9735334391527153,-0.17335638099594594,-3.097151682026045
270,13.50098528,-2.8582265380000003,-1.197906852,9.680462837,13.64349971,1.430323124,2.1537623409999997,-2.099645138,13.641303699999998,-1.133808851,0.3166479468,-0.2699181437,0,0,0,1,,,,-3.1978742106007463,-1.6170800118277175,8.416871678666755,-0.9707909401596635,0.30517059845031225,-0.17110014161240505,1.2968542703463752,1.490282525494767,-2.3828136177040435
271,13.55098528,-3.626920938,-1.394118309,5.2968120569999995,13.69349971,1.289328575,1.274199963,-2.059905052,13.691303699999999,-1.616530895,0.6474980712,-0.5648810267000001,0,0,0,1,,,,-3.4267535498008237,-1.4597607292688664,6.940460954219374,-1.485926739978914,0.5512855190879907,-0.46742962514406367,1.2915274993785457,1.3358067975090209,-2.1515711451829636
272,13.60098528,-3.626920938,-1.394118309,5.2968120569999995,13.74349971,1.289328575,1.274199963,-2.059905052,13.741303699999998,-1.863695025,0.9508601427,-0.7537091373999999,0,0,0,1,,,,-3.5335348784411664,-1.413444172080686,6.162687080321883,-1.7872894887920525,0.838558042069939,-0.6828617683161172,1.2899710762847703,1.291764554848561,-2.085926884687382
273,13.65098528,-3.1073791980000003,-0.6352944374,6.350252151,13.79349971,1.289328575,1.274199963,-2.059905052,13.791303699999998,-1.764661431,0.6205444336,-1.050733685,0,0,0,1,,,,-3.3061977979367763,-0.864390426791894,6.251442782528388,-1.7692380698013734,0.6818180599760294,-0.9596941371252401,1.2895163068078266,1.2792077657409426,-2.067292034051892
274,13.70098528,-3.62452817,-1.439581871,6.491428852,13.84349971,0.1922869682,1.011543512,-0.08138036727999999,13.841303699999997,-1.4173947569999998,0.228075102,-1.216884136,0,0,0,1,,,,-3.476014371248123,-1.2702390734556541,6.365004076165732,-1.4885568376932299,0.35560143703244246,-1.1532357296016873,0.5128851490132539,1.0878566921127109,-0.645133649077088
275,13.75098528,-3.940380573,-2.737389088,7.219445229,13.89349971,0.2541022301,-0.5755801200999999,1.096101284,13.891303699999998,-1.252694964,0.014583977869999997,-1.189166903,0,0,0,1,,,,-3.7237352430250987,-2.3054437060808075,6.7693252219119655,-1.3003992151292438,0.11042834524093259,-1.180274792706907,0.3297157140658553,-0.1013212271945334,0.6018059312463595
276,13.80098528,-3.940380573,-2.737389088,7.219445229,13.94349971,0.2541022301,-0.5755801200999999,1.096101284,13.941303699999999,-0.9433009028,-0.1482068151,-0.6946097016,0,0,0,1,,,,-3.839306897123445,-2.6102195338660352,6.982321794355196,-1.015525833409356,-0.07551633356939608,-0.8148002584141876,0.27619564715332484,-0.44036518686063064,0.9557825417738297
277,13.85098528,-4.852644444,-6.570391655,7.312765121,13.99349971,0.2541022301,-0.5755801200999999,1.096101284,13.991303699999998,-0.693769753,-0.1570640951,-0.3516189456,0,0,0,1,,,,-4.379882114056258,-5.404472668187651,7.138687419117311,-0.7588465393114843,-0.13414475946278726,-0.4662453021166104,0.26055768024501225,-0.537029281206606,1.0562681168391543
278,13.90098528,-3.303590775,-5.46909523,10.0707922,14.04349971,-1.667848587,-0.3859305382,1.327412605,14.041303699999998,-0.2728960216,-0.1827196926,-0.08513683826,0,0,0,1,,,,-3.805723556113188,-5.450069624748294,8.526158001935105,-0.3711819590965945,-0.16906750672361764,-0.17945211705129854,-1.1043897736753299,-0.4290099759179799,1.2504411076300828
279,13.95098528,-7.28255558,-10.35763168,7.5903325079999995,14.09349971,-0.2918725014,-1.913173199,1.38049221,14.091303699999997,0.29687178129999997,-0.19111883640000002,0.02336490713,0,0,0,1,,,,-5.660474948998209,-8.912790497675369,8.083325824641795,0.16175455072121786,-0.1849212189906389,-0.026827481634989797,-0.5292809903697214,-1.4900266134220033,1.3435737828427758
280,14.00098528,-6.004190445,-7.4081788060000004,6.343073845,14.14349971,-0.2918725014,-1.913173199,1.38049221,14.141303699999998,0.41148197649999996,0.2637332976,-0.02229592577,0,0,0,1,,,,-5.843833474938059,-7.851153324850005,7.259839417945351,0.36097334802391756,0.13763709003493568,-0.023417378044682382,-0.36124061522012674,-1.7925307855988073,1.3700119432968643
281,14.05098528,-4.826323509,-7.860721588,7.8418779370000005,14.19349971,1.6894206999999999,1.647909164,-0.9234647751,14.191303699999999,0.7548545003,-0.14041851460000002,0.25350162390000003,0,0,0,1,,,,-5.301032438490084,-7.857904584354861,7.535259767675376,0.6751900552511274,-0.06226983686598056,0.1849707583920783,1.0902403245867065,0.6670127277287417,-0.27240106044576207
282,14.10098528,-3.583850145,-8.385048866,8.198408127,14.24349971,-2.640312672,-3.664288998,2.963684082,14.241303699999998,0.9709417224,0.04268295318,0.5172349215,0,0,0,1,,,,-4.3849840852625706,-8.229851690930783,7.849061254901272,0.9111244595016508,0.01318553744444638,0.43500744517415446,-1.550286674489549,-2.429400875663714,2.0450361634086143
283,14.15098528,-3.679563046,-4.983053207,6.03888607,14.29349971,-2.640312672,-3.664288998,2.963684082,14.291303699999998,1.155112147,-0.2951155901,0.5909947157,0,0,0,1,,,,-4.008670059440918,-5.938947012626407,6.9924872209916575,1.1057644097302837,-0.20846628304465964,0.5523915769460894,-2.3218192269347107,-3.312212700381851,2.7029016979980103
284,14.20098528,-7.567600727,-10.2714901,10.72911739,14.34349971,-2.640312672,-3.664288998,2.963684082,14.341303699999997,1.391891837,-0.5019637346,0.7129350901,0,0,0,1,,,,-5.90721780847589,-8.99594093183341,8.760658836219946,1.3340211251473746,-0.4194750619329391,0.673204389662698,-2.5472524376880146,-3.5639092815518527,2.8896541403708733
285,14.25098528,-5.23818779,-6.824030876,6.7046890260000005,14.39349971,0.014181137080000001,-0.9479432106,-0.8740754128,14.391303699999998,1.650432944,-0.4188121557,0.7710419297,0,0,0,1,,,,-5.550316942909444,-7.463465500224681,7.787774902679057,1.5864370617015302,-0.4189984682555425,0.7468294659687267,-0.7342411985149706,-1.6937756723782127,0.19435825571210463
286,14.30098528,-4.890929699,-5.875874996,7.111468792,14.44349971,0.5008878708,-0.38345384600000004,-0.4110937119,14.441303699999999,1.7023549080000002,-0.5234197378000001,1.032179117,0,0,0,1,,,,-5.198560113490004,-6.343279405713069,7.467747173690502,1.6789099402832548,-0.4940717081120103,0.9615618665718718,0.13999692599901048,-0.7570368845179838,-0.2392202396353108
287,14.35098528,-4.1392841339999995,-4.79132843,6.532106876,14.49349971,0.5008878708,-0.38345384600000004,-0.4110937119,14.491303699999998,1.585454106,-0.5082249045,0.7638645172,0,0,0,1,,,,-4.63347857230627,-5.24824016370619,7.0250026313071965,1.604356019014194,-0.5042470901432574,0.8127899082486252,0.39543955994560787,-0.48996530283744993,-0.36230290426679823
288,14.40098528,-4.2421755789999995,-4.00139761,8.737092972000001,14.54349971,2.016028404,-0.8585263490999999,-0.2867441177,14.541303699999998,1.287207842,0.35566580299999995,0.5629721284,0,0,0,1,,,,-4.424734012106692,-4.368482009775802,7.83516296374973,1.3513526565783573,0.11398372768829068,0.6247960861075138,1.542510410313866,-0.753446701637492,-0.3081934674675499
289,14.45098528,-3.83270359,-5.892624855,6.613462448,14.59349971,0.9335603714,-1.893422961,-1.105154991,14.591303699999997,0.5557183027,0.4265241027,0.3823903799,0,0,0,1,,,,-4.108909364348141,-5.443900146236042,7.257054862513792,0.7166393543971767,0.33868333760462677,0.44238002571455814,1.1114887841740972,-1.5684067809779672,-0.8789164922478858
290,14.50098528,-3.83270359,-5.892624855,6.613462448,14.64349971,0.9335603714,-1.893422961,-1.105154991,14.641303699999998,-0.005421269219,0.4669163823,-0.06589514762,0,0,0,1,,,,-3.9615645859907285,-5.760515279539449,6.952507239020948,0.1406191252906106,0.4308759547164059,0.05989086665844634,0.9855490700598252,-1.8007582969145854,-1.0409312402353748
291,14.55098528,-3.789632797,-3.182753325,5.974279881,14.69349971,0.9335603714,-1.893422961,-1.105154991,14.691303699999999,-0.5701495409,0.5059342384000001,-0.4029301107,0,0,0,1,,,,-3.8698458252163372,-3.94167528922736,6.489610519601577,-0.4263930016010913,0.48483879734856566,-0.28839292863049765,0.9487508895758572,-1.8670035380333097,-1.086923389536785
292,14.60098528,-0.4235295951,0.2650051117,5.837889194,14.74349971,1.131815434,2.065840721,-1.5320768359999999,14.741303699999998,-1.183745623,0.50532341,-0.7116370797,0,0,0,1,,,,-2.0313733928723297,-0.9734886710929067,6.181216299433873,-1.0305672440591858,0.4995661249130488,-0.6068942206795018,1.0783260145766915,0.9445559505943455,-1.405708316659939
293,14.65098528,-2.400898457,1.517049551,4.858626366,14.79349971,0.6845269203000001,0.8683900833,-0.10411071779999999,14.791303699999998,-1.711135864,0.7881456614,-1.0686773059999999,0,0,0,1,,,,-2.2285002951412576,0.7838072292989839,5.5553673736578215,-1.5734874362254017,0.7070391890514911,-0.9543969776571115,0.7995906255751015,0.8901055699657486,-0.4736034450834695
294,14.70098528,-4.967499733,-0.06789634377,7.082755089,14.84349971,0.6845269203000001,0.8683900833,-0.10411071779999999,14.841303699999997,-1.7513754369999999,0.5539621115,-1.218716621,0,0,0,1,,,,-3.6896473932239027,0.18285471870660186,6.278126511891009,-1.7153966935439653,0.5969850572643549,-1.1533037973493399,0.7181472522604471,0.8745813390210636,-0.2090009508622207
295,14.75098528,-4.148855209,-2.294417858,8.969495773,14.89349971,0.6572322845,0.8515677452,-0.7103261948,14.891303699999998,-1.5911043880000002,0.1954711229,-1.327218413,0,0,0,1,,,,-3.9346164715972707,-1.5650810908234791,7.551681162594415,-1.6162431324198199,0.3083182748156582,-1.2841786830656148,0.6750309590299548,0.8581291014579571,-0.5680118329382996
296,14.80098528,-3.921238184,-2.521735907,7.748258591,14.94349971,0.8412094116,1.442095995,-0.46692276,14.941303699999999,-1.211233735,-0.06139015034,-1.320499063,0,0,0,1,,,,-3.927479688045478,-2.240086023868173,7.644701507804289,-1.2931489236885656,0.042517931691915256,-1.3115106326272334,0.7926539203370123,1.275602449560802,-0.4956195533117513
297,14.85098528,-4.735395908,-3.7645082469999998,5.84746027,14.99349971,1.383322716,1.294364929,0.7933950423999999,14.991303699999998,-0.9098569751000001,-0.2128802687,-0.7901309133,0,0,0,1,,,,-4.358470810020836,-3.3157012864894533,6.794247811338306,-0.9873797003964877,-0.1410995481293768,-0.9191599909430314,1.2107358785327405,1.289015598971603,0.4274743316509088
298,14.90098528,-4.120141506,-4.027718544,5.3446683880000005,15.04349971,1.383322716,1.294364929,0.7933950423999999,15.041303699999998,-0.9263498782999999,-0.3316137195,-0.3419981003,0,0,0,1,,,,-4.231331619751787,-3.8180926959198884,6.108307519848026,-0.9386934669278226,-0.2780689236295494,-0.4848319383851103,1.332894765925623,1.2928397931598707,0.6895188202162321
299,14.95098528,-3.389732361,-4.324728012,8.588737488,15.09349971,-1.18210125,-2.608178139,1.5837984090000001,15.091303699999997,-0.5283065438,-0.3264978528,-0.248080343,0,0,0,1,,,,-3.782371938371946,-4.17556890575651,7.282045797496513,-0.6113093640766765,-0.3128867019527293,-0.3066707308907754,-0.44724745119177034,-1.4959673039338008,1.3299336162419297
300,15.00098528,-7.31126976,-10.9561367,9.376275063,15.14349971,0.23618340489999998,-0.270945549,1.8907594680000002,15.141303699999998,0.09361234307,-0.1146865711,-0.1171299592,0,0,0,1,,,,-5.66489836042183,-8.959861669280897,8.273034086762518,-0.04896161933922005,-0.1703915376186306,-0.16403679127105564,0.03649252767636091,-0.6202088675800898,1.731554293054948
301,15.05098528,-7.31126976,-10.9561367,9.376275063,15.19349971,0.23618340489999998,-0.270945549,1.8907594680000002,15.191303699999999,0.46103698020000006,0.05322006717,0.044362783430000004,0,0,0,1,,,,-6.543171922594756,-10.368410995101014,8.79508719025644,0.35788719711008055,-0.00962689922727733,-0.007211153786884167,0.17783595675186864,-0.37052326280084624,1.8455648899911234
302,15.10098528,-4.050450325,-6.6613192560000005,8.176873207,15.24349971,0.23618340489999998,-0.270945549,1.8907594680000002,15.241303699999998,0.6927008033,-0.1227803007,0.23456534739999998,0,0,0,1,,,,-5.2134042423496805,-7.75272854622909,8.50254862831571,0.6249830666618049,-0.09097806918877888,0.17473141488937452,0.2191349310263706,-0.29933593688304383,1.8779297978860294
303,15.15098528,-3.344268799,-6.888637066,7.516155242999999,15.29349971,0.23618340489999998,-0.270945549,1.8907594680000002,15.291303699999998,1.043403506,-0.08078455179999999,0.5011238456,0,0,0,1,,,,-4.2162949361174995,-7.143035266884148,8.035787748863212,0.9587758668895547,-0.083649482022736,0.42034948337903427,0.23120203090700828,-0.2790398714538498,1.8871174286080417
304,15.20098528,-4.752145767,-6.843173504,6.026922226,15.34349971,-1.616535187,-2.2584738730000002,1.103193283,15.341303699999997,1.218334913,-0.2901524603,0.5489989518999999,0,0,0,1,,,,-4.502150010070746,-6.931456162358695,7.085193541665101,1.165837790034673,-0.23211394417030187,0.5171612688321365,-1.076646970400499,-1.694121700992644,1.3257307791418556
305,15.25098528,-4.752145767,-6.843173504,6.026922226,15.39349971,-1.616535187,-2.2584738730000002,1.103193283,15.391303699999998,1.6644824740000002,-0.4741701782,0.6002337932999999,0,0,0,1,,,,-4.635512788476133,-6.8691649064161115,6.584420059872814,1.5636290777665225,-0.406139272445876,0.5796753196365723,-1.4587858686373418,-2.0975726387781943,1.1663664069548187
306,15.30098528,-5.656931877000001,-7.927720547000001,8.212765694,15.44349971,-1.616535187,-2.2584738730000002,1.103193283,15.441303699999999,1.869803429,-0.5105919242,0.9009997248999999,0,0,0,1,,,,-5.180399186300428,-7.616069920978067,7.354952437050403,1.8078781255252285,-0.48123507439396945,0.821479578407085,-1.5704425946046945,-2.2125996681713227,1.12112663656356
307,15.35098528,-4.215854168,-6.036493301,7.224230766,15.49349971,-1.120322227,-2.935328722,-0.8561553955,15.491303699999998,2.0186975,-0.6231405735,0.9571213126000001,0,0,0,1,,,,-4.665852839526953,-6.50153833366106,7.293095004804786,1.976058220859427,-0.5832574460459873,0.9235532101188333,-1.2518423807952561,-2.7292729954368555,-0.29485186259089224
308,15.40098528,-4.9292144780000005,-6.467201233,8.251050949,15.54349971,-0.776611805,-2.619637251,0.36065864560000005,15.541303699999998,1.4848933219999998,-0.4269058704,0.9430717826,0,0,0,1,,,,-4.806345782976611,-6.477310459603397,7.746399300691786,1.5842338943115213,-0.4708491274437736,0.9382414002208039,-0.915468881333944,-2.6508952622921043,0.17457473945943236
309,15.45098528,-4.749752998,-5.820840359,7.355835915,15.59349971,-0.776611805,-2.619637251,0.36065864560000005,15.591303699999997,1.024772644,0.07666133343999999,0.7378271222,0,0,0,1,,,,-4.776155786628125,-6.014112502330816,7.561584892700308,1.1379264970990177,-0.07721874613298746,0.7874248884571451,-0.8171842946945773,-2.628549155318869,0.30783383244780244
310,15.50098528,-5.218746185,-5.3587265010000005,9.328418732000001,15.64349971,-0.776611805,-2.619637251,0.36065864560000005,15.641303699999998,0.3130592108,0.2809897363,0.6794148684,0,0,0,1,,,,-5.012260134708973,-5.55167947388948,8.397649822517433,0.4798927701388791,0.18031376074939198,0.7061447789302232,-0.7884666341584736,-2.622178104807149,0.3456629324317427
311,15.55098528,-3.904488325,-1.7413766380000002,6.4340009689999995,15.69349971,0.7723741531,-0.2591792941,-4.177571297,15.691303699999999,-0.5644991993999999,0.39521816369999996,0.2348707765,0,0,0,1,,,,-4.42130799993872,-2.863172430467636,7.468452121676054,-0.35326566820964134,0.3348183924112278,0.35149988121006515,0.3163138753956669,-0.932888804232084,-2.893532241141424
312,15.60098528,-3.904488325,-1.7413766380000002,6.4340009689999995,15.74349971,0.7723741531,-0.2591792941,-4.177571297,15.741303699999998,-1.245441198,0.5139515996,-0.2195232362,0,0,0,1,,,,-4.14560528979391,-2.071645872489017,6.978950329638783,-1.064994207982585,0.46360547081021225,-0.07820859840968336,0.6391184241566383,-0.4512591639658118,-3.813063023924781
313,15.65098528,-3.3251261710000004,-1.62652123,4.056731701,15.79349971,0.7723741531,-0.2591792941,-4.177571297,15.791303699999998,-1.75794208,0.7124006152,-0.5875586867,0,0,0,1,,,,-3.707912361952635,-1.7575709055130893,5.596157868437725,-1.6177898863923525,0.6424757108455467,-0.4615066565644435,0.7334383146684901,-0.31394277280412464,-4.0740960321807975
314,15.70098528,-2.927618504,-0.8267202376999999,6.685546398,15.84349971,1.9026772980000002,1.598140955,-2.672242641,15.841303699999997,-1.783674002,0.9158890843,-0.9961391687000001,0,0,0,1,,,,-3.291656669790103,-1.1007730905461672,6.1116560010574315,-1.7501231046510188,0.8390451248612871,-0.8638303400990855,1.5610387014978708,1.0529908746067607,-3.0701956132994432
315,15.75098528,-2.26929307,-0.7525427340999999,5.349453926,15.89349971,2.461226702,2.37716341,-0.5311694145,15.891303699999998,-1.6494402890000002,0.5993174911,-1.185730934,0,0,0,1,,,,-2.746266412814835,-0.8550656477681636,5.750982342757061,-1.6698038947337777,0.6666939340667477,-1.1060681946600188,2.1982018033932236,1.9996314257334413,-1.2519388103005864
316,15.80098528,-1.99651134,-1.5595221519999998,5.864210129,15.94349971,2.461226702,2.37716341,-0.5311694145,15.941303699999999,-1.5671286580000001,0.06627693027,-1.312252641,0,0,0,1,,,,-2.3463019463826575,-1.352122274248114,5.80456167709462,-1.587895241522646,0.23502661255706642,-1.2612268951487584,2.3843737586510847,2.269526077848625,-0.7357787730780142
317,15.85098528,-3.045166016,-1.621735573,7.195217609,15.99349971,2.461226702,2.37716341,-0.5311694145,15.991303699999998,-1.408537388,-0.3454341292,-1.000186086,0,0,0,1,,,,-2.719118089615134,-1.5423584007439148,6.462619400911185,-1.4448134162759971,-0.18229323692899518,-1.0647874762614558,2.4387711285261333,2.34647516179995,-0.5892531648216899
318,15.90098528,-6.296114445,-5.737091541,6.374180317,16.04349971,-2.235824108,-2.349524975,0.9476914406,16.041303699999997,-1.149996281,-0.2464005202,-0.6907919049,0,0,0,1,,,,-4.627303163312362,-4.502115165647387,6.420770068555029,-1.20962452985585,-0.2283829030882783,-0.7833469120258378,-0.8699594925215859,-1.010658472962045,0.5113892727994107
319,15.95098528,-5.31715107,-6.404987812000001,8.239086151,16.09349971,-0.3229148388,-0.8694739342,1.15516758,16.091303699999997,-0.7281299233,-0.1533990204,-0.3716242015,0,0,0,1,,,,-4.995309542769395,-5.844760811797681,7.281196371476274,-0.8255146303745882,-0.17447355079233196,-0.47351577810316897,-0.48275518813857016,-0.9097267544600193,0.9724141675478761
320,16.00098528,-6.0879387860000005,-8.804091454,7.580761432999999,16.14349971,-0.3229148388,-0.8694739342,1.15516758,16.141303699999998,-0.007711946498999999,0.1336991936,0.1249946207,0,0,0,1,,,,-5.578183721319189,-7.9328313977082665,7.422950415527891,-0.17311665446671642,0.04708596916151234,-0.023122465333976883,-0.3696184069646261,-0.8809503292159601,1.103288214844951
321,16.05098528,-3.8279180530000003,-7.171289444,6.989434719,16.19349971,0.3515312672,-1.219607353,2.223901272,16.1913037,0.39353835579999996,0.33680590990000003,0.04298837483,0,0,0,1,,,,-4.644486705067974,-7.395495916805215,7.21781099476157,0.27892952860737996,0.2553789222327363,0.026627514568772402,0.14081937178625747,-1.1230535772618373,1.9057857689678892
322,16.10098528,-5.853442192,-9.984351157999999,8.751449585,16.24349971,1.263810635,1.400091171,0.09689712524,16.2413037,0.5083776116,-0.0009162708884,0.28511294719999997,0,0,0,1,,,,-5.28941630131309,-9.222163205801003,7.943528044087196,0.4619705822697087,0.07111655319373597,0.22114395163220452,0.9356851067598984,0.6807227971449161,0.6103977639526132
323,16.15098528,-2.5950162409999997,-6.5799632070000005,7.592725277,16.29349971,1.263810635,1.400091171,0.09689712524,16.291303699999997,0.9933140278,-0.15362808109999998,0.2970244884,0,0,0,1,,,,-3.8520611946571433,-7.357856453039169,7.777528342011926,0.8858471422290988,-0.09046267205968159,0.27824586067355433,1.16793601332891,1.1949936008672775,0.24266779325563081
324,16.20098528,-3.2294132710000003,-5.224728107,5.7924256320000005,16.34349971,1.263810635,1.400091171,0.09689712524,16.341303699999997,1.459008694,-0.1069746241,0.5372401475999999,0,0,0,1,,,,-3.519903329165861,-5.852744962100447,6.838178686768277,1.3430838857824106,-0.10233387168253393,0.47314522267274683,1.2357971390873588,1.3416162439586239,0.13827796501477962
325,16.25098528,-4.321138382,-6.529414654,7.475477219,16.39349971,1.263810635,1.400091171,0.09689712524,16.391303699999998,1.567663193,-0.6500178576,0.40766417979999997,0,0,0,1,,,,-3.947330314399887,-6.330195524613977,7.139748048048249,1.5222408978398922,-0.49608900806251915,0.4238691802145297,1.255625403515836,1.38341951047013,0.10864416546479957
326,16.30098528,-6.631408691,-7.9013996120000005,10.59511948,16.44349971,-0.09430456161,-2.29001236,-1.7372298240000001,16.4413037,1.9231762890000001,-0.7709655762000001,0.7524874806,0,0,0,1,,,,-5.379179214192444,-7.438819547200107,8.774828159668468,1.8420850883298334,-0.6937103797953821,0.6711622686322218,0.30012992513100845,-1.2426880975572943,-1.2132299217569402
327,16.35098528,-3.569493294,-9.594022751,6.5799632070000005,16.49349971,-0.09430456161,-2.29001236,-1.7372298240000001,16.4913037,2.0164830680000003,-0.7658497690999999,0.9030613303,0,0,0,1,,,,-4.413783860488891,-8.95950681097366,7.7362191111481025,1.981210199419138,-0.7455746953733138,0.8456718290895429,0.020944798243098195,-1.991411991164033,-1.588478663815053
