,Unnamed: 0,Time (s),Acceleration x (m/s^2),Acceleration y (m/s^2),Acceleration z (m/s^2),Gyroscope x (rad/s),Gyroscope y (rad/s),Gyroscope z (rad/s),Linear Acceleration x (m/s^2),Linear Acceleration y (m/s^2),Linear Acceleration z (m/s^2),SPM/RPM,Timestamps,Acceleration x (m/s^2)_kalman,Acceleration y (m/s^2)_kalman,Acceleration z (m/s^2)_kalman,Gyroscope x (rad/s)_kalman,Gyroscope y (rad/s)_kalman,Gyroscope z (rad/s)_kalman,Linear Acceleration x (m/s^2)_kalman,Linear Acceleration y (m/s^2)_kalman,Linear Acceleration z (m/s^2)_kalman,Acceleration x (m/s^2)_kalman_max_freq,Acceleration y (m/s^2)_kalman_max_freq,Acceleration z (m/s^2)_kalman_max_freq,Gyroscope x (rad/s)_kalman_max_freq,Gyroscope y (rad/s)_kalman_max_freq,Gyroscope z (rad/s)_kalman_max_freq,Linear Acceleration x (m/s^2)_kalman_max_freq,Linear Acceleration y (m/s^2)_kalman_max_freq,Linear Acceleration z (m/s^2)_kalman_max_freq
0,0,0.0442,2.54,4.86,6.28,-0.8959999999999999,-0.0751,-1.26,10.9,2.62,1.72,60.0,44200000.0,1.8260358459676131,3.7746350063485865,6.369765387615157,-0.8920833738537501,-0.07261706497888662,-1.2434635548015354,9.279728255834202,2.496304750710669,2.3081623697413867,,,,,,,,,
1,1,0.0942,1.64,4.2,8.67,-1.02,0.255,-1.35,10.3,2.84,4.28,60.0,94200000.0,1.7662579421522917,3.8749923781683284,7.205409174524983,-0.9800464309370484,0.12512819928299052,-1.3122350612277207,9.654289489601148,2.5770452575775544,3.025661153198532,,,,,,,,,
2,2,0.14400000000000002,0.8809999999999999,4.22,8.18,-0.84,-0.986,-1.11,9.5,3.57,3.54,60.0,144000000.0,1.3947905839437913,3.9896059972650217,7.6553417694173245,-0.8785987838159891,-0.6021576798533048,-1.1741512575028483,9.58234747963452,2.9055648717058777,3.263912119503216,,,,,,,,,
3,3,0.194,1.59,4.36,8.98,-0.997,-0.262,-1.25,10.0,4.43,3.97,60.0,194000000.0,1.4828177030316798,4.127594820503614,8.302753931801162,-0.9646939244548144,-0.3774755231754781,-1.226221031564084,9.788294530939098,3.4714564161243664,3.6101730319325287,,,,,,,,,
4,4,0.244,0.905,4.52,9.1,-0.3720000000000001,-0.807,-1.11,9.19,5.27,3.9,60.0,244000000.0,1.2168945601446923,4.279861963444592,8.697964902327017,-0.5335962105838279,-0.6614817663800785,-1.1463936111072472,9.48920290538578,4.167092629503353,3.754319838016935,,,,,,,,,
5,5,0.294,1.71,4.38,6.69,-1.56,0.7609999999999999,-0.727,9.85,5.66,1.36,60.0,294000000.0,1.4451585113172842,4.319294557035793,7.6990246399786075,-1.280169748374532,0.27919082922126914,-0.8583144849986268,9.670179508522928,4.753170284301669,2.5592977284010745,,,,,,,,,
6,6,0.344,0.785,3.03,5.98,-2.11,4.12,-0.921,9.35,5.13,1.68,60.0,344000000.0,1.139052126921371,3.808880373017766,6.843061739009183,-1.883762833478452,2.8191132399654597,-0.9013730363475084,9.509442442794029,4.901907355370946,2.120047630131483,,,,,,,,,
7,7,0.394,-0.101,0.943,8.53,-0.7659999999999999,4.25,-0.977,9.03,3.76,6.33,60.0,394000000.0,0.5637806725862644,2.6721190365816665,7.6832373132170275,-1.0707361985617831,3.765358419164015,-0.9533210636188256,9.268701499576704,4.450298837536036,4.223577543217871,,,,,,,,,
8,8,0.444,-1.06,0.448,12.2,-0.363,-2.55,-0.519,8.05,3.61,10.4,60.0,444000000.0,-0.18960991201095434,1.7892937943055167,9.932928438946265,-0.5559504594029478,-0.4109877857949629,-0.6549866685470678,8.656727635168837,4.117732882944234,7.309836898329119,,,,,,,,,
9,9,0.494,-0.675,-0.754,9.03,-1.24,0.5489999999999999,-0.434,8.23,2.66,6.73,60.0,494000000.0,-0.4148268109307259,0.7795195749353487,9.48319484933002,-1.053507256634137,0.2238521229727424,-0.5031912956846465,8.442442337870322,3.540652924716435,7.0200976839791815,,,,,,,,,
10,10,0.544,-0.958,-1.92,11.2,0.463,0.779,-0.622,7.96,1.79,9.54,60.0,544000000.0,-0.6668574479134439,-0.2923811787734121,10.338309588674711,0.049553907926005225,0.5909713869489702,-0.5848007761398246,8.200178891260615,2.8475467608659657,8.279274278995143,,,,,,,,,
11,11,0.594,-1.67,-1.56,10.3,-0.433,0.447,-0.6459999999999999,7.16,2.46,8.89,60.0,594000000.0,-1.1323139105677242,-0.7957327525054609,10.31922823616534,-0.3014410982895458,0.4957631110139753,-0.626838436861087,7.677841695888348,2.6941066310122967,8.584449855673377,,,,,,,,,
12,12,0.644,-2.57,-1.3,9.74,0.618,0.0373,-1.03,6.04,3.13,8.24,60.0,644000000.0,-1.799398471084522,-0.9959718245886441,10.030722917577114,0.3673323166907837,0.19258147060680536,-0.9037694022638856,6.855381534758557,2.866690741352057,8.412330501232745,,,,,,,,,
13,13,0.6940000000000001,-2.37,-1.61,9.07,0.738,1.29,-0.499,6.16,3.07,7.79,60.0,694000000.0,-2.064156902792297,-1.2397968913904975,9.552200551739336,0.6369446762310003,0.9183042860858726,-0.6257340041196465,6.506187989208825,2.947187699331949,8.101356164775645,,,,,,,,,
14,14,0.7440000000000001,-1.08,-2.89,4.98,-2.4,2.01,-1.69,7.32,2.12,4.35,60.0,744000000.0,-1.6075091616682209,-1.895078795800182,7.274853449082191,-1.5720364037312982,1.6402426227798248,-1.356776527497602,6.914852712430892,2.6196756216740638,6.226828938798278,,,,,,,,,
15,15,0.794,-2.21,-6.12,4.02,-4.22,2.99,-3.11,5.51,-0.218,5.34,60.0,794000000.0,-1.8870642967734879,-3.5727606398289096,5.653657902326487,-3.498084277840368,2.5328371423226628,-2.5610626465182564,6.209390610198518,1.4961416458503989,5.7836866204228645,,,,,,,,,
16,16,0.8440000000000001,-6.39,-7.31,7.57,-2.84,2.69,-2.8,0.0468,-0.802,11.1,60.0,844000000.0,-3.976421694156605,-5.056788326057308,6.608160335805604,-3.0194137659616582,2.6367689732498567,-2.7251882713568936,3.1147780568808963,0.5862276394271824,8.440212484168578,,,,,,,,,
17,17,0.894,-10.8,-5.44,7.45,-1.34,2.72,-2.05,-5.82,1.42,12.4,60.0,894000000.0,-7.142554989642647,-5.208958635995997,7.0274684307429425,-1.797859394805852,2.6918096676734207,-2.2614025750372027,-1.3719189534194365,0.916347055076976,10.418891210144306,,,,,,,,,
18,18,0.944,-13.0,-3.51,6.86,-1.66,1.98,-1.01,-9.28,3.27,12.9,60.0,944000000.0,-9.860403358043264,-4.534315742884775,6.944054888266917,-1.6975846478292729,2.221089968317227,-1.4018162897063675,-5.343048564569809,1.8482400137154367,11.65868422380725,,,,,,,,,
19,19,0.994,-13.3,-1.63,7.6,-1.32,1.59,-0.285,-10.3,4.76,14.4,60.0,994000000.0,-11.456372696991751,-3.381035170794589,7.270771636396821,-1.422941119545937,1.803750213194024,-0.6346770966331605,-7.832236261643317,3.0011070493714627,13.028500900572482,,,,,,,,,
20,20,1.04,-11.3,-1.42,8.14,0.0302,1.83,-0.0751,-8.99,4.73,15.4,60.0,1040000000.0,-11.383816017360168,-2.6023237571173268,7.703721913361423,-0.365970551133022,1.8211092248046068,-0.25030454844760397,-8.413619922662212,3.6856358476429087,14.213522696696383,,,,,,,,,
21,21,1.09,-10.5,-3.41,5.85,0.361,1.82,-0.0555,-8.95,2.84,13.2,60.0,1090000000.0,-10.973726308109603,-2.9230455739335373,6.780409727856632,0.16280567533005275,1.8203757291610183,-0.11649363930055814,-8.682968973326084,3.3508191988928617,13.707072196266957,,,,,,,,,
22,22,1.14,-9.67,-5.47,4.41,0.315,1.14,0.517,-8.65,0.877,11.8,60.0,1140000000.0,-10.368798697783587,-3.934420743602312,5.599742768652379,0.2735071874388761,1.3704432703308242,0.3186520665696789,-8.666413049740852,2.371348211362561,12.754121272775956,,,,,,,,,
23,23,1.19,-8.2,-6.45,2.72,0.267,0.913,0.601,-7.37,-0.004529999999999999,10.1,60.0,1190000000.0,-9.362478277979342,-4.933337091829837,4.165384461160562,0.2687740501368264,1.0679360411270022,0.5125963844792828,-8.015404941938558,1.4306554738973694,11.427875096915658,,,,,,,,,
24,24,1.24,-7.76,-6.21,1.34,-0.722,0.0959,0.816,-6.97,0.166,8.75,60.0,1240000000.0,-8.618930136363973,-5.440289747678802,2.758101244678586,-0.4518848034773896,0.4251286355984569,0.7210037962267544,-7.490443264188956,0.9299344268285488,10.089759105911165,,,,,,,,,
25,25,1.29,-6.51,-6.21,2.0,-0.0877,-0.172,0.5820000000000001,-6.66,-0.0822,8.92,60.0,1290000000.0,-7.640388861250299,-5.7459355542889465,2.380501953219405,-0.18698787685960394,0.030247482851604945,0.6255223392099911,-7.073426982397349,0.5291952397406385,9.505238466783684,,,,,,,,,
26,26,1.34,-7.15,-5.9,1.22,-0.206,0.0819,0.0587,-5.87,0.2,8.78,60.0,1340000000.0,-7.412848985901209,-5.807113352626189,1.8024726892584568,-0.20081671603589424,0.06440529127729053,0.2361730475705105,-6.4691128494988535,0.3988554070942849,9.142841599159759,,,,,,,,,
27,27,1.39,-8.11,-5.66,1.42,0.166,0.487,0.14300000000000002,-6.9,0.438,9.0,60.0,1390000000.0,-7.736326169238247,-5.748695755094028,1.6119685399973442,0.0659945803559619,0.3438671519640312,0.17217264585885955,-6.685487612081657,0.4143541090181975,9.071464622602306,,,,,,,,,
28,28,1.44,-8.39,-5.35,0.488,0.11,1.13,0.126,-7.33,0.84,8.02,60.0,1440000000.0,-8.039630303504723,-5.590376818323852,1.0521360305088094,0.09800278116419167,0.8637367777337925,0.1404567361388676,-7.009136547497016,0.5828820966194214,8.546055123645724,,,,,,,,,
29,29,1.49,-9.79,-3.99,1.45,0.14400000000000002,1.5,0.667,-9.08,2.21,9.01,60.0,1490000000.0,-8.851799997397219,-4.954879974035982,1.2503063567507129,0.1314597519317213,1.2844976276121909,0.5021383964924113,-8.049043334399954,1.2271146264783883,8.777885340439537,,,,,,,,,
30,30,1.54,-4.89,-4.04,0.407,0.341,1.4,0.513,-4.38,2.25,7.91,60.0,1540000000.0,-7.013528873215368,-4.59158843078684,0.8302676309911838,0.2838729361497501,1.3608793272553803,0.509599221141569,-6.206592987501517,1.6321104876395167,8.344208856454742,,,,,,,,,
31,31,1.59,-6.81,-3.09,1.07,0.192,0.616,0.481,-6.82,3.29,8.51,60.0,1590000000.0,-6.919091662000043,-3.9953196280335987,0.9496748910621132,0.21704736331526905,0.8682906481848598,0.4899544695332516,-6.514622141559273,2.2885265364949907,8.427053678780771,,,,,,,,,
32,32,1.64,-5.21,-2.97,1.12,0.438,0.091,-0.481,-5.34,3.5,8.49,60.0,1640000000.0,-6.126074933014466,-3.5881734070670337,1.0345113726068116,0.3777615733163901,0.3542683645372685,-0.17699249166716002,-5.924772809918253,2.7681909752745923,8.458507413432146,,,,,,,,,
33,33,1.69,-9.17,-4.06,-0.6779999999999999,0.243,0.12,-1.21,-9.51,2.53,6.58,60.0,1690000000.0,-7.538453021298847,-3.775531954660517,0.18153418074994665,0.2797401120880416,0.19934670029301527,-0.8865636005518504,-7.725134131868828,2.673882880510211,7.5198299844066465,,,,,,,,,
34,34,1.74,-9.85,-3.61,1.33,1.23,-0.418,-1.13,-10.4,3.23,8.33,60.0,1740000000.0,-8.611008582904915,-3.70980049635378,0.7535684556739675,0.9709302105081591,-0.20890466252588752,-1.0537796418135557,-9.06834721177936,2.8940689788444818,7.924666398344075,,,,,,,,,
35,35,1.79,-11.6,-4.74,1.5,1.24,-0.853,-1.1,-12.2,2.5,8.09,60.0,1790000000.0,-9.997897656598226,-4.118884397411275,1.125355237767684,1.1666433827732463,-0.6348448801820106,-1.0855283428183622,-10.640940955896523,2.738043377564681,8.007282551973224,,,,,,,,,
36,36,1.84,-7.36,-4.73,2.17,1.38,-0.747,-2.47,-8.17,2.89,8.29,60.0,1840000000.0,-8.773915960146516,-4.361553528161664,1.6456777588331213,1.321832480913268,-0.7090130436927607,-2.03651956515208,-9.400130856951943,2.7982083258972725,8.148554520755964,,,,,,,,,
37,37,1.89,-4.53,-8.67,1.71,-0.318,0.418,-4.13,-6.55,-1.07,7.57,60.0,1890000000.0,-6.804743483110915,-6.072403229362196,1.6777157580640119,0.1290683141861353,0.03628065679180892,-3.4745277576860736,-7.968906442338437,1.2666502218382727,7.859454843522941,,,,,,,,,
38,38,1.94,-7.2,-14.6,2.33,0.633,-0.622,-0.8440000000000001,-9.95,-7.18,8.15,60.0,1940000000.0,-6.988142005754793,-9.45864392578356,2.002609089271909,0.4956128775841259,-0.3990403080060464,-1.6676227479490155,-8.963734233212223,-2.0776720253564487,8.004638093476574,,,,,,,,,
39,39,1.99,-5.25,-11.6,1.97,0.333,-0.246,0.326,-7.9,-4.09,7.67,60.0,1990000000.0,-6.181645929898653,-10.30895946560676,1.9863669866669729,0.3773332289645762,-0.2978347613867041,-0.2982067041522385,-8.429568453801828,-2.874422652478128,7.837421750001157,,,,,,,,,
40,40,2.04,-4.03,-8.9,2.25,0.542,-0.585,0.16899999999999998,-6.45,-1.21,7.84,60.0,2040000000.0,-5.183284562334828,-9.749472767455817,2.1176787866917905,0.4971068170908979,-0.4877371109136136,0.022716778066455057,-7.435506319020918,-2.2154199064456805,7.838710160254693,,,,,,,,,
41,41,2.09,-3.23,-8.51,2.32,0.375,-0.191,0.122,-6.29,-1.07,7.71,60.0,2090000000.0,-4.276962573708452,-9.257288125363687,2.2184520305310875,0.4082900393836619,-0.29150486809397463,0.0909142535775044,-6.860277721642361,-1.7619083868096703,7.774394586763289,,,,,,,,,
42,42,2.14,-3.09,-8.63,2.13,0.121,-0.0867,0.248,-5.21,-0.674,7.46,60.0,2140000000.0,-3.726213139003673,-9.008197068049974,2.174395407384379,0.19932401904525596,-0.1560674148545762,0.19881618012475044,-6.0315726592722365,-1.3311676651768551,7.6172937669854415,,,,,,,,,
43,43,2.19,-2.09,-4.55,2.79,1.29,0.332,-1.11,-4.12,3.48,8.04,60.0,2190000000.0,-2.9670119110696005,-7.237882707586537,2.481019153510742,0.992648462928486,0.16669154365305786,-0.7002074151747917,-5.0716553977664605,0.5737407927135907,7.828517180467446,,,,,,,,,
44,44,2.24,-3.13,-5.6,2.68,-0.964,-1.49,-1.61,-5.78,2.34,7.8,60.0,2240000000.0,-3.042638267256032,-6.587492532675341,2.5801286753367085,-0.4305579930053047,-0.9288785309832146,-1.3251423884185751,-5.4273585242847835,1.2730641503885385,7.814267434457848,,,,,,,,,
45,45,2.29,-3.3,-5.66,2.66,-1.57,-0.8690000000000001,-1.09,-6.06,1.74,8.47,60.0,2290000000.0,-3.1620538204096897,-6.219192597717076,2.6199114724526256,-1.2593534240484734,-0.8892808718999853,-1.163623508735606,-5.745046360347124,1.4579402814565727,8.141932675491871,,,,,,,,,
46,46,2.34,-2.17,-7.82,2.69,-0.7929999999999999,-0.934,-2.03,-5.15,-0.934,9.0,60.0,2340000000.0,-2.7017419189547227,-6.854860495407348,2.654821585229094,-0.920142142416842,-0.9188536400673268,-1.7587360124264246,-5.4462373434981215,0.5108880062058421,8.570703087377492,,,,,,,,,
47,47,2.39,-2.78,-7.91,4.58,-0.769,-1.31,-1.93,-6.07,-1.61,11.3,60.0,2390000000.0,-2.738053573574452,-7.273847901874029,3.613725137550355,-0.8102059493719942,-1.1775186783667209,-1.8763769152157876,-5.759466697919454,-0.3288452547518585,9.934514305612137,,,,,,,,,
48,48,2.44,0.737,-12.0,2.29,-1.13,0.527,-1.23,-2.8,-6.22,9.38,60.0,2440000000.0,-1.1256323490894082,-9.150565139647878,2.954396727343207,-1.0428143930272664,-0.05032052065764714,-1.43238173578454,-4.273337970296609,-2.6613580328940967,9.657427331951652,,,,,,,,,
49,49,2.49,-0.206,-14.8,2.5,-0.897,-0.145,0.0428,-4.09,-9.51,9.81,60.0,2490000000.0,-0.6989238994212752,-11.393910661317149,2.72806827386743,-0.9367534577930592,-0.11293205475935245,-0.4190819347217556,-4.181272871690111,-5.372973445283373,9.733667067194228,,,,,,,,,
50,50,2.54,-1.8,-13.1,3.75,0.117,0.93,0.0288,-5.65,-7.92,11.1,60.0,2540000000.0,-1.2098220383183724,-12.071385258097205,3.2370777213732445,-0.17028530529915342,0.5767588866288713,-0.11143260359936258,-4.918810376847565,-6.381429789003649,10.416414540733992,,,,,,,,,
51,51,2.59,-0.067,-8.28,-1.19,-0.913,0.914,-0.107,-4.39,-3.25,6.04,60.0,2590000000.0,-0.6795538065466806,-10.565856357985918,1.0320141574156223,-0.7105133319531239,0.7997764081146264,-0.1083878563347898,-4.653262371591081,-5.141587929013976,8.22954991138258,,,,,,,,,
52,52,2.64,-0.632,-9.91,-0.448,-0.4270000000000001,-0.00489,0.133,-4.97,-5.12,6.93,60.0,2640000000.0,-0.6574889034568664,-10.305420977713636,0.2948404535943301,-0.5042943639281315,0.2676505364770767,0.05742104835803233,-4.812315544800322,-5.133040472499178,7.5801735647280095,,,,,,,,,
53,53,2.69,-0.448,-10.3,0.0886,-0.5529999999999999,1.33,-0.214,-5.04,-5.71,7.41,60.0,2690000000.0,-0.5602862773989634,-10.30326842651466,0.19211506057811467,-0.5397213399437344,0.9701822333505492,-0.1290176044998197,-4.926649775288566,-5.361478811919587,7.495138914437053,,,,,,,,,
54,54,2.74,-0.426,-9.93,-0.6679999999999999,-0.487,0.987,-0.0909,-5.48,-5.54,6.5,60.0,2740000000.0,-0.4979775844531892,-10.155046637819812,-0.23629583209024296,-0.5013734355580858,0.9813038143654788,-0.10283468502611236,-5.204520677182506,-5.432161538180359,6.997874760402082,,,,,,,,,
55,55,2.79,-1.39,-9.93,-0.529,-0.518,0.557,0.00863,-6.76,-5.68,6.49,60.0,2790000000.0,-0.9118750472584742,-10.065682537172627,-0.38208754690924696,-0.5134670967161619,0.7007117023022875,-0.02626978434954487,-5.985621816583599,-5.530289328790747,6.744093079032852,,,,,,,,,
56,56,2.84,-1.05,-9.62,-0.321,-0.483,0.493,-0.083,-6.55,-5.5,6.68,60.0,2840000000.0,-0.975964858987494,-9.888705517073854,-0.3516607260845474,-0.4913062664665262,0.5633519602474788,-0.06523766984270263,-6.26903061525362,-5.5182967310714455,6.7120661171449765,,,,,,,,,
57,57,2.89,-0.915,-9.68,-0.405,-0.364,0.519,-0.278,-6.61,-5.72,6.53,60.0,2890000000.0,-0.9476772380277456,-9.80583034491474,-0.3782282493921957,-0.3987075623538701,0.534022006161367,-0.21138374691926076,-6.440252203427876,-5.598157980671671,6.6210890203026,,,,,,,,,
58,58,2.94,-1.07,-10.0,-0.541,-0.477,0.525,-0.304,-6.97,-6.2,6.31,60.0,2940000000.0,-1.004434896201981,-9.882933563597778,-0.4593025140388614,-0.4556550942512333,0.5280557379897375,-0.2750016853235057,-6.706270771890644,-5.836448072566188,6.465639921970904,,,,,,,,,
59,59,2.99,-1.21,-9.7,-0.168,-0.462,0.313,-0.404,-7.31,-6.12,6.63,60.0,2990000000.0,-1.099816907431525,-9.810292031332473,-0.3142089338228823,-0.4602701943579842,0.3858393806242107,-0.363610415707419,-7.0094400052989565,-5.9487160877901255,6.547769593396588,,,,,,,,,
60,60,3.04,-1.66,-9.64,-0.388,-0.354,0.17800000000000002,-0.32299999999999995,-7.87,-6.26,6.41,60.0,3040000000.0,-1.3597412620020433,-9.742670562598072,-0.3509632048669716,-0.3829724949871823,0.2483952064755901,-0.33571520042866165,-7.441579599972321,-6.071964295312362,6.478926987409926,,,,,,,,,
61,61,3.09,-1.05,-10.1,-0.278,-0.35,0.313,-0.33,-7.38,-6.89,6.49,60.0,3090000000.0,-1.2160216177123195,-9.88456337872495,-0.3146212838714973,-0.3589893025914723,0.29111835024644195,-0.3317894480807126,-7.410656785037362,-6.395853001890657,6.484459982194482,,,,,,,,,
62,62,3.14,-0.922,-10.1,0.124,-0.0559,0.3720000000000001,-0.371,-7.41,-6.99,6.8,60.0,3140000000.0,-1.0795958898813731,-9.97011169124451,-0.09615035217716028,-0.138531380160389,0.3446053886460493,-0.35872310325894746,-7.410326896594252,-6.63109635240508,6.642133280452155,,,,,,,,,
63,63,3.19,-2.27,-10.6,0.206,0.35,0.337,0.0496,-8.92,-7.56,6.74,60.0,3190000000.0,-1.6319421452116982,-10.220235457530661,0.054346378684476115,0.21681145408141508,0.3395759535602449,-0.07824666418467435,-8.168425863243115,-6.998881560071318,6.691036500880363,,,,,,,,,
64,64,3.24,-3.18,-12.3,0.613,0.769,-0.633,0.523,-9.79,-9.01,7.06,60.0,3240000000.0,-2.350239404463708,-11.046093416453765,0.3326036746299032,0.6184565706538937,-0.30358850619797884,0.3347486377625,-8.98271710523582,-7.79515332057959,6.875405025861236,,,,,,,,,
65,65,3.29,-3.15,-11.6,1.03,1.92,-1.72,0.858,-9.31,-7.62,7.57,60.0,3290000000.0,-2.7213275300036877,-11.26604544672817,0.6799667074322443,1.5651595671204288,-1.2402614036586228,0.6941690860652935,-9.14706601582779,-7.725803989669474,7.222489500764414,,,,,,,,,
66,66,3.34,-0.453,-11.5,0.5529999999999999,2.51,-1.6,0.7190000000000001,-5.83,-6.54,7.12,60.0,3340000000.0,-1.6688259286726603,-11.358946930612918,0.6167264091411685,2.2524076982905443,-1.4781565424398029,0.7112253857390144,-7.481364849139715,-7.256302972404458,7.1712761364159014,,,,,,,,,
67,67,3.39,-0.508,-11.5,-1.04,1.58,-0.682,0.621,-5.31,-5.72,5.29,60.0,3390000000.0,-1.1302039173228324,-11.41495797749916,-0.20846509162516813,1.7633188605097203,-0.9516582324089229,0.6492497177213943,-6.390990115148147,-6.648027161261704,6.231215214389395,,,,,,,,,
68,68,3.44,-1.88,-10.8,-0.606,1.28,-1.03,0.8170000000000001,-6.27,-4.38,5.42,60.0,3440000000.0,-1.4781085146017938,-11.170763153684364,-0.40647149660998416,1.4117674290714617,-1.0034656220567588,0.7644770790849483,-6.330233590516522,-5.750036447207763,5.8258565217152265,,,,,,,,,
69,69,3.49,-2.06,-9.56,-0.0287,0.545,-2.27,0.603,-5.71,-2.75,6.01,60.0,3490000000.0,-1.7481055297167272,-10.531142141447539,-0.21830896478807132,0.7813072269017903,-1.8410247557438315,0.6535587407387601,-6.018776500694049,-4.562217776706336,5.917871881014955,,,,,,,,,
70,70,3.54,-1.43,-8.44,0.536,-0.13699999999999998,-2.05,0.703,-4.16,-1.42,6.83,60.0,3540000000.0,-1.600504871728099,-9.700766137986296,0.1574014534259732,0.11335853824723795,-1.9792200469947565,0.6875198630043723,-5.085371390877908,-3.3181045605476536,6.3736560664590005,,,,,,,,,
71,71,3.59,-0.917,-8.97,0.584,-0.273,-1.4,0.6709999999999999,-2.83,-1.92,7.13,60.0,3590000000.0,-1.2833593229103015,-9.41058484920667,0.36988402988078894,-0.16766689009274988,-1.596181831452774,0.6761724001094672,-3.9528118398018064,-2.7645463686620153,6.751596048227148,,,,,,,,,
72,72,3.64,-0.764,-9.27,0.728,-0.368,-1.7,0.79,-1.9,-2.27,7.5,60.0,3640000000.0,-1.042377138685216,-9.35475991058744,0.5482564200394524,-0.3133830898714479,-1.6648368147450725,0.7543603976482933,-2.9219698181780536,-2.568738269954411,7.12556841786891,,,,,,,,,
73,73,3.69,-0.747,-9.43,1.65,-0.448,-1.11,0.77,-1.13,-2.52,8.6,60.0,3690000000.0,-0.9053224450068624,-9.384637270132606,1.0970189884698955,-0.4112993380839065,-1.29792325518803,0.7651032005320071,-2.022112491897761,-2.5494410878386686,7.86233205199615,,,,,,,,,
74,74,3.74,-1.61,-9.66,2.39,-0.204,-1.37,0.569,-1.32,-2.85,9.44,60.0,3740000000.0,-1.232292101399286,-9.493981549514386,1.7410342263589738,-0.2605161139617125,-1.345587607532457,0.6304002529385319,-1.6695390197234996,-2.6684427668029005,8.650681796409147,,,,,,,,,
75,75,3.8,-1.02,-8.87,1.9,-0.262,-1.49,0.403,-0.0514,-2.1,8.92,60.0,3800000000.0,-1.1337887791565675,-9.246203416164834,1.8202127726439,-0.2615954434578637,-1.4410875246640518,0.4741994079222408,-0.8569727394980584,-2.4433764862156666,8.785258310974278,,,,,,,,,
76,76,3.85,-0.321,-8.72,1.81,-0.454,-1.26,0.32,1.27,-2.07,8.84,60.0,3850000000.0,-0.7566556388057095,-9.037252349832023,1.8151259094476653,-0.4015446518360661,-1.3213343437064529,0.3682800946346941,0.21110997080414395,-2.2955437353297823,8.812612437283072,,,,,,,,,
77,77,3.9,-1.16,-8.84,2.63,-0.454,-0.863,0.375,0.91,-2.37,9.71,60.0,3900000000.0,-0.9438069857757316,-8.95892507828619,2.221002993272097,-0.43969907080805937,-1.0182378398226355,0.3728959860847703,0.5620652874521512,-2.3250235123032708,9.261030924100561,,,,,,,,,
78,78,3.95,-2.98,-8.89,3.29,-0.518,-0.735,0.487,-0.486,-2.62,10.4,60.0,3950000000.0,-1.8885984272132943,-8.931555616718043,2.7534549589449804,-0.4966527854401392,-0.8309326742686858,0.4512738293420935,0.03576779262579355,-2.441814907899868,9.830165841940948,,,,,,,,,
79,79,4.0,-2.61,-8.25,3.24,-0.573,-0.8059999999999999,0.528,0.336,-2.2,10.4,60.0,4000000000.0,-2.2233279550872083,-8.660915326723245,2.99579602836812,-0.5521854327882808,-0.8144446937355957,0.5039769021798788,0.18653269048018645,-2.3460720024972432,10.114907908345351,,,,,,,,,
80,80,4.05,-0.529,-8.09,0.836,-1.35,-0.21600000000000005,-0.229,2.75,-2.37,8.09,60.0,4050000000.0,-1.4371615456927596,-8.434209472497491,1.9200328025590212,-1.1324914539700988,-0.4186932393499441,0.0004963259134592722,1.4738059523471638,-2.3555458828138907,9.103075261106156,,,,,,,,,
81,81,4.1,-1.15,-13.9,3.39,-0.5820000000000001,-0.52,-0.195,2.01,-8.59,11.0,60.0,4100000000.0,-1.3039188772573989,-10.604631069631788,2.652202305946428,-0.7320807583415503,-0.4856873845283281,-0.1337897595645803,1.7430616771524168,-4.823982954275927,10.050955664404082,,,,,,,,,
82,82,4.15,-2.07,-13.1,4.57,0.424,0.22,0.16699999999999998,1.29,-7.84,12.1,60.0,4150000000.0,-1.659379687360571,-11.595522286187235,3.6074297512765297,0.10881715159341644,-0.019016339008136263,0.07282220655082962,1.5155517612215053,-6.018128959416196,11.074849387209477,,,,,,,,,
83,83,4.2,0.0335,-7.69,-1.01,-0.983,0.381,-0.528,3.14,-2.44,6.67,60.0,4200000000.0,-0.8738852795932524,-10.044670612895294,1.307554621032272,-0.6853373585633452,0.2455144620697644,-0.3398815329015238,2.3312863369428958,-4.601423399240535,8.87377611546126,,,,,,,,,
84,84,4.25,-1.98,-9.21,-0.6729999999999999,-0.695,-0.3670000000000001,-0.31,1.07,-4.18,7.17,60.0,4250000000.0,-1.3871213638049429,-9.713229596404537,0.32106895231053056,-0.6923656642855239,-0.15954134238711445,-0.31935596092810203,1.6979175775461943,-4.434567164486261,8.02241080506049,,,,,,,,,
85,85,4.3,-1.38,-10.3,0.168,-0.444,-0.265,-0.275,1.7,-5.44,8.1,60.0,4300000000.0,-1.383817056222428,-9.94623151131015,0.2448275146426446,-0.5117120528632995,-0.2292811400563175,-0.2888879316680263,1.6989633127957575,-4.832652982089408,8.061181789206856,,,,,,,,,
86,86,4.34,-0.6779999999999999,-10.1,-0.496,-0.397,0.0281,-0.0971,2.44,-5.32,7.49,60.0,4340000000.0,-1.0563186666968294,-10.007291901088108,-0.12416797708778035,-0.4282740120614441,-0.05907499936627636,-0.15714912892297048,2.071083052187932,-5.025610668096445,7.775766015685894,,,,,,,,,
87,87,4.39,-1.35,-9.9,-0.227,-0.4370000000000001,0.4970000000000001,0.13,1.64,-5.24,7.87,60.0,4390000000.0,-1.1925865097760355,-9.96468699291424,-0.17538712300438886,-0.4346210344572388,0.3086573869374028,0.04009311111290925,1.8546099561280212,-5.1104947632741125,7.822854040185912,,,,,,,,,
88,88,4.44,-0.7659999999999999,-9.34,-0.848,-0.528,-0.129,-0.0506,2.14,-4.86,7.37,60.0,4440000000.0,-0.9946508020324818,-9.716628839661869,-0.5104058870303252,-0.5025420463108387,0.01923457452274196,-0.02220383090395712,1.9979217535344007,-5.011315235516755,7.596565896053673,,,,,,,,,
89,89,4.49,-0.8140000000000001,-10.0,-0.6940000000000001,-0.564,-0.151,-0.205,2.14,-5.67,7.59,60.0,4490000000.0,-0.9108290233765358,-9.829153263390305,-0.6018514685020435,-0.5472446966044218,-0.09334153995163652,-0.14776620416884134,2.0692679580010034,-5.272111451035941,7.593285038655015,,,,,,,,,
90,90,4.54,-0.7659999999999999,-9.91,-0.615,-0.488,-0.0635,-0.278,2.18,-5.71,7.74,60.0,4540000000.0,-0.8436284951361136,-9.8612567959679,-0.6084005670733426,-0.5041519136872123,-0.07360733181319863,-0.2372235728076137,2.124873302489949,-5.445486757810656,7.6665973936080185,,,,,,,,,
91,91,4.59,-0.984,-9.98,-0.273,-0.422,0.389,-0.267,1.86,-5.89,8.17,60.0,4590000000.0,-0.9087607394408128,-9.908408591795826,-0.4413423850024461,-0.44439710855277625,0.23231488195001895,-0.25767694244562195,1.9918642719488135,-5.621484942852092,7.918144293757491,,,,,,,,,
92,92,4.64,-0.8909999999999999,-9.86,0.101,-0.29600000000000004,0.345,-0.29100000000000004,1.73,-5.83,8.65,60.0,4640000000.0,-0.9005197622731075,-9.889185790431618,-0.17120946664808478,-0.33645757677292565,0.3068335463620478,-0.2805664993236541,1.8603662615340348,-5.704043268957799,8.283847426927595,,,,,,,,,
93,93,4.69,-1.32,-9.65,-0.105,-0.34700000000000003,0.35600000000000004,-0.26,1.11,-5.68,8.53,60.0,4690000000.0,-1.0951581789319524,-9.79420687258799,-0.13823148500306892,-0.3441258162428357,0.3393473247834627,-0.2664393997224083,1.48356160985069,-5.694523635388969,8.40684806176637,,,,,,,,,
94,94,4.74,-1.4,-9.78,-0.333,-0.393,0.359,-0.297,0.8140000000000001,-5.88,8.39,60.0,4740000000.0,-1.2366044545560733,-9.788565330956505,-0.23524287417848103,-0.3796754129870309,0.3523436365827724,-0.2874314173242165,1.1473338995036366,-5.767960218121765,8.39842937133256,,,,,,,,,
95,95,4.79,-1.2,-10.2,-0.14400000000000002,-0.287,0.241,-0.327,0.81,-6.34,8.66,60.0,4790000000.0,-1.219620047986382,-9.951942675067473,-0.1897961119906748,-0.31226614208844616,0.27871209082927856,-0.3146110033777314,0.97793797841245,-5.994450704616918,8.529134360978956,,,,,,,,,
96,96,4.84,-1.76,-10.7,0.00239,0.0101,0.17800000000000002,-0.197,0.0895,-6.89,8.85,60.0,4840000000.0,-1.470355777078731,-10.2489901863283,-0.09407098261032017,-0.07778683430372674,0.21211119022197555,-0.2338242050939853,0.5317990918773818,-6.349029735084894,8.689468931281807,,,,,,,,,
97,97,4.89,-2.18,-12.2,-0.441,0.383,-0.129,0.077,-0.389,-8.27,8.38,60.0,4890000000.0,-1.7996299865417664,-11.023720519674974,-0.2668713276356626,0.2573754572111037,-0.01346562518876937,-0.020319592923182028,0.06940971625248983,-7.109608791385423,8.534829466204068,,,,,,,,,
98,98,4.94,-2.33,-11.8,0.364,1.0,-0.633,0.594,-0.324,-7.63,9.03,60.0,4940000000.0,-2.045721083620637,-11.331974974835058,0.047356574242152734,0.7975379191293399,-0.42316369946621146,0.4016554675574796,-0.1281452937285063,-7.3156497980097175,8.782262684054379,,,,,,,,,
99,99,4.99,-0.867,-9.96,1.28,1.91,-0.6609999999999999,0.7979999999999999,1.59,-5.35,9.58,60.0,4990000000.0,-1.4987957240143532,-10.787174689102152,0.6613184647573378,1.6067089116570288,-0.5804448467339456,0.6739038308728247,0.7346402512141239,-6.537380705580647,9.180886562452288,,,,,,,,,
100,100,5.04,0.204,-9.57,0.271,2.26,-0.305,0.5820000000000001,3.02,-4.2,7.98,60.0,5040000000.0,-0.7087002877503341,-10.303844223699976,0.4669064682323442,2.081892934194116,-0.3982931825467708,0.6107752591360447,1.88225873766066,-5.611930392701613,8.580811716195223,,,,,,,,,
101,101,5.09,-0.716,-10.9,-0.8809999999999999,1.34,-0.737,0.433,2.41,-4.83,6.18,60.0,5090000000.0,-0.712087356126299,-10.540572767902676,-0.2044662860909855,1.5422626463514904,-0.6222799832428755,0.4886617379216901,2.147269851380757,-5.302336950604829,7.381142328241018,,,,,,,,,
102,102,5.14,-1.56,-11.3,0.273,0.568,-0.7759999999999999,0.515,1.95,-4.93,6.9,60.0,5140000000.0,-1.1055179110181068,-10.842135329935427,0.03335278268030384,0.8336137002950663,-0.7239350408684435,0.5067534350658126,2.048208653007014,-5.154915746452391,7.140718823613298,,,,,,,,,
103,103,5.19,-1.19,-9.7,0.804,0.393,-1.36,0.501,2.82,-3.33,7.08,60.0,5190000000.0,-1.1447175386472164,-10.388602439962275,0.4172010520635356,0.51312472667927,-1.1445647888017914,0.5028014015604397,2.4357721203077576,-4.432368162615836,7.1103780018865255,,,,,,,,,
104,104,5.24,-0.826,-8.91,0.879,-0.0186,-1.17,0.423,3.72,-2.54,6.78,60.0,5240000000.0,-0.9968329219864596,-9.801461164006236,0.6472164488490166,0.12636436405475074,-1.1613850648274586,0.4479859613383606,3.080661268049921,-3.683113838582088,6.945290463949544,,,,,,,,,
105,105,5.29,-0.342,-8.93,1.41,-0.0785,-0.927,0.262,4.62,-2.64,7.06,60.0,5290000000.0,-0.6929911334433685,-9.455411019648668,1.0271479129764884,-0.022647733294174882,-1.0063862193138942,0.3202325202675909,3.853657060085202,-3.2701088667684,7.0026100111229725,,,,,,,,,
106,106,5.34,0.302,-8.66,1.63,-0.0877,-0.609,0.155,5.55,-2.42,7.07,60.0,5340000000.0,-0.23131629282365285,-9.139559598225695,1.327419836696578,-0.06996477109238282,-0.7435947423261525,0.20673458679774756,4.705494392641657,-2.933521258233585,7.036284416459004,,,,,,,,,
107,107,5.39,-0.0431,-9.0,2.06,-0.1,-0.325,0.07400000000000001,5.38,-2.81,7.4,60.0,5390000000.0,-0.14398412920677447,-9.084141596805301,1.692307417261492,-0.0918114823995433,-0.4667780438466818,0.1155594278304362,5.044204848368559,-2.8846148775001885,7.218030669929522,,,,,,,,,
108,108,5.44,-1.07,-9.36,2.99,0.0058,-0.182,0.0923,4.41,-3.19,8.28,60.0,5440000000.0,-0.57365455072871,-9.193682628365798,2.3386693732858665,-0.020811864737336053,-0.27845432951384075,0.09958256530865016,4.725731842201578,-3.005527481246649,7.748689395142231,,,,,,,,,
109,109,5.49,-1.47,-8.94,2.41,-0.155,-0.63,0.0386,4.14,-2.77,7.58,60.0,5490000000.0,-0.9895579165810992,-9.092947116855587,2.3741981719856007,-0.1184162259875221,-0.5109314677517577,0.0576937469906868,4.431600097997304,-2.9122739600912064,7.664396412432607,,,,,,,,,
110,110,5.54,-1.3,-8.83,2.84,-0.304,-0.86,0.185,4.49,-2.71,7.85,60.0,5540000000.0,-1.1336026970261204,-8.988532887317009,2.6062072987923943,-0.2534042006725692,-0.7417704871602323,0.14514019509781878,4.460926135209121,-2.8321866860634084,7.757141216394936,,,,,,,,,
111,111,5.59,-2.38,-8.87,3.18,-0.493,-0.0354,0.462,3.66,-2.91,8.1,60.0,5590000000.0,-1.711929797328689,-8.941464379358411,2.8920051973564225,-0.42767888425667616,-0.2746477047508293,0.36279065920981335,4.058732323620888,-2.8629957147819733,7.928465611613164,,,,,,,,,
112,112,5.64,-1.93,-8.65,3.44,-0.449,-0.229,0.355,4.25,-2.92,8.45,60.0,5640000000.0,-1.813114119340853,-8.825726051540588,3.1649535301291287,-0.4431872148090781,-0.24446088038167485,0.35743926141396953,4.15477948784565,-2.8855657222120352,8.189072706595901,,,,,,,,,
113,113,5.69,-0.541,-9.48,1.83,-0.978,-0.0648,-0.208,5.74,-3.92,6.9,60.0,5690000000.0,-1.2228545001782345,-9.085532827267091,2.5000324599670503,-0.8321937262886514,-0.12565114666359045,-0.030959998727776494,4.9508152622234975,-3.295134226064776,7.544931881417949,,,,,,,,,
114,114,5.74,-0.493,-13.7,3.12,-0.355,-0.111,0.00863,5.76,-8.27,8.4,60.0,5740000000.0,-0.8842027744769003,-10.917900797753674,2.8088292892488385,-0.4850975438337676,-0.1159623447586095,-0.0037656965828878897,5.357156379824533,-5.26485662685726,7.972203419862697,,,,,,,,,
115,115,5.79,-0.843,-10.9,2.71,-0.0535,0.927,0.0129,5.37,-5.52,8.07,60.0,5790000000.0,-0.8650847277061385,-10.910792382508564,2.759603865265624,-0.17116664309849727,0.5737486135305927,0.007681942067780572,5.363605887278489,-5.3658767460961085,8.021071553980457,,,,,,,,,
116,116,5.84,-0.335,-8.07,-0.51,-0.711,0.202,-0.339,5.59,-2.77,5.23,60.0,5840000000.0,-0.619125971389968,-9.782736303223023,1.1310613612906155,-0.5638249945793188,0.32791127115871643,-0.23045327913928346,5.477292253900188,-4.33807893688644,6.626392072029206,,,,,,,,,
117,117,5.89,-1.84,-10.1,0.11,-0.463,0.221,-0.313,3.96,-4.83,6.01,60.0,5890000000.0,-1.1856102614240258,-9.908719333859748,0.6224854296573489,-0.4904879656846127,0.2572108512869071,-0.2871544754546533,4.715367304623624,-4.532847548147703,6.318385256106301,,,,,,,,,
118,118,5.94,-1.14,-10.1,-0.199,-0.491,0.243,-0.191,4.5,-4.84,5.87,60.0,5940000000.0,-1.1644471411079187,-9.984675509593373,0.21331538974496705,-0.4908604014141952,0.2478132162283759,-0.2211061312205293,4.607218247410064,-4.654459936752769,6.09433013301532,,,,,,,,,
119,119,5.99,-1.07,-10.0,-0.184,-0.404,0.974,-0.126,4.38,-4.84,6.12,60.0,5990000000.0,-1.1206237905849061,-9.990760742296231,0.015418326731734294,-0.4276808026137094,0.7280404995081841,-0.15577789447737622,4.493118166595182,-4.727921755092658,6.107157133947327,,,,,,,,,
120,120,6.04,-1.54,-9.82,-0.23,-0.422,0.723,0.0215,3.55,-4.71,6.42,60.0,6040000000.0,-1.315213896177824,-9.922952894669383,-0.10682100279180096,-0.4235487533175872,0.7247072107120097,-0.03400601283738912,4.0195209978259925,-4.720825924635218,6.263482626614655,,,,,,,,,
121,121,6.09,-1.02,-9.5,-0.654,-0.39,0.373,-0.0616,3.9,-4.48,6.19,60.0,6090000000.0,-1.1782349477374647,-9.755001679449897,-0.3793629583098917,-0.3991464021034112,0.492123240093914,-0.05296027498136025,3.9595022640595228,-4.625474580743085,6.22676388596849,,,,,,,,,
122,122,6.14,-1.15,-9.83,-0.56,-0.369,0.494,-0.195,3.57,-4.87,6.46,60.0,6140000000.0,-1.165133950405118,-9.784782883032854,-0.4693356635818016,-0.3772188190410133,0.4933643333227705,-0.15052711314760425,3.763909391065501,-4.722290645341509,6.343310406480166,,,,,,,,,
123,123,6.19,-1.29,-9.92,-0.591,-0.35,0.332,-0.234,3.22,-5.0,6.59,60.0,6190000000.0,-1.2230716493429077,-9.838476550136184,-0.5299349242902255,-0.35742067519283816,0.3866540961603359,-0.20786449391173786,3.490779331412453,-4.832245428305322,6.4665795964673265,,,,,,,,,
124,124,6.24,-1.04,-9.88,-0.393,-0.289,0.3670000000000001,-0.311,3.27,-4.97,6.91,60.0,6240000000.0,-1.1381265774948603,-9.85496522576205,-0.4617296176373116,-0.3076535643826223,0.3736568519435798,-0.2787080886425968,3.3799125559332115,-4.886787166671162,6.6881536830286645,,,,,,,,,
125,125,6.29,-0.943,-9.8,-0.247,-0.34700000000000003,0.498,-0.224,3.12,-4.9,7.21,60.0,6290000000.0,-1.0475880578999777,-9.833139049505203,-0.35477589036146884,-0.336272964700838,0.4558849693586277,-0.2411292012963224,3.249394554103988,-4.892018624246298,6.948916760976363,,,,,,,,,
126,126,6.34,-1.27,-9.48,-0.35200000000000004,-0.3670000000000001,0.369,-0.238,2.89,-4.94,7.35,60.0,6340000000.0,-1.1507869579614405,-9.692910172636584,-0.35339325847525305,-0.35862288369630235,0.3984279336761901,-0.23897976206879906,3.0689206845132766,-4.911016140752197,7.149335282686686,,,,,,,,,
127,127,6.39,-1.67,-10.0,-0.429,-0.43,0.4370000000000001,-0.366,1.92,-5.02,7.2,60.0,6390000000.0,-1.3917012474383406,-9.814853089536454,-0.39105188064291857,-0.4105404281744042,0.42393564424090097,-0.3262297429797097,2.4919775236111543,-4.954166629894581,7.174652002375884,,,,,,,,,
128,128,6.44,-1.39,-10.1,-0.261,-0.28300000000000003,0.199,-0.392,1.94,-4.91,7.39,60.0,6440000000.0,-1.3909118637656843,-9.928082800930614,-0.3262749190727089,-0.3177714017977893,0.27518571005426123,-0.3714072124861324,2.214795976961777,-4.936679466064461,7.282259866882249,,,,,,,,,
129,129,6.49,-1.72,-9.97,-0.136,-0.153,0.21600000000000005,-0.287,1.45,-4.73,7.52,60.0,6490000000.0,-1.5436084286488103,-9.944727891811516,-0.2315017310087027,-0.1979217032408556,0.23604620546851,-0.3134280435755099,1.830745301968472,-4.854847891593663,7.401056986535917,,,,,,,,,
130,130,6.54,-1.54,-10.6,-0.302,0.0327,0.343,-0.187,1.44,-5.29,7.4,60.0,6540000000.0,-1.5419341038232088,-10.204931362044347,-0.2666158946979485,-0.03017450531081445,0.3067747431286395,-0.2265848420790856,1.6345282860939825,-5.027139716262161,7.400528865200112,,,,,,,,,
131,131,6.59,-2.43,-12.0,-0.613,0.407,-0.382,0.321,0.476,-6.68,7.07,60.0,6590000000.0,-1.9539957833846824,-10.917738776171882,-0.4391448075181729,0.28781291134930226,-0.1487119734544795,0.14955025186359006,1.0527605896036911,-5.681564465894391,7.235365922828593,,,,,,,,,
132,132,6.64,-1.38,-11.6,0.6920000000000001,1.28,-0.836,0.8170000000000001,1.91,-6.03,8.08,60.0,6640000000.0,-1.687662336997278,-11.188659408591104,0.1242620859958099,1.0094995432267877,-0.6032155415912084,0.6080203177999115,1.4832327571075972,-5.819522283865657,7.6574237941691985,,,,,,,,,
133,133,6.69,0.163,-10.4,0.903,2.18,-0.409,0.6629999999999999,3.95,-4.38,7.69,60.0,6690000000.0,-0.8289569437668269,-10.875488907088805,0.5121402032580138,1.8608859545785383,-0.4747808158874666,0.6457857585275126,2.7219470424875416,-5.2495654384963695,7.673701931475255,,,,,,,,,
134,134,6.74,0.354,-10.1,-0.192,1.95,-0.304,0.262,4.41,-3.54,5.82,60.0,6740000000.0,-0.28006615600235363,-10.567548609462275,0.16141812710436734,1.9257048302684399,-0.3618434609782789,0.3821639766039045,3.5696212969355106,-4.572689064713766,6.747419757143412,,,,,,,,,
135,135,6.79,-1.02,-10.9,-0.414,1.11,-0.759,0.256,3.22,-3.87,4.95,60.0,6790000000.0,-0.6233946781937361,-10.69956224898958,-0.12518934165134654,1.3323860046683502,-0.6244830705769409,0.2955021661870506,3.394055137451519,-4.294470002630002,5.849261221826876,,,,,,,,,
136,136,6.84,-1.89,-10.0,0.29,0.402,-1.08,0.429,2.71,-2.85,5.16,60.0,6840000000.0,-1.211098218397081,-10.421771669186793,0.08161047457173196,0.6556515844462211,-0.9257164307772744,0.3872015921583181,3.0505493569376068,-3.722554100415112,5.504841996244457,,,,,,,,,
137,137,6.89,-1.11,-8.95,0.747,-0.14300000000000002,-1.31,0.481,3.9,-1.83,5.26,60.0,6890000000.0,-1.164188757256208,-9.837342822582238,0.41303138594386696,0.07473675492115163,-1.1798431057851833,0.451631561609359,3.4771103740385825,-2.9732261892413137,5.382496228680061,,,,,,,,,
138,138,6.94,-0.575,-9.25,0.706,-0.275,-1.03,0.505,4.86,-2.26,4.93,60.0,6940000000.0,-0.8908057835367955,-9.604113680409704,0.5589548106850664,-0.179651107176244,-1.0807518454855614,0.4882902469731186,4.171543653867042,-2.6908351549631,5.1563868519334575,,,,,,,,,
139,139,6.99,-0.14400000000000002,-9.29,1.15,-0.235,-0.92,0.513,5.22,-2.44,4.74,60.0,6990000000.0,-0.5442886768479661,-9.47938163243556,0.8533458795160241,-0.21991020469797185,-0.9744466659045196,0.5052633417348137,4.6980374170287185,-2.5915208241011967,4.948321056807922,,,,,,,,,
140,140,7.04,0.0311,-9.51,1.55,-0.0492,-0.458,0.436,6.12,-2.86,5.39,60.0,7040000000.0,-0.27730893187435485,-9.49154003245192,1.2003392212735091,-0.09574080279043004,-0.6329205040069767,0.4576864640914628,5.412091486811407,-2.6978210170415573,5.169024957000374,,,,,,,,,
141,141,7.09,-0.735,-9.65,2.08,0.0834,-0.384,0.294,5.53,-3.08,5.79,60.0,7090000000.0,-0.4896771162416974,-9.554463068043956,1.6384855246789891,0.03456076070621873,-0.4683093843501609,0.34525051297013376,5.4713006469560215,-2.8491389256057778,5.479321947686943,,,,,,,,,
142,142,7.14,-1.29,-9.28,2.47,0.124,-0.454,0.0691,5.1,-2.71,5.97,60.0,7140000000.0,-0.8610260809790546,-9.445475870557821,2.052650901304361,0.09961613635125184,-0.4588465863841855,0.15556320003577526,5.284847901516535,-2.7940490054582443,5.724510331657271,,,,,,,,,
143,143,7.19,-1.62,-8.63,2.52,0.0107,-0.585,0.0337,4.84,-2.02,5.8,60.0,7190000000.0,-1.2131891891638833,-9.121656963185352,2.2854307345629703,0.034941248699011086,-0.5422718208499526,0.0718555776420663,5.061462719005733,-2.4875761010780484,5.762232101319624,,,,,,,,,
144,144,7.24,-1.58,-8.12,2.7,-0.241,-0.315,0.1,4.98,-1.54,5.83,60.0,7240000000.0,-1.3833890423131243,-8.723906940568687,2.4919217276775942,-0.16577000423009425,-0.39197697093420575,0.09118793402884677,5.020555329598876,-2.1123977825143765,5.796095221715075,,,,,,,,,
145,145,7.29,-2.03,-8.83,3.42,-0.174,-0.211,-0.00848,5.01,-1.58,5.85,60.0,7290000000.0,-1.683415838270771,-8.766035616524693,2.954184162037162,-0.17175624871303827,-0.27229690246584204,0.022726201169479918,5.015254969856078,-1.9016030183984016,5.823031025511527,,,,,,,,,
146,146,7.34,-2.0,-8.31,3.22,-0.31,-0.225,0.0386,4.64,-1.79,6.3,60.0,7340000000.0,-1.830310558763964,-8.584947683402907,3.0865832097648225,-0.2723105423368253,-0.2410194583363632,0.033629887333130534,4.826816498589426,-1.8574154904858644,6.061369276588483,,,,,,,,,
147,147,7.39,-0.225,-10.2,1.18,-1.0,0.622,-0.37,6.36,-3.72,4.45,60.0,7390000000.0,-1.0854481328550771,-9.22627197885053,2.136941596623468,-0.8016096784616915,0.3296952698070159,-0.2436227920818962,5.596721498525096,-2.594877427600184,5.256178902278175,,,,,,,,,
148,148,7.44,-1.71,-15.6,3.85,0.183,-0.202,0.0282,4.71,-9.07,7.44,60.0,7440000000.0,-1.3752395648086797,-11.757228603548938,2.9901912224128937,-0.08543460424779759,-0.021914800884891058,-0.056908182854558974,5.151444579084991,-5.1586033216461615,6.347419495346888,,,,,,,,,
149,149,7.49,-0.596,-8.52,-0.278,-0.6779999999999999,1.25,-0.00848,5.83,-2.06,3.35,60.0,7490000000.0,-1.01367322765177,-10.471751171239703,1.3623523321349646,-0.5164485960438624,0.8192024189460685,-0.0236429474680762,5.492188597385441,-3.9317585780357223,4.849629291948421,,,,,,,,,
150,150,7.54,0.0886,-8.14,-0.429,-0.541,0.268,-0.45,6.2,-1.71,3.75,60.0,7540000000.0,-0.5022195998831669,-9.545831547391712,0.470105587488605,-0.5343065453528686,0.4546922801770236,-0.316506866147155,5.847623770722241,-3.0520871735492543,4.300152006234868,,,,,,,,,
151,151,7.59,-2.35,-10.7,0.723,-0.339,0.6759999999999999,-0.132,3.56,-4.29,5.15,60.0,7590000000.0,-1.3595877319981935,-10.00414254275901,0.5960686404020115,-0.3922465062619071,0.601043068054462,-0.1897694162974029,4.6988683424846815,-3.5422198596932075,4.724815322049227,,,,,,,,,
152,152,7.64,-0.943,-10.1,-0.28,-0.419,-0.0635,-0.153,4.83,-3.6,4.32,60.0,7640000000.0,-1.166291467943906,-10.04220692463861,0.15971149067091828,-0.4117061821560361,0.1615807556608947,-0.1645125654503795,4.764717506102153,-3.5650969871445297,4.522531941932363,,,,,,,,,
153,153,7.69,-1.64,-10.0,-0.225,-0.433,0.951,0.0544,4.0,-3.63,4.6,60.0,7690000000.0,-1.3860917255758416,-10.025446892083984,-0.031907748926117835,-0.4271946551407087,0.6836236619637893,-0.01414189985698161,4.380706212167887,-3.590794390403858,4.561242156534635,,,,,,,,,
154,154,7.74,-1.09,-9.75,-0.244,-0.361,0.334,0.0624,4.37,-3.44,4.9,60.0,7740000000.0,-1.2487054895490677,-9.91606913196699,-0.13754784030829453,-0.3790466812269386,0.4524175390749948,0.038434598486710506,4.375329912682752,-3.5310896743069042,4.7305171968656765,,,,,,,,,
155,155,7.79,-1.26,-9.52,-0.522,-0.328,0.16899999999999998,-0.0451,4.14,-3.26,4.75,60.0,7790000000.0,-1.253946126180533,-9.758793425898553,-0.3290379212179261,-0.3419168874728481,0.2649935287931897,-0.018945173526607108,4.257156345554149,-3.423755849029709,4.740252621215251,,,,,,,,,
156,156,7.84,-1.38,-9.88,-0.297,-0.425,0.0464,-0.116,3.94,-3.65,5.1,60.0,7840000000.0,-1.3124349898059449,-9.806923633517377,-0.3130802904164398,-0.4023490203474171,0.12043763434178326,-0.08561196479020156,4.09789283230833,-3.513333807372047,4.920015894422277,,,,,,,,,
157,157,7.89,-1.47,-9.68,-0.294,-0.445,-0.08800000000000001,-0.227,3.78,-3.48,5.2,60.0,7890000000.0,-1.385545003295661,-9.756523393908337,-0.30357667294755625,-0.43337203801163376,-0.017402166706725425,-0.18273116194933425,3.9382594410498655,-3.500135802349,5.05992195430789,,,,,,,,,
158,158,7.94,-1.33,-9.88,-0.223,-0.359,0.0428,-0.239,3.85,-3.69,5.35,60.0,7940000000.0,-1.359772199674327,-9.805555013093672,-0.2634425972140597,-0.3792760820444297,0.022409525528472654,-0.2213821250549762,3.8939389455581384,-3.5753096579890085,5.204871935139459,,,,,,,,,
159,159,7.99,-1.0,-9.71,-0.254,-0.359,0.174,-0.278,4.04,-3.51,5.43,60.0,7990000000.0,-1.1928382746677362,-9.76761089599498,-0.25873937982497897,-0.3645278759446468,0.12265629845724292,-0.26027284411529544,3.967285088955125,-3.5494512913269864,5.317366813731042,,,,,,,,,
160,160,8.04,-1.82,-10.0,-0.28300000000000003,-0.363,0.331,-0.333,3.05,-3.78,5.53,60.0,8040000000.0,-1.4838406847328405,-9.8598907524833,-0.27082324088166176,-0.3634165495311444,0.2604339822215601,-0.31022900548908544,3.5066602838257146,-3.640733524545492,5.423618277005172,,,,,,,,,
161,161,8.09,-1.35,-9.75,-0.584,-0.24,0.529,-0.335,3.27,-3.5,5.4,60.0,8090000000.0,-1.4217387578240002,-9.816254012662943,-0.426812061548674,-0.2736471084573328,0.4380366713499578,-0.3272441647919439,3.387818713685097,-3.5850122321671303,5.411816432115427,,,,,,,,,
162,162,8.14,-1.63,-10.1,-0.0215,-0.205,0.398,-0.266,2.74,-3.79,6.11,60.0,8140000000.0,-1.5183717545331832,-9.928927428676488,-0.2249319722344558,-0.22371529239519167,0.4115604230435225,-0.285175655020354,3.0625094369525216,-3.6661739969754312,5.760694083868767,,,,,,,,,
163,163,8.19,-2.18,-11.0,-0.443,0.0363,0.5670000000000001,-0.208,1.95,-4.66,5.8,60.0,8190000000.0,-1.825366600591388,-10.354241789233493,-0.3335485048162316,-0.03458809247412095,0.5143525920369898,-0.23216383312887065,2.503850629382257,-4.059664183227789,5.780335078402916,,,,,,,,,
164,164,8.24,-3.08,-13.0,-0.96,0.112,0.0299,0.0147,0.8740000000000001,-6.59,5.34,60.0,8240000000.0,-2.407515152539492,-11.404851235995915,-0.6455749449163583,0.07203562142676344,0.19398410706323727,-0.06259349016534974,1.685403243033211,-5.061512114056981,5.560302707845559,,,,,,,,,
165,165,8.29,-0.8740000000000001,-12.0,0.967,0.496,-0.4970000000000001,0.424,3.22,-5.6,7.15,60.0,8290000000.0,-1.6959657288958012,-11.641180055140175,0.1576253713741922,0.3804143847477764,-0.2629636681304819,0.271646738782264,2.456017872088241,-5.2747181409631105,6.354663691130843,,,,,,,,,
166,166,8.34,0.417,-8.89,1.92,1.52,-0.166,0.514,4.78,-2.3,7.74,60.0,8340000000.0,-0.7155518388512678,-10.548708572593355,1.0354387235103992,1.2093142200356757,-0.1988415931141066,0.4381187765471895,3.6230311253052636,-4.096923848749237,7.04690671758179,,,,,,,,,
167,167,8.39,0.333,-8.29,0.0287,2.18,-0.0287,0.453,4.89,-1.29,5.17,60.0,8390000000.0,-0.22902487843806235,-9.651793429603048,0.5339966912316105,1.9153615245661648,-0.0863269624553412,0.4483406695929878,4.259253392734221,-2.9855651508791063,6.1090292216438575,,,,,,,,,
168,168,8.44,-0.366,-11.9,-0.991,1.6,-0.7070000000000001,0.284,4.38,-4.48,3.33,60.0,8440000000.0,-0.292581190276736,-10.544538144802248,-0.2255821550878131,1.6859771791663454,-0.4967780349950504,0.3354553523874128,4.319887685098276,-3.5772638417206077,4.720367163684662,,,,,,,,,
169,169,8.49,-1.43,-10.9,0.929,0.938,-0.376,0.246,3.53,-3.26,4.59,60.0,8490000000.0,-0.8203423060585386,-10.685689056000047,0.3494985670651418,1.1419213896567115,-0.4169075155466904,0.2740086291916089,3.923236894991395,-3.4516480591692265,4.655223654023223,,,,,,,,,
170,170,8.54,-0.8,-8.22,1.24,0.402,-0.629,0.401,3.71,-3.21,4.22,60.0,8540000000.0,-0.8109035028183114,-9.70658373793741,0.7930444866648623,0.6037251262353627,-0.5571642745407581,0.361238778868918,3.8161576655270646,-3.3559712112005604,4.437745246411692,,,,,,,,,
171,171,8.59,-1.17,-8.78,1.22,-0.0791,-1.08,0.36,4.23,-1.15,4.19,60.0,8590000000.0,-0.977523882661152,-9.338644632665034,1.0057048816382193,0.10705893915300613,-0.9029155525488946,0.3603878736183414,4.023973148240671,-2.4825505492578452,4.313948658686948,,,,,,,,,
172,172,8.64,-0.263,-9.62,1.66,-0.263,-0.768,0.439,5.42,-2.11,4.41,60.0,8640000000.0,-0.6459855524590385,-9.450368555653851,1.3315998227547203,-0.16211066445142264,-0.813695906093117,0.4143864153736258,4.7250034015447016,-2.3350448004083466,4.361944785069454,,,,,,,,,
173,173,8.69,0.498,-9.03,1.38,-0.127,-0.728,0.423,6.42,-1.66,3.98,60.0,8690000000.0,-0.11517745244717592,-9.283443454774414,1.3557072503075285,-0.1365722400289002,-0.7570251961783142,0.4203030772590197,5.5761645964837765,-2.067771095202545,4.171089580639517,,,,,,,,,
174,174,8.74,0.0431,-9.63,2.15,-0.0571,-0.315,0.207,6.14,-2.36,4.61,60.0,8740000000.0,-0.04173688003649949,-9.421058335454903,1.751333055714136,-0.07876655569683688,-0.4647139455729638,0.27378556151791344,5.8593006694407,-2.1834746310360966,4.390410201716644,,,,,,,,,
175,175,8.79,-2.06,-9.39,2.95,0.129,-0.379,0.123,4.1,-2.13,5.29,60.0,8790000000.0,-0.9782088338575642,-9.40872545492231,2.3483717890499705,0.07235650056204107,-0.4080313212866323,0.17021122070702122,4.975848469481164,-2.162302211858686,4.839929092559935,,,,,,,,,
176,176,8.84,-2.27,-8.66,2.35,0.0736,-0.5770000000000001,0.207,3.97,-1.4,4.46,60.0,8840000000.0,-1.5775985773235437,-9.111412498249958,2.349182729929857,0.0732609853471183,-0.5197703179776961,0.1954813715530152,4.470750628515803,-1.8604802693376732,4.650081125512196,,,,,,,,,
177,177,8.89,-1.62,-8.09,2.44,-0.201,-0.5379999999999999,0.25,4.75,-0.8859999999999999,4.35,60.0,8890000000.0,-1.5972727953861252,-8.705817816534335,2.3944175302653807,-0.12622810129328066,-0.5318255979558523,0.2329301237657421,4.610978767166069,-1.4746496619620546,4.500132578351922,,,,,,,,,
178,178,8.94,-2.36,-9.46,3.59,-0.266,-0.192,0.177,4.12,-2.34,5.48,60.0,8940000000.0,-1.9511773732792768,-9.005297551070226,2.989919864831005,-0.22789392295533464,-0.3070989412824686,0.1945118185805883,4.364428329761655,-1.8172718947857864,4.989765680733871,,,,,,,,,
179,179,8.99,-1.36,-9.54,3.71,-0.104,-0.486,0.202,5.19,-2.47,5.54,60.0,8990000000.0,-1.6768716959703545,-9.21762360629668,3.3485814092441033,-0.13777726046277425,-0.42540620701429604,0.1996554423634627,4.7789982392605665,-2.075709643047094,5.264714012421352,,,,,,,,,
180,180,9.04,0.00479,-9.06,0.68,-0.6,-0.185,-0.0384,6.63,-2.04,2.41,60.0,9040000000.0,-0.8965824248119982,-9.155032698223183,2.01939951737406,-0.4739840129138182,-0.2664255910737389,0.036135566750078674,5.708499158869188,-2.0615709394725275,3.8382328597664106,,,,,,,,,
181,181,9.09,-1.21,-14.8,3.61,-0.838,0.22,-0.313,5.31,-7.81,5.64,60.0,9090000000.0,-1.042007870156487,-11.396604188076514,2.8116546150122224,-0.7387581486649364,0.05524763698464902,-0.2036850497850361,5.508388401130193,-4.337573720217115,4.738563590849492,,,,,,,,,
182,182,9.14,-1.82,-10.5,3.43,0.159,-0.0269,0.13699999999999998,4.67,-3.42,5.55,60.0,9140000000.0,-1.4029954304310486,-11.040569828562221,3.119643562523981,-0.08575623340044314,0.0009234065251060851,0.03033092182055436,5.087382496504357,-3.974274432028004,5.144032946475353,,,,,,,,,
183,183,9.19,2.46,-6.0,-2.76,-0.613,0.878,-0.218,8.93,1.02,-0.501,60.0,9190000000.0,0.3894304335910974,-9.038999822125804,0.19107794516793766,-0.4692572644758096,0.5809341454649366,-0.14024715812202335,7.016995229347504,-1.9968676579082023,2.3232483449461543,,,,,,,,,
184,184,9.24,-2.49,-11.8,1.26,-0.317,0.556,-0.32299999999999995,3.75,-4.72,3.93,60.0,9240000000.0,-0.9466222855737348,-10.135371009020783,0.7234925926333137,-0.3585099713499546,0.5644451920298098,-0.2657797807221476,5.376437696287413,-3.0750502886489666,3.1261312631994143,,,,,,,,,
185,185,9.29,-1.2,-9.56,0.74,-0.3720000000000001,0.626,-0.0543,4.87,-2.46,3.71,60.0,9290000000.0,-1.0641893026381266,-9.906895944989113,0.7317146988101727,-0.3683222135155947,0.6051513761877769,-0.1205146820164763,5.122124387852383,-2.831530523573175,3.417886522922098,,,,,,,,,
186,186,9.34,-1.41,-9.86,-0.534,-0.454,0.265,-0.201,4.53,-2.75,2.68,60.0,9340000000.0,-1.2246450896614682,-9.888273803586305,0.10128048032985826,-0.4306416217117777,0.3802092718157177,-0.1757999120980898,4.82478272904893,-2.79924975638246,3.0491696743741072,,,,,,,,,
187,187,9.39,-1.9,-9.9,0.338,-0.399,0.8079999999999999,-0.0922,3.87,-2.78,3.83,60.0,9390000000.0,-1.5380090518501104,-9.892930031015169,0.21918705725395607,-0.4076264623381975,0.6631072861897718,-0.1183752785578176,4.345328038618713,-2.7916280976393684,3.4393452445844366,,,,,,,,,
188,188,9.44,-0.63,-9.91,-0.168,-0.318,0.5379999999999999,-0.0885,4.96,-2.81,3.64,60.0,9440000000.0,-1.1166937976418476,-9.899708318724207,0.02633477182077304,-0.3424348967313104,0.5803738333709969,-0.09785400141312994,4.6539923336041085,-2.7989021494894284,3.5396111149291247,,,,,,,,,
189,189,9.49,-0.927,-9.57,-0.136,-0.207,0.594,-0.0732,4.5,-2.46,3.88,60.0,9490000000.0,-1.0286760671812027,-9.768783658436368,-0.05452183940340138,-0.24392368169681414,0.5893848049730892,-0.0809192117886242,4.576663392117354,-2.6647190279144906,3.709701185199157,,,,,,,,,
190,190,9.54,-1.85,-9.66,-0.33,-0.333,0.5710000000000001,-0.161,3.38,-2.53,3.91,60.0,9540000000.0,-1.409769525517945,-9.725586476225304,-0.19173354289997574,-0.30871508426841604,0.5772269207496094,-0.13592656656110874,3.9757457852922733,-2.6113790724078374,3.8097891849062298,,,,,,,,,
191,191,9.59,-2.0,-9.83,-0.412,-0.37,0.298,-0.222,3.03,-2.69,4.05,60.0,9590000000.0,-1.683635849411183,-9.767048221991,-0.3014450872313792,-0.3532918678627197,0.3925741716018517,-0.19505026207424647,3.500829138515388,-2.642507852106684,3.9298209923959777,,,,,,,,,
192,192,9.64,-1.08,-10.2,0.316,-0.298,0.206,-0.185,3.8,-3.08,4.93,60.0,9640000000.0,-1.403549465460211,-9.938969838157586,0.006095408951287407,-0.31307425384915044,0.2691926776524954,-0.1881467559603201,3.6510610482053214,-2.8157261646127694,4.429603560963353,,,,,,,,,
193,193,9.69,-0.917,-9.67,0.225,-0.17600000000000002,0.309,-0.16699999999999998,3.82,-2.51,4.96,60.0,9690000000.0,-1.1777910195073056,-9.832164094700962,0.11512862424634145,-0.21337061806324129,0.29551724911415084,-0.1736210826752021,3.7358955646396654,-2.6946785493233767,4.694639076812959,,,,,,,,,
194,194,9.74,-1.03,-9.78,0.067,-0.138,0.376,-0.227,3.55,-2.58,4.89,60.0,9740000000.0,-1.1092161274911043,-9.811450043434068,0.09115645178032482,-0.15854832478994746,0.34874048135683394,-0.21028696796606214,3.6425460413773214,-2.6492732967497017,4.792259536026054,,,,,,,,,
195,195,9.79,-1.79,-9.99,-0.242,-0.105,0.5529999999999999,-0.299,2.56,-2.71,4.69,60.0,9790000000.0,-1.425099115820795,-9.88235071374416,-0.07478396913996345,-0.11959890276801967,0.4838172772753725,-0.27122379381470163,3.098933629278971,-2.67331712371638,4.741161169272819,,,,,,,,,
196,196,9.84,-2.31,-9.89,-0.199,-0.13,0.409,-0.349,1.77,-2.54,4.85,60.0,9840000000.0,-1.835692175594509,-9.885388320531806,-0.13665418229416346,-0.12716434046643305,0.4343406201970674,-0.3246481409667465,2.431595003205406,-2.6205322270172284,4.795547145823156,,,,,,,,,
197,197,9.89,-1.86,-10.1,-0.18,-0.353,0.241,-0.462,2.01,-2.68,4.97,60.0,9890000000.0,-1.846970987376136,-9.970609055250877,-0.1582441122265205,-0.2914303064144528,0.3064844716288271,-0.4189949054708533,2.219886437535772,-2.644077611075236,4.882719946888962,,,,,,,,,
198,198,9.94,-1.92,-11.9,-0.108,-0.0779,-0.0605,-0.215,1.77,-4.47,5.16,60.0,9940000000.0,-1.8808563530705007,-10.736754632736716,-0.13321824628567264,-0.13611486852318386,0.06379765171991372,-0.2788711578395617,1.9939710126272885,-3.3670236463661625,5.021274829191542,,,,,,,,,
199,199,9.99,-0.797,-12.6,1.19,0.11,-0.5670000000000001,0.0416,2.91,-5.14,6.39,60.0,9990000000.0,-1.3779481327089016,-11.476634632841375,0.5258576981966139,0.042901586380051315,-0.3533487979148745,-0.05874007003769693,2.45396507170831,-4.069006536798382,5.705217430473026,,,,,,,,,
200,200,10.0,-0.63,-9.46,2.21,0.865,-0.41,0.39,3.29,-1.97,7.18,60.0,10000000000.0,-1.0309009778607108,-10.67584514753159,1.364704697519615,0.6408709270158242,-0.390812233796509,0.24949870327253135,2.873789173258013,-3.237936926877329,6.4421561742213385,1.0539940105373193,0.21664384653014906,1.081595851833236,2.4449354049840943,2.475089576105602,2.8431298649908525,1.7568462362883377,0.8127219538475585,0.11516775297652461
201,201,10.1,0.723,-9.18,1.52,1.67,-0.301,0.563,4.88,-1.47,5.93,60.0,10100000000.0,-0.21709276004784106,-10.081857111937602,1.4420550374550931,1.3894280221339823,-0.3314194056390542,0.4648422214228987,3.8812300298896094,-2.537949279065725,6.186235128049527,1.0198898778064676,0.20975446400816464,1.0773412470677861,2.4085129776469105,2.350235740310052,2.815487657918597,1.71058394815178,0.8084436742730089,0.10258651837489799
202,202,10.1,1.39,-11.5,-4.92,1.26,-1.82,-0.158,5.83,-3.52,-1.37,60.0,10100000000.0,0.5285965959927406,-10.64499032229459,-1.7267928176812142,1.2952860160457669,-1.3158177429101234,0.03701296462692977,4.859826233759737,-2.9267772748505685,2.4104357733075945,1.0419317926759575,0.19849620918301517,1.0910813327937863,2.319389011651653,2.1895937159135377,2.8759480173645713,1.6974597016398658,0.8011720233348693,0.10349833240844208
203,203,10.2,-0.0575,-11.3,1.32,0.863,0.116,0.0489,4.51,-3.14,4.23,60.0,10200000000.0,0.2566483869183258,-10.905089507740033,-0.20922925072916645,0.9808543236332908,-0.3689567145017725,0.04517814931765639,4.684157263567398,-3.0111996020361445,3.3196596638182974,1.0575680829872756,0.18683810162521733,1.1498159995662345,2.4223050097275367,2.128605804409463,2.8814294711733934,1.7193566719322333,0.807195751201369,0.10839235547085242
204,204,10.2,0.534,-9.5,0.354,0.5760000000000001,-0.0379,-0.103,5.09,-1.22,2.95,60.0,10200000000.0,0.3853392362883758,-10.347139690416864,0.0713071133877764,0.6863756079900589,-0.15002891962703227,-0.05660516694822618,4.887955727317961,-2.3020014528304094,3.1349432653021765,1.0695898256003742,0.17422612383436925,1.261704001954837,2.4771444965028,1.9291620712544832,2.8974872663977322,1.8278245942379632,0.8200409385192152,0.11534799531500319
205,205,10.3,0.163,-8.68,0.977,0.364,0.223,-0.0299,4.65,-0.292,3.37,60.0,10300000000.0,0.2821740639590993,-9.685131960429873,0.5224196711691282,0.4518894093348563,0.09665509701148453,-0.03826143330925677,4.768463693468716,-1.5061720352489452,3.2523994613434004,1.0846297979108561,0.16367847676393218,1.2922191573060648,2.5952806066267162,2.178490668618744,2.9541347812830336,1.9599418906507275,0.8395296841017604,0.11388412037183437
206,206,10.3,0.8140000000000001,-8.67,1.92,0.333,-0.0611,0.0856,5.26,-0.228,4.2,60.0,10300000000.0,0.5289407478640356,-9.282031199807472,1.2185342461330106,0.3654128791046258,-0.007668343038988001,0.04681877489961475,5.01529416285612,-1.000099314414843,3.725908916693266,1.0835926949657453,0.15602577442159402,1.2961904893589635,3.0437018106582,2.278440390204889,3.010157312125096,2.0589348143254957,0.8839504326479758,0.10284521054387481
207,207,10.4,1.16,-8.79,1.85,0.391,0.273,0.151,5.66,-0.335,3.96,60.0,10400000000.0,0.8217515664712545,-9.0866495263826,1.5330582386963978,0.3840241730176607,0.17793762508999228,0.11838067467980905,5.339040202612728,-0.7367633892053291,3.84288265954265,1.1174337386387416,0.14394127900283707,1.3029032463038395,3.3758967734097305,2.4206310412674337,2.9743193716525376,2.1947568911375113,0.886898592746329,0.08502331714291639
208,208,10.4,-0.0766,-9.9,2.51,0.152,0.443,-0.0244,4.4,-1.42,4.58,60.0,10400000000.0,0.40491737748612,-9.40962434957624,2.0196588291234168,0.21525685664110308,0.3532233582898133,0.020304874874685616,4.8674909000768585,-1.0072804865731722,4.2112151480738005,1.1239432827354343,0.13122338958783078,1.4560731141955654,3.3279876093172382,1.9584085501932196,2.9842564634583297,2.2782815178878426,0.8676926112976713,0.08809264409646671
209,209,10.5,-0.7040000000000001,-8.91,2.99,0.107,0.11,-0.132,3.67,-0.373,5.05,60.0,10500000000.0,-0.10961912606401968,-9.211227451601372,2.502971770197774,0.13651411866932536,0.1923797583240821,-0.08431308151307235,4.266157731886174,-0.7561468012468038,4.630350334734639,1.0626139462797264,0.12134175883689767,1.4938354175067392,3.2904958901949457,2.0178577985347688,2.9932854480654565,2.2331984987872646,0.8567057312739235,0.08913360031494977
210,210,10.5,-0.388,-8.93,3.49,0.132,-0.14400000000000002,0.295,3.94,-0.349,5.46,60.0,10500000000.0,-0.23878756621968486,-9.09955439866765,2.9945962945482303,0.13323068579083333,-0.030068161708087158,0.17623641347973898,4.1023740736391225,-0.5949432384056713,5.0449206544433,1.0206382603154238,0.11182665681187971,1.5493224952102689,2.881185993475889,2.4100014093306226,3.006935393863128,2.168631264882162,0.8406841981248403,0.08706828092435301
211,211,10.6,-3.1,-9.65,3.22,-0.048,-0.0947,0.315,1.35,-1.1,5.06,60.0,10600000000.0,-1.5663871038185098,-9.318131797599863,3.1068666421719837,0.0014090074099341598,-0.07280919522031587,0.27155288101550945,2.720239217538995,-0.7949127687635102,5.052455672368121,0.9623285931720656,0.10385564159866417,1.5434023917244657,2.7924671884571586,2.5506538010510234,3.037702327435086,2.073695016785331,0.8233096042013681,0.07956163255576384
212,212,10.6,-1.24,-7.98,3.36,-0.179,-0.429,0.484,3.37,0.488,5.16,60.0,10600000000.0,-1.414943832856294,-8.78677035957733,3.2329486630362614,-0.1298150105812807,-0.3083581573167927,0.4174824402427947,3.046523672756706,-0.2869630245882856,5.106194765924612,0.9110189552386523,0.096338046906529,1.5434447211934599,2.710708325926387,2.500492258502524,3.1243909428147827,1.9438451299512278,0.8028149644299717,0.07452000440864452
213,213,10.7,0.7759999999999999,-7.96,1.43,-0.778,-0.116,0.0551,5.56,0.397,3.29,60.0,10700000000.0,-0.39834817138056733,-8.458466470558731,2.334925922294977,-0.6012850172182322,-0.18115171142193026,0.1685625656010352,4.3086933851310025,-0.016158291914780243,4.198654562534755,0.8958114529705843,0.09078149232801673,1.5512701590017153,2.2902803455506175,2.510334527450643,3.1132517213066873,1.8654392599280623,0.7898541885073231,0.07626109253752657
214,214,10.7,0.259,-14.5,2.44,-0.986,-0.37,-0.128,5.02,-6.19,4.65,60.0,10700000000.0,-0.09333930465601648,-10.857511165245342,2.3872618328043576,-0.8811149730509917,-0.306037082170718,-0.035145755367449134,4.665883803887971,-2.4605967667796538,4.424188858606844,0.9209645078182084,0.08651581821490112,1.4884635837003362,1.8195425300267607,2.50443547578058,3.0255649845089807,1.8434944655294156,0.7870119986836336,0.07595815095928939
215,215,10.8,-0.5870000000000001,-11.5,4.01,-0.007640000000000002,-0.383,0.249,4.23,-3.33,6.34,60.0,10800000000.0,-0.32239735761135824,-11.112638348253148,3.1955244136714445,-0.2457758956309508,-0.356932648445238,0.16003347441653393,4.4469999744007245,-2.8048236854063338,5.381506745156428,0.9060972019543598,0.08140037176250962,1.4173939174400494,1.9225088316059942,2.529528723522353,3.17759877512586,1.7097835563512502,0.7624429124542842,0.06984743682943922
216,216,10.8,2.22,-6.74,-2.67,-0.62,0.614,-0.115,7.08,1.42,-0.264,60.0,10800000000.0,0.8572723750490688,-9.376298505208721,0.2739912978850008,-0.5179751086298809,0.2851450977888411,-0.028886548062937476,5.769189814954126,-1.1320692071074543,2.560485383927004,0.8910416228147304,0.07400796227450857,1.380119454312201,1.9664327417145961,2.3984717788193164,3.2806503053914273,1.5224421261043979,0.7124822985165228,0.06392011154951796
217,217,10.9,-1.63,-10.4,-0.182,-0.5529999999999999,0.274,-0.0952,3.09,-2.27,2.57,60.0,10900000000.0,-0.2968194077714489,-9.782802038275427,0.046868613670815296,-0.5434511278521362,0.277774837701358,-0.07443714577319538,4.423805183000162,-1.5826155396823296,2.5652397395731388,0.8753815399846667,0.06955311894898439,1.4220278737155567,1.6735560134549752,2.2876852893975346,3.3034074219760465,1.2985622807233101,0.6732742340687199,0.06832728945011914
218,218,10.9,-2.16,-10.3,1.04,-0.511,0.701,0.1,2.45,-2.2,4.11,60.0,10900000000.0,-1.1613332970225332,-9.988177292374909,0.5415330084753608,-0.5198471500566106,0.557653608489723,0.0453834309845455,3.4326372576699438,-1.8270595184096317,3.3371460124923047,0.9082654105079366,0.0714798869825999,1.3780677437214652,1.4482861305392436,2.1446402186886835,3.106642144554616,1.1786848381415767,0.6786225353119094,0.07401380916838492
219,219,11.0,-0.606,-9.99,0.00479,-0.48,0.0947,0.0868,3.96,-1.98,3.35,60.0,11000000000.0,-0.9036592299102438,-9.988900984122852,0.27418906060391485,-0.4908635395911035,0.2515024018051142,0.07383240215686357,3.697458269465513,-1.8876139767841107,3.3435690150585358,0.9918652844685484,0.07145076098384379,1.366016075528465,1.2374670455961356,1.8872288556834982,3.0644138978420083,1.2117425510196786,0.6830714912823332,0.08807497480193366
220,220,11.0,-1.78,-10.0,0.0407,-0.349,0.5820000000000001,0.0166,2.75,-2.09,3.57,60.0,11000000000.0,-1.3102804189592838,-9.993308314650204,0.15789152838160253,-0.3876763290264904,0.4700604649708434,0.034519563267209244,3.2216816943212123,-1.9677456016171424,3.4567150063817205,1.0139404530100677,0.07063125125730346,1.4540919722999144,1.6200100578158838,1.8437454947328935,3.0286960983724462,1.1979795002001312,0.6921319929441487,0.10343325097438792
221,221,11.1,-1.93,-9.82,-0.599,-0.302,0.456,0.133,2.49,-1.92,3.17,60.0,11100000000.0,-1.5978296331681108,-9.92448884639585,-0.21910520944457074,-0.3253579681078182,0.4607622800633005,0.10216560696216948,2.8542597008660824,-1.94884144194815,3.313445503912363,1.0065858213246501,0.0651957884039294,1.4323547047958736,1.9089275539959931,1.7147804639559994,3.0234720556421664,1.1685482074365559,0.6834409162816965,0.09932064994494053
222,222,11.1,-1.01,-9.31,-1.03,-0.422,0.14,0.0856,3.38,-1.47,2.91,60.0,11100000000.0,-1.3250772927127583,-9.68048040168112,-0.6230001901054809,-0.3956524304774519,0.2486421942333103,0.09078672247385297,3.1182660233046335,-1.759251488298936,3.111846569722197,1.0007582232559,0.060949729050004765,1.3766774247967666,2.2344710025802414,1.7058342680828664,2.9594421197033185,1.1726560911498136,0.6813144078285198,0.09129224194430605
223,223,11.2,-1.22,-10.3,-0.591,-0.377,-0.0055,0.0373,3.15,-2.49,3.49,60.0,11200000000.0,-1.2763215518815665,-9.92648676015617,-0.6070613673520417,-0.3820852239045576,0.08057796879818219,0.05404678595810014,3.13420163609942,-2.048580218880009,3.300807274219588,1.0080314347336352,0.059746418132990226,1.2951635466520959,2.522176042458297,1.820408447215586,2.928630006823311,1.1991061332229052,0.6877900448402846,0.08221449634886165
224,224,11.2,-0.917,-9.8,-0.484,-0.336,0.29100000000000004,-0.0201,3.41,-2.08,3.74,60.0,11200000000.0,-1.1095967249890224,-9.876259954024821,-0.5457662745994587,-0.3485642331280301,0.21973005742227006,0.003115486497537165,3.2726968564928987,-2.0610203717484037,3.5202688999458163,0.9964495774407643,0.058270909661917,1.132736570337323,2.7744292433143705,1.8694248556292377,3.0087522253313623,1.2180747744293194,0.677705885830273,0.06593521468734698
225,225,11.3,-1.35,-9.99,-0.462,-0.207,0.17800000000000002,-0.0543,2.89,-2.28,3.88,60.0,11300000000.0,-1.2211436046488853,-9.921425126649073,-0.5040435080460897,-0.2455947255820267,0.19213397374512994,-0.036323111865712764,3.0805214798481337,-2.1477220040419165,3.700024143621592,0.9743002219801709,0.05666156260554725,1.1410015526425978,2.528176618011057,1.8506078639585908,3.1864552389175462,1.2344782720667855,0.6606519676140018,0.05714628905478631
226,226,11.3,-1.07,-9.68,-0.575,-0.305,0.24,-0.0647,3.07,-1.98,3.87,60.0,11300000000.0,-1.1510131542402946,-9.825557258946494,-0.5393859069314139,-0.28880431709859145,0.2237877719301479,-0.055815147563128414,3.075237969671024,-2.0813150424250053,3.784959866961109,1.0020060798747101,0.05789345060490566,1.1434583097507145,2.465954429472308,1.8198654212307654,3.2072996772658233,1.2449125976238784,0.6605602683251897,0.055540559970991686
227,227,11.4,-1.67,-9.55,-0.773,-0.315,0.157,-0.1,2.37,-1.87,3.8,60.0,11400000000.0,-1.3918224888799806,-9.716135748769485,-0.6557457168604829,-0.30785825682790224,0.17962102381645975,-0.08616564781234748,2.7210949207012862,-1.9976480765386808,3.7924752954226575,1.087334783243904,0.05476837640078706,1.1845296370435456,2.567256799975695,2.229859090190574,3.285203630134884,1.2977923143914296,0.6328594535143668,0.05982152960283703
228,228,11.4,-1.78,-10.1,-0.857,-0.42,0.249,-0.209,2.08,-2.31,3.76,60.0,11400000000.0,-1.5719364354639431,-9.868565327463307,-0.7559875681030293,-0.3894267339011144,0.22550133735400635,-0.1705403576303694,2.399162027356436,-2.121319033547279,3.77624760618914,1.1435069457012348,0.0524486738000131,1.2363551437751463,2.533780040091985,2.7292751236457256,3.3145577863936326,1.3247992979819285,0.6109134410072687,0.06375296854719126
229,229,11.5,-1.67,-10.1,-0.29,-0.243,0.295,-0.202,1.96,-2.28,4.34,60.0,11500000000.0,-1.6174378071067017,-9.960466338319726,-0.5238858799307247,-0.2829203903438668,0.2714607922141199,-0.1921499367549992,2.178632011530507,-2.184146330461427,4.057950923186465,1.1703132228353221,0.048399724749072684,1.2463448121883416,2.1565215619197087,2.984590520852931,3.164125406758008,1.351958041995881,0.5749689045944589,0.06488655271822896
230,230,11.5,-1.04,-9.93,-0.735,-0.0956,0.4320000000000001,-0.208,2.37,-1.97,3.88,60.0,11500000000.0,-1.3495072498185008,-9.948368519971792,-0.6290387841323077,-0.14666924785151866,0.3776253729376596,-0.20303732091412,2.274729491105332,-2.099358368703684,3.969030113149857,1.0811654292613242,0.04561142768715396,1.212675403123617,1.78302113967358,3.0645151319995385,3.0956787049749366,1.2830699623484279,0.5487048046010725,0.060507482830870755
231,231,11.6,-0.939,-9.94,-0.5579999999999999,-0.0822,0.508,-0.228,2.23,-1.88,4.05,60.0,11600000000.0,-1.1590323193856062,-9.945045280926262,-0.5936554047754978,-0.09977628027056766,0.463842120640779,-0.220184142372151,2.2522680954986107,-2.012506766689501,4.009490310764811,1.0867473198743345,0.05101826954201389,1.117373840804794,1.493926574462704,3.014378776804189,2.9275729887912836,1.2678593711842343,0.5632865356478521,0.05361775483054447
232,232,11.6,-2.03,-10.2,-0.589,-0.0748,0.628,-0.28,0.8859999999999999,-2.14,4.12,60.0,11600000000.0,-1.5631604005281827,-10.046285687127279,-0.5913366081787143,-0.08160929482624345,0.5723997352319874,-0.26127155302698274,1.56618155552387,-2.0629858092480977,4.064711194427996,1.0313191794800933,0.04677149464787866,0.9733662428744077,1.562922001032128,2.6869644219629243,3.036810306558024,1.2019709505201854,0.5096388423831496,0.04502135997786168
233,233,11.7,-1.7,-10.2,-0.747,-0.126,0.285,-0.218,0.981,-2.07,4.04,60.0,11700000000.0,-1.6266538539324986,-10.107324336903233,-0.6688702871537732,-0.11389774249532306,0.3823422965431911,-0.23154839399392585,1.2723262139767009,-2.0657629446545265,4.052363159411694,1.0829602257857638,0.04368270622609824,0.8234255647428042,1.7860011229165689,2.512287785884884,3.102589099333644,1.217554926550034,0.46356652094889045,0.03547930920272515
234,234,11.7,-1.63,-11.4,0.00958,-0.0773,0.0538,0.0508,0.958,-3.23,4.85,60.0,11700000000.0,-1.6282064600015502,-10.620635363189416,-0.3309439882161833,-0.08727765784330703,0.1650772868042491,-0.03760376767906748,1.1144838558045962,-2.52672485569128,4.450936821425345,1.125243231661712,0.0369255145523799,0.8599331580948189,1.6390687752317923,2.2628029756529533,3.1438133431635316,1.2334387481868962,0.3973089093736111,0.04009859963281044
235,235,11.8,-1.91,-12.1,0.0958,0.328,-0.0153,0.354,0.738,-3.95,4.92,60.0,11800000000.0,-1.7589583528493145,-11.208079392311364,-0.11838896637351515,0.214782662021272,0.04579379237161592,0.23138818900598784,0.9254283407969064,-3.090248958167972,4.6853245428150485,1.1662469860818885,0.029168500274792585,0.8964892052172158,1.4797205666608912,2.0470638109485693,3.1186093191020494,1.254435380318732,0.3356873913358366,0.052064349084013854
236,236,11.8,-0.328,-9.72,1.32,1.15,-0.0409,0.527,2.49,-1.53,5.92,60.0,11800000000.0,-1.094995175411115,-10.617175060921657,0.5980518496305393,0.8950312368065726,-0.01153680956352978,0.43444344097057663,1.7110951866209152,-2.4724921709626013,5.302283517844554,1.0785444081165794,0.02461845096032842,0.9760800948849692,1.5321253576584746,1.7521535015381084,3.0130559274023097,1.2310402181800744,0.30785218438400114,0.06244615401084971
237,237,11.9,-0.51,-9.42,0.57,1.83,-0.3670000000000001,0.601,2.58,-0.986,4.51,60.0,11900000000.0,-0.8235580203955183,-10.141786439558123,0.5840796245223974,1.5750990544251897,-0.24660461576786186,0.5488508627433497,2.147425242793457,-1.8839382705032344,4.906384941548842,0.9430066064941872,0.01720602345702736,1.1125507935366812,1.81827229955243,1.6556030828359365,3.539608564627012,1.1927845898596765,0.2721618732031756,0.06855054077043009
238,238,11.9,0.103,-11.0,-1.48,1.63,-0.7170000000000001,0.478,3.5,-2.35,1.55,60.0,11900000000.0,-0.3936360663065844,-10.482576187567119,-0.44400866369505376,1.6150323257338155,-0.5576770743543976,0.5001835166988801,2.8266355113083885,-2.068468265509955,3.229222167514873,0.8732173017921001,0.012745102309455202,1.1740439590343517,1.9779651288631734,1.3980006809848682,3.107260478261575,1.191790814488952,0.25738007827760706,0.06694034338640224
239,239,12.0,-2.22,-11.1,-0.23,1.34,-0.967,0.253,1.44,-2.31,1.97,60.0,12000000000.0,-1.2410670378878301,-10.727750401950763,-0.3374140382816993,1.4149822175220812,-0.8283623179019936,0.33039357770065425,2.130321289794666,-2.164099048944391,2.5999974205369667,0.7484623952624926,0.015828268681829627,1.1759338407818243,2.34615640501356,1.3181200114766873,2.73825529343422,1.1694157842613842,0.28937549581714,0.06156624495691147
240,240,12.0,-1.16,-10.1,1.67,0.79,-0.7509999999999999,0.28,2.68,-1.18,3.25,60.0,12000000000.0,-1.2034520014632686,-10.478475884332765,0.6624499081717214,0.9603892136154176,-0.7772026108703721,0.2957783165772505,2.4063485243031333,-1.7744600206084589,2.9247992930273816,0.6327923434430844,0.01672828400895239,1.1478700804370365,2.7507610128533044,1.394017956854386,2.614117190648674,1.1683457609881422,0.29637048497411156,0.058562843506527774
241,241,12.1,-0.261,-8.57,0.539,0.537,-0.852,0.235,3.73,0.32299999999999995,1.62,60.0,12100000000.0,-0.7661552602387053,-9.7206352375724,0.6009612775615248,0.6524288022079373,-0.8266661208061425,0.2540297949330821,3.0710346589460222,-0.9440027133802896,2.2727999541927737,0.5453680814982257,0.019263406842751206,1.071234563981667,2.92722150097335,1.6304210793723237,2.559472026490484,1.1859713395194664,0.30595398956126113,0.05492870416641378
242,242,12.1,-0.742,-8.58,1.51,0.246,-0.418,0.224,3.36,0.3,2.27,60.0,12100000000.0,-0.7549472371861653,-9.267698067734939,1.053740344091339,0.3568048818076109,-0.5564152356808885,0.23340238513652625,3.216141725739239,-0.4514588095744724,2.2714008265761483,0.4659703102338836,0.02024626033859618,1.1337664428788625,2.5729645416274503,1.8877100927175237,2.7933663479332798,1.175817049319211,0.31388158646663344,0.05759125879797761
243,243,12.2,-0.16,-8.58,1.66,0.213,-0.627,0.163,4.04,0.267,2.21,60.0,12200000000.0,-0.478892338663657,-8.994618629221769,1.355709514455541,0.25220559269859083,-0.6030929211886826,0.1850431094629372,3.6298511867414263,-0.16699600692567124,2.2407192697880833,0.44182690125420254,0.02109689016491987,1.201272896431959,2.7827259549651586,2.1751281963556313,2.8708204736277447,1.1741419935223643,0.31265760985057867,0.06391545330829926
244,244,12.2,-0.306,-8.28,1.66,-0.0235,-0.369,0.0832,3.96,0.545,2.01,60.0,12200000000.0,-0.39867047138757866,-8.710849175089269,1.5072721981236523,0.05166574692031384,-0.4482872713583771,0.11508725270330092,3.7956390582201007,0.11490795826107893,2.1254304135403905,0.5064950635398433,0.022991919877567255,1.228604728030545,2.7071017724883193,2.413087554516995,2.9500346524267864,1.2031290675787396,0.31365326622647316,0.06669807022984248
245,245,12.3,-1.38,-9.35,3.28,-0.116,-0.194,-0.0592,2.91,-0.534,3.61,60.0,12300000000.0,-0.8540063458337608,-8.964651012536224,2.3902423235969312,-0.070289205568504,-0.2801271101890565,-0.004630361750982637,3.3509057220115763,-0.14201724163835405,2.8672596965098016,0.5182228316102963,0.018980852512197166,1.2614475505468703,2.651644670408983,2.7060287303051265,2.8649825278726597,1.2119101620228034,0.2709651399421768,0.06805471608821184
246,246,12.3,-1.72,-9.3,2.78,-0.0473,-0.435,0.0239,2.53,-0.462,3.06,60.0,12300000000.0,-1.255826510448065,-9.097815491869897,2.584374984215066,-0.05356755781735882,-0.3825445491713836,0.014967094978232976,2.9386788840238367,-0.2687095388937967,2.9635706879898525,0.5101076365483774,0.014112865724810521,1.3181903713559804,2.3365624228739335,2.773813611062738,3.1167790208696626,1.2053296956673616,0.2235519872081189,0.07125962902108372
247,247,12.4,-1.2,-8.48,2.89,-0.244,-0.619,0.0819,3.05,0.359,3.07,60.0,12400000000.0,-1.2299230900144598,-8.852485714415485,2.7366024470169013,-0.19208231507706253,-0.5389125434083273,0.0609431928344715,2.9945799810119533,-0.02017752271490139,3.0167526587051916,0.46795847493444376,0.01390469808033388,1.2319862750835473,1.7690400987452446,2.9167600027928344,3.390144384197884,1.20289680261392,0.20497746240693923,0.06986337697149685
248,248,12.4,-2.53,-9.26,3.46,-0.442,-0.102,0.205,1.75,-0.444,3.67,60.0,12400000000.0,-1.8331574055473603,-9.014306472203897,3.0969163493767424,-0.3738648243911242,-0.2499822902423781,0.15989556494670915,2.3696004753783497,-0.18798357012566352,3.343175954759853,0.45025502747799234,0.014773292436478834,1.26785872191958,1.6110469418032412,2.904169135661793,3.3514027479645137,1.161497367690896,0.19393857298442937,0.0712509926809483
249,249,12.5,-0.35200000000000004,-8.84,3.13,-0.444,-0.0177,0.198,4.01,-0.0669,3.47,60.0,12500000000.0,-1.1459019149818817,-8.945090825334221,3.1133948953951323,-0.4248790180138118,-0.0963740184683497,0.18606943518128585,3.1933452267220948,-0.14004237746168274,3.4065490827518903,0.4411114773679514,0.01434161658594272,1.2197265083071744,1.4983620512615752,2.680257875451307,2.693448630688135,1.1364681221715005,0.18491626027261987,0.07077744328805563
250,250,12.5,1.36,-11.8,-0.472,-0.8540000000000001,0.37,-0.277,5.7,-3.05,0.0786,60.0,12500000000.0,0.016833963766221816,-10.078752524553316,1.327561429633073,-0.7370085232963881,0.21203910916672325,-0.13201217113151065,4.452089353811595,-1.2921956924643845,1.7435955364108218,0.40754442680389125,0.016194785947183512,1.1894125417926331,1.719765090434942,2.214754761342317,2.359831361883274,1.111048441927263,0.18763253679841121,0.0736621406217603
251,251,12.6,-2.32,-14.8,6.07,-0.0748,0.0226,-0.0372,1.88,-6.0,6.98,60.0,12600000000.0,-1.0674545245307798,-11.95352225158682,3.689701739187224,-0.2553382230897423,0.08676303241254278,-0.06688585377058498,3.1604864353203954,-3.1561789979880666,4.3601912774478215,0.387663211752513,0.013511763057979433,1.1439382910331115,1.8230800240526697,1.985192126611227,2.219298801838993,1.0557361017762648,0.1464159634102006,0.06525917602961494
252,252,12.6,0.117,-5.54,-2.48,-0.338,1.27,0.000687,4.33,3.26,-1.51,60.0,12600000000.0,-0.5178688624595503,-9.406763792255198,0.6166623149854717,-0.31546388025847394,0.8692375911195683,-0.020470176616488645,3.747770477289958,-0.6157907960864488,1.4268965861106215,0.4166895698454365,0.012267574826861347,1.0833889996500674,1.7260238038051674,1.7371041467295667,2.0344759747546437,1.0239627500780695,0.1286783405941742,0.07292049905918271
253,253,12.7,-1.43,-9.99,-0.196,-0.7509999999999999,0.489,-0.28600000000000003,2.62,-1.19,1.3,60.0,12700000000.0,-0.9410967335739802,-9.638362139599133,0.21188694421211365,-0.6322595720033369,0.6177864785828774,-0.20286216526753434,3.181448089302496,-0.843140194386133,1.3634872004075986,0.5166805203071742,0.00977062030862684,1.1465781010758014,1.7187205904262368,1.4525637897847334,1.7269604120795117,1.0108856477758077,0.11593123344580224,0.08701775926032082
254,254,12.7,-3.05,-10.7,1.65,-0.48,0.825,0.0752,0.897,-1.87,3.5,60.0,12700000000.0,-1.9196256251402721,-10.059929976089684,0.9281902951336204,-0.5215105914345202,0.7548167662228967,-0.011861742424183695,2.0342874005224827,-1.249709673198571,2.431088129746397,0.543903725923219,0.0066017433378491456,1.2221201078069175,1.8061460944195595,1.4159107340801163,1.7537859378546865,0.9869078929287721,0.11255392061511799,0.09204188688030301
255,255,12.8,-0.129,-10.2,-0.333,-0.35100000000000003,0.069,-0.0958,3.74,-1.4,1.78,60.0,12800000000.0,-1.088777201535182,-10.11555058773202,0.30000960449244074,-0.3974863912883534,0.3012861580631072,-0.06951878558782032,2.8908297195367707,-1.3092148262165777,2.105743800858861,0.471354751931126,0.007019479510227983,1.3439346643294154,1.9142274200947649,1.4718818899659687,1.8211192098850726,0.961298952206296,0.1390761055369864,0.09328790191201558
256,256,12.8,-1.79,-9.48,-0.278,-0.342,0.625,-0.0463,2.0,-0.72,1.98,60.0,12800000000.0,-1.4141438301679028,-9.863178345408311,0.01211136192305684,-0.3571272866894054,0.5153581120661014,-0.05356984265014243,2.4434897926426182,-1.075924214636194,2.04291048747162,0.46046609868523497,0.011827036849404825,1.3304449668647869,2.1378892120335697,1.608546521766084,1.798930952679995,0.9573957035263455,0.19455689876824392,0.08628513940230342
257,257,12.9,-2.0,-10.5,-0.242,-0.416,0.743,0.0728,1.66,-1.71,2.29,60.0,12900000000.0,-1.685980481270822,-10.116055136452294,-0.11445784026761935,-0.3999495105260728,0.6658976665214689,0.03323338720771725,2.050051772100492,-1.3269768651400469,2.1663794189611725,0.43466773404580866,0.011476187468700856,1.2764402828898227,2.601167713879321,1.6925233747646957,1.8914422183488653,0.9578959830287694,0.205987990648567,0.0777752298828217
258,258,12.9,-0.941,-9.31,-0.182,-0.322,0.268,0.0508,2.67,-0.621,2.59,60.0,12900000000.0,-1.3403103087237982,-9.795977248507443,-0.14809961363519786,-0.3432514097237996,0.4027679559513428,0.04529986293213849,2.361365621418701,-1.0474560907292434,2.3780597021111034,0.4633386561347726,0.016883566962337244,1.1277159242460977,2.625181285901174,1.7730495846635421,1.9146211383103087,0.9732152417528431,0.250554922441117,0.06525627002222108
259,259,13.0,-1.36,-9.87,-0.606,-0.315,0.213,-0.0653,2.18,-1.2,2.3,60.0,13000000000.0,-1.3494463115552808,-9.825371046264264,-0.3761731922034995,-0.32270219348108503,0.2772744120340731,-0.03067099474684043,2.2702909163610605,-1.1078535436706345,2.3390537755185727,0.4401205241593747,0.014780207162059501,1.2221762786062802,2.516672334436573,1.904467034817222,2.146879181950702,0.9683270758577517,0.2439751595993317,0.0709719631792436
260,260,13.0,-1.47,-9.81,-0.491,-0.394,0.25,-0.153,2.07,-1.2,2.45,60.0,13000000000.0,-1.4053831103972527,-9.819267493228741,-0.4333667666877196,-0.3745620407271665,0.2592378441706728,-0.1146985763186684,2.1697125995618944,-1.144337546386683,2.3944928738908264,0.47801724286809705,0.014858298572366594,1.2312356724421791,2.5908832205114813,2.0356579821620864,2.4333862795973147,0.9722493694939726,0.24475419994316366,0.07574932365882307
261,261,13.1,-1.44,-9.95,-0.213,-0.366,0.261,-0.23,1.84,-1.29,3.02,60.0,13100000000.0,-1.4214453375792675,-9.871180251418833,-0.3236052595980352,-0.3683342707913001,0.2604031626556205,-0.19389892901396807,2.004143813498926,-1.202010357942788,2.7070545252447165,0.5292631460091045,0.01448254659480187,1.2784843527601994,2.692792408027145,2.443285737493004,2.634773621281176,0.9585572757615805,0.24438328099391102,0.08267066469097638
262,262,13.1,-1.46,-9.8,-0.067,-0.254,0.334,-0.219,1.65,-1.14,3.31,60.0,13100000000.0,-1.4393346783872758,-9.842915218026368,-0.19579388313761126,-0.2851710123004897,0.30907274331701506,-0.21114080933767435,1.8263065963162524,-1.1774582969205434,3.0083422536512834,0.45229559710901474,0.011905578806278223,1.2830825737411713,2.667389034824549,2.8144848469617876,2.7640193330003893,0.9177227192586006,0.22972649692689112,0.08409723528082205
263,263,13.2,-1.46,-9.53,-0.596,-0.268,0.282,-0.217,1.49,-0.8540000000000001,2.88,60.0,13200000000.0,-1.4489233837388351,-9.718658979002178,-0.395130783277776,-0.2726813460728493,0.2911695424388374,-0.21516547234208827,1.6574265503943473,-1.0493899071450172,2.9442105587134124,0.447460007080835,0.010651569222137927,1.3104629051744139,2.2846594185536873,2.7288725990234695,2.8172969446385405,0.913085448073496,0.22548489949582026,0.08415840093711469
264,264,13.2,-1.45,-9.72,-0.524,-0.284,0.448,-0.307,1.27,-0.986,3.0,60.0,13200000000.0,-1.4494229546851023,-9.719191593761106,-0.4593186752322535,-0.280914196781682,0.3948815284838861,-0.2782464593081613,1.462876043758001,-1.0242916408892535,2.9720881634608385,0.42126646353587915,0.01459590881232867,1.2729000217179982,1.8043997930998172,2.7396053271992025,2.6029014662109007,0.8952021779691417,0.26171241027744496,0.08056657118210717
265,265,13.3,-1.46,-10.0,-0.409,-0.208,0.52,-0.329,0.952,-1.18,3.05,60.0,13300000000.0,-1.4543307103677556,-9.830698368312287,-0.4342556737701224,-0.2278786351284843,0.4776223573466986,-0.3131089765903011,1.2063340388804202,-1.08594196982891,3.0110201549772904,0.4079094728912444,0.012248294429666469,1.156248881625542,1.5881177798799255,2.8511751448171445,2.903351361334847,0.8491585751164336,0.2380383901196037,0.07287869158934224
266,266,13.3,-1.74,-9.81,-0.464,-0.156,0.404,-0.282,0.423,-0.916,3.05,60.0,13300000000.0,-1.5868809669115609,-9.822479378255034,-0.4490708868391893,-0.1755963086840601,0.4289359039348553,-0.2917402776211396,0.8129742525128333,-1.018656042467155,3.0304980948578693,0.4148878266605452,0.016165063394722273,1.2947170209348806,1.7510213328571471,2.773550014500236,2.818809533062393,0.761891091864191,0.25163764842500314,0.07741228650363242
267,267,13.4,-1.76,-10.7,0.0551,-0.0528,0.396,-0.152,0.223,-1.76,3.49,60.0,13400000000.0,-1.6672080130839817,-10.170935730311164,-0.1979506420067264,-0.08627801559520548,0.4071553902275902,-0.1957529176512476,0.5167122048800373,-1.3121798706568413,3.2601080795196564,0.3905631074812819,0.013899417826673838,1.1457187656298433,1.9174748773054866,2.324202075043282,2.513616522643078,0.6863481394834985,0.22062962077152137,0.061620717267841116
268,268,13.4,-1.95,-11.3,-0.898,0.0541,0.457,-0.0867,-0.107,-2.32,2.49,60.0,13400000000.0,-1.798423221871838,-10.61927820669384,-0.5466351272788762,0.01582867465375687,0.4401176208248345,-0.12084465578845295,0.20350827110721956,-1.7112108517503228,2.8752903094777835,0.371941581146018,0.013401975292810439,1.150060843649116,2.095730709403193,1.9710809986366034,2.3803020457891666,0.630008561139076,0.19074442602505756,0.06166055385863415
269,269,13.5,-2.58,-11.9,0.213,0.28300000000000003,-0.208,0.199,-0.759,-2.86,3.56,60.0,13500000000.0,-2.16107399546968,-11.127842446793638,-0.16827183126612916,0.21016094946640934,0.011517454695735452,0.09885608940817428,-0.2798258293190363,-2.1660563505186117,3.2174350609530107,0.43952663057765834,0.01100232002956595,1.062808248118605,1.975350895623018,1.8119280684513146,2.126799896605928,0.5891830651902057,0.1562212305369028,0.06426610374472704
270,270,13.5,-0.845,-10.2,2.15,1.01,-0.48,0.504,1.19,-1.13,5.22,60.0,13500000000.0,-1.5504170489748796,-10.759403548586835,0.986425965434734,0.7919394938445121,-0.3135230163171283,0.3771487510911521,0.45826338146034296,-1.7558456400297628,4.218103049651297,0.5034430906918409,0.00852663795890522,1.1372174060439686,1.9396100737527724,1.5639814989086969,1.8892902261647484,0.5396898830871768,0.13293079294099674,0.07270595152466468
271,271,13.6,0.16,-9.26,0.5479999999999999,1.94,-0.379,0.561,2.5,-0.0328,2.9,60.0,13600000000.0,-0.7567853257760634,-10.164002470068542,0.76805230710087,1.6270037620081808,-0.3568229490313553,0.503435850889158,1.4835438471250766,-1.0736320012364151,3.5594559592963337,0.5039283787403154,0.00747883538266722,1.2211710632547041,2.0114367884835174,1.3195041453110186,1.8230499806298355,0.47417686301492756,0.13565381516928285,0.0772948984233485
272,272,13.6,0.455,-11.0,-1.03,1.85,-0.183,0.468,3.05,-1.63,0.318,60.0,13600000000.0,-0.19451819377055546,-10.495970409860586,-0.1275315890217208,1.7892044473481532,-0.2418738369256384,0.4790950221921894,2.2701569834083117,-1.2939174219525629,1.9397224350324296,0.4560698556748411,0.007652697260635783,1.3264024854729788,2.127244117110169,1.439218364439906,1.8505696165099663,0.4077636210961947,0.1512299241142843,0.08012321337745534
273,273,13.7,-1.29,-11.1,-0.457,1.18,-0.399,0.376,1.5,-1.75,0.135,60.0,13700000000.0,-0.7028205903556924,-10.7358258855869,-0.2916350443918694,1.3460876588994994,-0.3457813566204477,0.4082792197305956,1.8834141962075817,-1.474496361918239,1.0379148991825533,0.45447455892264926,0.010524824029931622,1.3281565566887596,2.17996543503861,1.4527030519208253,1.9379416811257075,0.37921415078422843,0.18535882146201774,0.07864346577077294
274,274,13.7,-1.8,-9.84,1.07,0.521,-0.754,0.382,1.17,-0.49,1.16,60.0,13700000000.0,-1.2119106687277998,-10.380100644364283,0.3865757505425449,0.7459440593939723,-0.6157363386538239,0.3902280683562117,1.5251654012072886,-1.0847000481142195,1.0989199778701078,0.4667326990516472,0.012073883823127927,1.2395869026463013,2.4903707277703857,1.5048589483909431,2.041900552808451,0.3808429486322303,0.20490719579862987,0.0723320452652192
275,275,13.8,-0.6940000000000001,-8.58,0.962,0.253,-1.12,0.33,2.41,0.7240000000000001,0.71,60.0,13800000000.0,-0.9716006618496176,-9.665295030400232,0.6731862726728376,0.38739156599631547,-0.9492058859921766,0.34885752068643844,1.9694948554812977,-0.3685728619597029,0.9045792967377524,0.47221949433116217,0.01453160906066486,1.22293482955244,2.7040101322649766,1.7190708084317283,2.0341896383075695,0.37868773719584387,0.23137541391136074,0.06629935514625766
276,276,13.8,-0.486,-9.59,1.43,-0.0834,-0.936,0.318,2.71,-0.328,0.952,60.0,13800000000.0,-0.7462824624363942,-9.635396036002119,1.0501442441910187,0.04495212501720014,-0.9404728270427192,0.32766153504553563,2.341347665298484,-0.3525086597281794,0.9282751109166498,0.44762237958170153,0.01482209139762225,1.275057437425216,2.633934860528577,1.7515353777144798,2.218621997041035,0.3701538247027295,0.22822783951891956,0.06723345062481013
277,277,13.9,0.536,-9.01,1.67,-0.0351,-0.64,0.237,3.81,0.221,1.1,60.0,13900000000.0,-0.15130473251673893,-9.387056357700287,1.3588854309896201,-0.013275352576725291,-0.7417701460350221,0.26538628476141823,3.078847535400413,-0.12543665353818334,1.0140848831139202,0.46639990232918915,0.014783952275857883,1.2919957216856242,2.620185016113198,1.9762097211140848,2.465008377409688,0.37667807920970614,0.2265523067160935,0.07446926017103424
278,278,13.9,0.35700000000000004,-8.99,1.89,0.0351,-0.473,0.1,3.67,0.214,1.21,60.0,13900000000.0,0.08454812954667576,-9.229388359519318,1.6234259273258238,0.02191140605198461,-0.5640324498686947,0.15178273092965666,3.3757012759380736,0.008958112479152153,1.11198235493096,0.5087949015419997,0.013094566870945647,1.3853504882148193,2.6400070960511264,2.5006024676029135,2.7056682814659956,0.38755581377319287,0.2105657771973072,0.08973987569882551
279,279,14.0,-1.07,-9.43,2.65,0.0541,-0.198,-0.0543,2.22,-0.219,1.89,60.0,14000000000.0,-0.4511610214236974,-9.30904976031641,2.134747708161517,0.045324407925138935,-0.3219752009950295,0.010224857788589949,2.795353202503845,-0.08129842374521455,1.5007524787532929,0.45759914565305093,0.011172826611970792,1.3952362072966378,2.6954758216033188,2.9341859597405944,3.0718399552598554,0.37451396845098456,0.18993795322724216,0.09866626137103532
280,280,14.0,-1.87,-8.94,2.77,0.0315,-0.197,-0.0641,1.35,0.28800000000000003,1.93,60.0,14000000000.0,-1.1095008282695042,-9.162502882453838,2.4511576992776725,0.035268955249559725,-0.23932910226057386,-0.040828757463177295,2.0695532307481916,0.06491964916962988,1.7152445223717019,0.39440473348336275,0.00935122456146611,1.4141922638917659,2.553064390263321,3.2293608017129443,3.0887467250140235,0.3658499180976789,0.16940095405148137,0.09603001550180161
281,281,14.1,-2.0,-8.75,2.94,-0.0736,-0.403,0.0166,1.16,0.49,2.04,60.0,14100000000.0,-1.522691514172014,-8.998701283593004,2.694643024344896,-0.0439190063486351,-0.34756466015453896,-0.0013810428071689626,1.6128110703133185,0.23322373393415904,1.877522608917328,0.4155632798112186,0.012950677636155625,1.451965032416066,2.009254129077948,3.1931812676541824,3.081316857119065,0.3773272599520518,0.2136477106640768,0.10800449069611326
282,282,14.1,-2.33,-8.92,3.54,-0.23,-0.5820000000000001,0.177,0.826,0.316,2.59,60.0,14100000000.0,-1.8972817732758007,-8.96744966297116,3.1157031174047733,-0.17926865359187086,-0.5025967547433337,0.12114858976067122,1.2177052380241509,0.2659977396213209,2.2335426773975797,0.41042333619546206,0.013917061226650733,1.3074227148261275,1.5274968241954727,3.307369267587003,3.103355304019888,0.3746133631456835,0.23209620881334894,0.10916461772908187
283,283,14.2,-1.6,-9.08,3.99,-0.22,-0.1,0.203,1.61,0.138,3.05,60.0,14200000000.0,-1.7593433519337496,-9.012142472269632,3.551177784293052,-0.20889539286783096,-0.23635953384321814,0.17737217881423414,1.4147003681751051,0.215318985650827,2.6415208302244304,0.41250641811638017,0.014039251354009413,1.2479531961561614,1.4619433355903955,3.129536763132094,2.735547069349512,0.3574655416877534,0.21066822560815227,0.08865385063182589
284,284,14.2,0.182,-8.03,3.2,-0.22,-0.192,0.0557,3.44,1.17,2.27,60.0,14200000000.0,-0.858562065330143,-8.622141437489839,3.376261220772377,-0.21697254483037864,-0.20702457654145476,0.0937957684875269,2.4317268491813917,0.5933103541546941,2.4558743861428107,0.3858978963737569,0.013788894602230208,1.263807152277989,1.7231563144233772,2.448230049083937,2.6602863795317595,0.3223941322531833,0.193336736762635,0.07638322683083698
285,285,14.3,0.508,-10.3,1.25,-0.701,0.00367,-0.368,3.68,-1.1,0.471,60.0,14300000000.0,-0.2244786863375806,-9.288405742866994,2.3172011861708226,-0.5690393475850355,-0.06769225936474353,-0.22341095197458796,3.0585609541152268,-0.07713006126431278,1.4640461346627691,0.4151407510286221,0.01331133644989698,1.1683922084064313,1.936791852370127,2.097434926750897,2.39252904682655,0.28538287998446826,0.17206554230827711,0.07329334094818178
286,286,14.3,-1.74,-16.3,3.77,-0.57,0.23,-0.16,1.26,-6.99,3.37,60.0,14300000000.0,-0.9276789979287254,-12.07265349909849,3.0408193036494238,-0.5697380916745093,0.129171625619755,-0.17985407555195715,2.155393814144726,-2.814175378080604,2.416438273910363,0.46316050797388497,0.011919755720587588,1.1077310180731725,1.8193904905665164,1.8215212753782142,2.162450138453751,0.256830670624236,0.15156637704311915,0.0744188621589201
287,287,14.4,-1.3,-8.05,0.424,-0.00336,0.496,0.384,1.76,1.26,0.11,60.0,14400000000.0,-1.1004355320199566,-10.475290010016638,1.7374193636529869,-0.15777192739863946,0.37175521327898414,0.20745632248957552,1.9568424633073933,-1.2010677859519774,1.2639267393221405,0.5116001612576552,0.009103218195932562,1.156379546348291,1.5655408453987745,1.6148285924163621,2.0953742304566716,0.24169721880466466,0.1330968962919826,0.08414345248269517
288,288,14.4,1.31,-8.25,-1.15,-0.8290000000000001,0.575,-0.181,1.83,1.25,0.417,60.0,14400000000.0,0.018004011523572006,-9.591645126370144,0.29923745258057743,-0.6460027698413118,0.5061609767830209,-0.05937365409800127,1.893147148904589,-0.23060488323353945,0.8407232000143774,0.5470644604091717,0.007556474892551919,1.2834854413203114,1.5749957684098763,1.4637661309264063,1.9837425068439027,0.22987408126367118,0.13673660387742786,0.08941525441612534
289,289,14.5,-2.12,-10.7,1.18,-0.443,0.985,-0.142,0.909,-1.35,1.57,60.0,14500000000.0,-0.9740275644082886,-10.031763915560443,0.7379325429500568,-0.4983447331505432,0.8228172179926599,-0.11612955233269845,1.3989468397307412,-0.6738123145701392,1.2051378880781738,0.5195099195011545,0.008394566321614373,1.3667882987865663,1.784616416154583,1.584392316678219,1.8623979732021991,0.2256012719495981,0.1708425906356631,0.09011472178459869
290,290,14.5,-1.07,-9.7,-0.5870000000000001,-0.236,0.484,-0.107,1.83,-0.35,0.0658,60.0,14500000000.0,-1.0185586986546311,-9.900023039636046,0.07800275436007509,-0.3075231699081139,0.5987574001208218,-0.10985847905294316,1.615404939602353,-0.5456037654964663,0.6358184885327167,0.4859458339194137,0.00870961930441274,1.3668272142669016,1.9859081434204457,1.578496480845844,1.9350653521311985,0.22726869830547733,0.1979220082709092,0.08455235795422622
291,291,14.6,-1.99,-9.96,-0.524,-0.477,0.214,-0.0635,0.8109999999999999,-0.596,0.313,60.0,14600000000.0,-1.4693064526108712,-9.923839426548355,-0.22184612592766054,-0.43079545014606574,0.34431734393909863,-0.07801492083121195,1.2114641598145934,-0.5655573920642539,0.4745082799987478,0.48423095073042105,0.0141642439558471,1.2413324777538952,2.413377645302863,1.5713683065062904,1.9892185718011073,0.2440795548064766,0.26934210825101224,0.0695962931984496
292,292,14.6,-1.89,-10.3,0.235,-0.449,0.927,0.0153,0.828,-0.895,1.35,60.0,14600000000.0,-1.6645078127108908,-10.073209860606736,0.005702337344190928,-0.4440368856437729,0.7296453578418293,-0.013917061975628031,1.018903425250944,-0.6959951600030838,0.9119855558351786,0.5285822759871737,0.0139038396595122,1.2794776446602951,2.609900887006402,1.628623229132035,2.125907060003135,0.27164844748121797,0.28311488957743175,0.06927787665014566
293,293,14.7,-0.986,-9.72,-0.17,-0.381,0.535,0.0508,1.67,-0.385,1.22,60.0,14700000000.0,-1.3496808967146146,-9.932953153024762,-0.08181246259815357,-0.3981857848370293,0.6009264058586914,0.03053697628446668,1.345858699153328,-0.5728613663590159,1.0658982950648144,0.5165762475041523,0.0155974801843054,1.2378020865292998,2.6360146778267772,1.7469002222461614,2.395416215118215,0.282462790171486,0.29304223487559455,0.06556199348856846
294,294,14.7,-1.3,-9.6,-0.431,-0.237,0.526,-0.0152,1.3,-0.279,1.13,60.0,14700000000.0,-1.3266289903862354,-9.80074026762277,-0.2557377337597586,-0.28094415938597833,0.5513775910384707,-0.000879674321482289,1.3228302258013074,-0.4565114463050474,1.09792947909673,0.5119151942188064,0.015771535047662766,1.320390417153451,2.352020619860772,1.8017282375509012,2.6988514043007426,0.29107829147481706,0.2947060897183082,0.07958018323690547
295,295,14.8,-1.63,-9.95,-0.747,-0.284,0.451,-0.0744,0.87,-0.626,0.96,60.0,14800000000.0,-1.4673928198813382,-9.860010039074586,-0.5004283697832435,-0.2831668914892113,0.4849978963941665,-0.05138065990439841,1.0954365572586011,-0.5236178487655345,1.029007044836936,0.5212954364286484,0.01351257036040985,1.3860658133771493,2.7260680956028405,2.4261555698511312,2.8234543459298216,0.30302342849977654,0.27627952962117774,0.09706276723475692
296,296,14.8,-1.58,-9.89,-0.52,-0.338,0.385,-0.161,0.809,-0.562,1.34,60.0,14800000000.0,-1.5196424537946185,-9.871918949278923,-0.5101767068982244,-0.3230508233062446,0.4188692841891604,-0.1266779952164856,0.95159930200331,-0.5388146668373058,1.1844081281575105,0.5172886548402861,0.012188612277190354,1.4324052067336528,2.7108376645911583,2.94470202613579,2.9559747836951713,0.305113129248538,0.271414034963204,0.11048213223995537
297,297,14.9,-1.39,-9.8,-0.579,-0.293,0.416,-0.252,0.845,-0.471,1.44,60.0,14900000000.0,-1.4594884839575362,-9.843360584868167,-0.5444565942524644,-0.3011927793837821,0.4169718323165621,-0.21276146777280394,0.8980693061793864,-0.5119644783381486,1.312125678481177,0.4429651835815075,0.011425066778115929,1.374649983277226,2.5000729733501537,3.307990983480221,3.0960381850237493,0.2914677833143333,0.2817975138319611,0.1079489666180692
298,298,14.9,-1.31,-9.82,-0.551,-0.294,0.4,-0.26,0.728,-0.47,1.61,60.0,14900000000.0,-1.3901259569336537,-9.834084162077499,-0.5477157697666006,-0.29596097067709404,0.4057483640542515,-0.2452095278491921,0.8126671289312541,-0.495349282769345,1.460971460173888,0.4607873556466878,0.010892945113264014,1.394546322298838,1.9257491978702128,3.3593279764559445,2.9601800942647483,0.2935678458754262,0.27622505259596863,0.11495271546620042
299,299,15.0,-1.8,-9.68,-0.498,-0.275,0.371,-0.238,0.0783,-0.326,1.78,60.0,15000000000.0,-1.5803070628370357,-9.772898693580876,-0.5229530601675298,-0.28071460370005424,0.3827692665825159,-0.24025731932284056,0.4438966098227376,-0.4282980193923557,1.620387839577104,0.45226145963247155,0.014141469171265962,1.333877158493885,1.646552380578924,3.326474045275561,3.0415507565196473,0.2798546593830004,0.29462541979327306,0.115404879730383
300,300,15.0,-1.41,-10.1,-0.515,-0.193,0.476,-0.277,0.29,-0.7290000000000001,1.74,60.0,15000000000.0,-1.5012847480125806,-9.90278816040725,-0.5189917485262782,-0.2169136766438252,0.4444227550591856,-0.2654958104313321,0.3666157328936929,-0.5473563709347127,1.6801572281964952,0.36398815408861895,0.014441670027300598,1.2116672625172469,1.7424224337243088,2.8685468952071016,3.0774533262879573,0.2405034101373999,0.2734276363350431,0.09985084685381562
301,301,15.1,-0.713,-9.74,-0.383,-0.146,0.428,-0.35200000000000004,0.7559999999999999,-0.282,1.75,60.0,15100000000.0,-1.1355214477706748,-9.838146191645937,-0.4512562140184696,-0.1653332276933869,0.43356238967878186,-0.3249153883145525,0.5621493100393211,-0.4422925655280283,1.7150571867173354,0.39258099013406694,0.014566000964403775,1.1492610607477702,1.9629356385150216,2.3130285092048486,2.9716744482971023,0.21410481706756188,0.24979184896417564,0.08150679948925889
302,302,15.1,-1.03,-9.53,-0.551,-0.104,0.448,-0.293,0.502,-0.207,1.57,60.0,15100000000.0,-1.0865595929061238,-9.715783694894474,-0.5009371541545639,-0.1207213084794451,0.44310999009756746,-0.3029927715943333,0.5319446605038707,-0.349132064116748,1.6425731223212099,0.44415185046730465,0.01346464741466387,1.1133334305951532,2.1804408455580457,1.754663798640846,2.7303607793866984,0.19275705982758104,0.22727635030089,0.07556335834642659
303,303,15.2,-1.71,-10.3,-0.608,-0.114,0.525,-0.183,-0.648,-0.726,1.14,60.0,15200000000.0,-1.3758353085565291,-9.947771397696137,-0.5542636031406645,-0.11583243355788887,0.4972638354332348,-0.22056994179729375,-0.060577510059381175,-0.4983471791528388,1.3914407407013385,0.4676500395810647,0.011228394335664676,1.1098380732140705,2.05725473572439,1.5493054184356265,2.5861519827770394,0.16910306653592255,0.18662854643481447,0.08475965020191735
304,304,15.2,-2.12,-11.5,-0.6459999999999999,-0.0449,0.373,-0.083,-1.12,-1.85,1.02,60.0,15200000000.0,-1.7211268952949088,-10.564148973877904,-0.5999561925426055,-0.06423834302988599,0.4150881620928795,-0.12607338296331275,-0.5925781505180076,-1.033513505699403,1.2058343168102363,0.5394038685970455,0.00933148257578451,1.1216401291585127,1.7931675951862924,1.5141217678409007,2.3442821476617137,0.1656413573014224,0.16677647478582044,0.0935297217588588
305,305,15.3,-3.16,-11.4,-0.168,0.202,-0.303,0.0862,-2.19,-1.73,1.48,60.0,15300000000.0,-2.3887625533594417,-10.896058586699187,-0.3848050445321575,0.12941531954248975,-0.05978352009830978,0.01973683830488804,-1.3947411041013005,-1.3092767168791122,1.3428330554018846,0.6158056125640998,0.007522141703765744,1.2668261468918982,1.8405563910843514,1.541972831061728,2.2933512545774404,0.17720947571071483,0.15714195936722822,0.10512205013198993
306,306,15.3,-1.69,-11.5,1.44,0.546,-0.77,0.503,-0.5489999999999999,-1.89,2.89,60.0,15300000000.0,-2.064537484736923,-11.135878896628816,0.524104046845241,0.4324263240116398,-0.5294496444286494,0.3516894881989299,-0.9700429330695158,-1.539205237159594,2.115941917752782,0.5554851894180899,0.00795976143966958,1.3151606166743168,2.0911270723279842,1.7106483784250617,2.2289373673438386,0.17333949633065354,0.18069096252934247,0.10613636580547174
307,307,15.4,-0.385,-9.15,1.04,1.38,-0.75,0.687,1.09,0.4970000000000001,2.02,60.0,15400000000.0,-1.2852338410183817,-10.347302101814439,0.7810643583353205,1.121662536395467,-0.6752995879797762,0.5820136866145359,0.06443026624057435,-0.7330008290763541,2.0680003838018366,0.526372345479088,0.009663253428473332,1.371196665890034,2.1587200184978266,1.7624928445719128,2.1579790271355384,0.17961354956520573,0.22086457114549088,0.10558181352734264
308,308,15.4,0.479,-10.5,-0.168,1.91,-0.956,0.589,2.28,-0.892,-0.0727,60.0,15400000000.0,-0.4666311798470896,-10.407937217178226,0.3083490964664866,1.6950751595952696,-0.8609267425131515,0.5868125641048663,1.1770029254079368,-0.7959541332654995,0.9983069464369914,0.5773700351566095,0.012118597181219907,1.2514563683425788,2.4772432673117644,1.778356740195677,1.9642988682509208,0.2049498125728853,0.2722136255029496,0.08772904172357193
309,309,15.5,-1.27,-11.1,-0.943,1.52,-0.895,0.3,0.698,-1.52,-1.81,60.0,15500000000.0,-0.8393934647413254,-10.682749970362616,-0.31492984224076354,1.5677308098174665,-0.8834593740580834,0.3898015147773756,0.936466352874687,-1.0826290424824356,-0.40498492495647787,0.5646695874345522,0.014344916156050597,1.3525730463528616,2.761458431387186,1.8024448947733713,2.1890277073379067,0.22007961777188778,0.303609711729832,0.08372149375481275
310,310,15.5,-2.05,-10.8,0.455,0.925,-0.795,0.392,0.0151,-1.37,-1.11,60.0,15500000000.0,-1.4011136109679307,-10.729309096081957,0.06856110952270339,1.1002280138034144,-0.8249612036725359,0.3913116434575367,0.4737921204059112,-1.1964091916139228,-0.7572761748521372,0.5352174881928592,0.01536785535846093,1.4031250835395783,2.781418801573771,1.8437694719727378,2.2708892897220023,0.23239340782627685,0.32417869749443734,0.08831896105166202
311,311,15.6,-1.83,-8.76,0.979,0.466,-1.36,0.5379999999999999,0.35700000000000004,0.5870000000000001,-1.02,60.0,15600000000.0,-1.6001164675862682,-9.947312279043242,0.5220375705246492,0.638909877064218,-1.1787823531613577,0.4920716150278373,0.41514367116279743,-0.49029552034809204,-0.8885574756606045,0.5614626103797259,0.014598473592171474,1.4393321966457882,2.5966217138788963,1.9412433218180387,2.5736642415257074,0.25464722773414306,0.30742579331316455,0.09954531068557783
312,312,15.6,-0.532,-8.53,1.08,0.108,-1.22,0.438,1.74,0.74,-1.18,60.0,15600000000.0,-1.1045115442927156,-9.384508790856463,0.7999506272758816,0.25274221330574115,-1.2060396007044558,0.4549299111429455,1.0804348312530083,-0.0031787714859908283,-1.034189298645726,0.5296306755538062,0.013549983417467493,1.5252093405334306,2.765452173012897,2.2306749296256787,2.722490802212291,0.2679780629689799,0.29931075210294983,0.12638519304938156
313,313,15.7,-0.397,-9.43,1.6,-0.0547,-0.8809999999999999,0.344,1.91,-0.203,-0.78,60.0,15700000000.0,-0.7762269333206571,-9.402573107730511,1.1984436879273517,0.029118117445238456,-0.9910909108007759,0.3787323537903029,1.4970100743899386,-0.08229493664926124,-0.9071726189149824,0.5137491562350829,0.011415737072364084,1.5902937558461694,2.873655564595602,2.7151461099333023,2.863972144354741,0.2854937360671427,0.2814377387319872,0.14188343204957898
314,314,15.7,-0.299,-8.99,1.7,-0.0822,-0.695,0.434,2.07,0.212,-0.7290000000000001,60.0,15700000000.0,-0.5547941322148637,-9.23874353208624,1.4482616738497265,-0.051851287601870674,-0.7952859956029668,0.4166955950274344,1.7847432246755122,0.034226653526019404,-0.8181409580240128,0.49163920873181094,0.011493799671121156,1.6386932616997443,2.682506252004235,3.153847895459852,2.9828957213618357,0.30399491252261024,0.3187684151036765,0.16083005196895325
315,315,15.8,-0.6559999999999999,-9.15,1.9,-0.151,-0.455,0.238,1.79,0.021,-0.5489999999999999,60.0,15800000000.0,-0.6017535576045288,-9.203504033047679,1.6732660041736411,-0.12396903454450407,-0.5702548855472767,0.2939499015835767,1.7873829529794962,0.02898976170179517,-0.6836530623780543,0.460314878716827,0.01035064539966364,1.5643852618208256,2.28661796849281,3.4027902710376203,3.1591728540627515,0.3182473936323197,0.30577478797371627,0.16014712330475978
316,316,15.8,-1.78,-9.76,2.97,-0.0883,-0.465,0.099,0.655,-0.574,0.5379999999999999,60.0,15800000000.0,-1.1484586633802314,-9.424484226192893,2.319150511388592,-0.0980244637114056,-0.5006498352439948,0.16003914875737102,1.2187444027704388,-0.20975483717466936,-0.07320133387104377,0.4753949564062681,0.012484782393908609,1.5825122655490929,1.948056348158296,3.4211410955918136,3.234643786044676,0.3343115855088991,0.31883055792685683,0.15376287666490207
317,317,15.9,-1.43,-8.07,2.28,-0.118,-0.34,0.111,0.96,1.12,-0.175,60.0,15900000000.0,-1.2790935252735385,-8.88662924066977,2.299650192311729,-0.11255406059978336,-0.3944121063610129,0.12635424271185702,1.088813048573297,0.3167413092037258,-0.12406943417157032,0.4047087067669427,0.014364378861482032,1.4581615376087247,1.7477201339342778,3.0970526630947957,3.155244435979507,0.30556263281395885,0.3429991347416981,0.1397014729558028
318,318,15.9,-1.65,-8.25,2.42,-0.301,-0.312,0.0838,0.73,0.954,0.0267,60.0,15900000000.0,-1.4511937312162977,-8.633828855656857,2.359594733015057,-0.24962389358362624,-0.3399129871432497,0.097123808519149,0.9086311452701828,0.5690541659493361,-0.04873097265083,0.35819698797765953,0.014727913445736106,1.4276737386084948,1.7892766749614062,2.732043741638659,2.896659071926589,0.27023867042631083,0.3344992469831,0.1278533550781097
319,319,16.0,-3.17,-9.51,3.32,-0.366,-0.382,0.14300000000000002,-0.785,-0.268,1.04,60.0,16000000000.0,-2.2487180807068268,-8.98174950764504,2.83795870572356,-0.3342723245542277,-0.3677451270152107,0.1286360902137999,0.0581556527857775,0.2376353342246193,0.4953004778969802,0.4074124772389574,0.014653987767701354,1.288040875467809,1.9703459660039961,2.417000402008601,2.7182691288909515,0.24789717650234433,0.3226184570778292,0.10385481418330522
320,320,16.0,-2.55,-9.55,4.22,-0.281,-0.265,0.279,-0.108,-0.31,2.02,60.0,16000000000.0,-2.388512554561744,-9.207397313765012,3.526333428658995,-0.2955236505800193,-0.2997997681292484,0.2319208111707129,-0.025281234414255047,0.020807475997860952,1.2571824599320407,0.4058019342779458,0.012693740405811945,1.3140760419774105,1.9812411592780335,2.2073839709876206,2.5453173672431513,0.21913773859323377,0.2819015612757581,0.10975140449264603
321,321,16.1,-0.922,-8.7,1.36,-0.578,-0.237,0.0606,1.59,0.536,-0.767,60.0,16100000000.0,-1.7080522562439544,-9.00591381866634,2.447314012629428,-0.5009883456427142,-0.2582702856274703,0.11424084125843445,0.7858499934748302,0.22479010272266411,0.2457122283195927,0.46477446084290125,0.010965158190707282,1.2667394187323378,1.909492201005303,2.0152401415900116,2.3873287504282485,0.2107386221849472,0.2558560992910176,0.11864053313612051
322,322,16.1,-0.366,-15.1,1.62,-1.09,0.389,-0.378,2.06,-5.79,-0.111,60.0,16100000000.0,-1.085341409050212,-11.425826903019695,2.0352408424883643,-0.9294174979451516,0.1697695339769344,-0.22387854083209446,1.4256783834285744,-2.156674277318153,0.06746555080828576,0.5326051620532728,0.008579905245855775,1.3900117682037494,1.7857751012667602,1.7759179845552466,2.248710333649679,0.21463366793567512,0.2418606803946077,0.14022025832938464
323,323,16.2,-2.07,-9.92,4.14,0.369,-0.17,0.0178,0.239,-0.505,2.64,60.0,16200000000.0,-1.542221936182267,-10.827875101185157,3.083590943127797,0.01501181364995263,-0.054920049875025495,-0.05786996665710395,0.8297747971942397,-1.5027190389824945,1.3529435883060732,0.5349265801903436,0.0071175974236718466,1.4570479563097773,1.8973588550680889,1.7639503245887374,2.3355113995148544,0.20814144132737525,0.2535542575470881,0.15421798962866032
324,324,16.2,1.95,-4.98,-3.33,-0.725,1.3,-0.25,4.28,4.44,-4.79,60.0,16200000000.0,0.07816541806235833,-8.505730628666193,-0.11092612701935198,-0.5232502460539417,0.8410885071003646,-0.18984375646507173,2.5623433790436643,0.8502099404587962,-1.7166435652447014,0.4774829597378137,0.009943728010951315,1.5295942339719741,2.01075886873494,1.833403742208761,2.293751434724975,0.19072918072058243,0.32497123586843435,0.16836075203074902
325,325,16.3,-3.43,-12.1,1.48,-0.441,0.204,-0.205,-1.22,-2.59,0.449,60.0,16300000000.0,-1.5496197039779342,-9.932986430478044,0.6814912311439851,-0.4634239341209187,0.4197818938631319,-0.20025455288126576,0.6629980986141959,-0.5118886765675303,-0.6344861897629996,0.5485656157759979,0.012067097297670304,1.4575073779538283,2.1530731426879,1.8350106368112467,2.0491764629492604,0.2198888447008337,0.374802281841231,0.15160125363439858
326,326,16.3,-0.879,-9.92,0.397,-0.32,0.224,0.0135,1.3,-0.397,-0.42,60.0,16300000000.0,-1.2384528652952116,-9.927829652988214,0.5397902611499189,-0.3591017298946033,0.2903113378720946,-0.05342691751456646,0.982875575102866,-0.4664002633768012,-0.5273088915205196,0.5094146552587706,0.013910671739890555,1.3254627676154334,2.596382739156584,1.9100177756429992,2.2014151156522526,0.2243902180798619,0.41554594383364646,0.12312530313401208
327,327,16.4,-0.6559999999999999,-9.51,-0.211,-0.408,0.318,0.0172,1.49,0.0431,-0.8220000000000001,60.0,16400000000.0,-0.9681953523515516,-9.761912926994464,0.1658324673537198,-0.3946688359093984,0.3086218418998605,-0.004913408815454129,1.2375336791722429,-0.2646714059330996,-0.6745640494810128,0.5058626107845992,0.01654407275466213,1.4932332853549644,2.8702160435947772,1.9202456942872135,2.309232401646712,0.22696578281019497,0.45338457998103493,0.14102647376616198
328,328,16.4,-1.41,-10.2,-0.0862,-0.31,0.85,0.0636,0.7240000000000001,-0.634,-0.444,60.0,16400000000.0,-1.173192232079475,-9.935873727774863,0.040298732468883665,-0.33308330657452284,0.6666352174462331,0.042148336542986935,0.9796570909766328,-0.4109014305568965,-0.5593527633908267,0.547156769950096,0.015300611279006551,1.490654328695726,2.7536046003761756,2.0851208031547306,2.485443481368296,0.2517611167072936,0.438573980220475,0.14983064357433243
329,329,16.5,-0.225,-9.59,-0.62,-0.198,0.633,0.0263,1.91,-0.0205,-0.765,60.0,16500000000.0,-0.7332320236473784,-9.798530094483578,-0.28858654120968485,-0.2348278250779685,0.6443922598750809,0.03126214141878453,1.4468389831499626,-0.25632793930316233,-0.6621132830982867,0.5391419233980236,0.01466688912849715,1.5624393717863307,2.6133556079968843,2.283009962907313,2.879143329931541,0.2584295522180395,0.4247734261224148,0.1789693568603858
330,330,16.5,-1.94,-9.9,-0.0694,-0.108,0.79,-0.0182,0.132,-0.313,-0.0524,60.0,16500000000.0,-1.2931711312248866,-9.838822831774587,-0.17941288643943676,-0.14257713206511402,0.7406826682601015,-0.002713319055560173,0.7865781476384343,-0.2787663747454385,-0.35744369845075274,0.5131575060738911,0.013795618340632636,1.6152748733383482,2.8098454972454605,2.7043072987274144,2.9028848903327042,0.256115958227795,0.41673481810267243,0.2081349809062902
331,331,16.6,-2.34,-9.69,-0.424,-0.232,0.494,-0.0476,-0.307,-0.103,-0.255,60.0,16600000000.0,-1.778898593505112,-9.779726307695661,-0.3012381961038617,-0.2076205963009234,0.5775514190675435,-0.03354590383060915,0.2374258653316109,-0.20917435974785376,-0.3062532760097965,0.4939395835135445,0.011645439002201451,1.6197393032073022,2.7123834191776,3.082847444625102,2.8125348559353376,0.2613385375795605,0.40671201492278525,0.22245238213784352
332,332,16.6,-1.41,-9.61,-0.622,-0.268,0.329,-0.15,0.5770000000000001,-0.00729,-0.29600000000000004,60.0,16600000000.0,-1.6077300158023735,-9.712329210636048,-0.4610050119562137,-0.25153873942441696,0.4131843705401637,-0.11353802650584002,0.4079467573252844,-0.1292413269675579,-0.3011297855601535,0.4745186561372525,0.013035742248421398,1.5883721832313142,2.2443710050672974,3.2693370096657355,2.9834129981258237,0.2667504262201971,0.4394448915687157,0.23147771912850557
333,333,16.7,-0.912,-9.57,-0.601,-0.4370000000000001,0.37,-0.194,0.968,0.0359,-0.0795,60.0,16700000000.0,-1.2849120151110458,-9.655811297072924,-0.5307345009993427,-0.3864376133613545,0.3846265507452667,-0.16880722178912527,0.6891836410911585,-0.06385613733111427,-0.19038288618790747,0.46320054022676943,0.012947348779697781,1.4587930536162432,2.0962600297007032,3.264960523121683,3.0619542359515277,0.2666212014084546,0.4246101234196199,0.2205023601831203
334,334,16.7,-1.46,-9.73,-0.419,-0.447,0.139,-0.302,0.266,-0.107,0.335,60.0,16700000000.0,-1.3661526749882948,-9.685270856487774,-0.47508115813112,-0.4304888455887713,0.22219371912869984,-0.2602971028073601,0.4766773295664782,-0.08093829197084976,0.07214737647594069,0.46388006886327937,0.013570818566519254,1.4183231718145313,2.0591361528547973,3.2902632112403394,3.1387811944053006,0.256303914048095,0.4147803209004239,0.20952157627464182
335,335,16.8,-1.66,-9.69,-0.35200000000000004,-0.52,0.408,-0.28,-0.0932,-0.0592,0.631,60.0,16800000000.0,-1.5024975114967138,-9.687148594965748,-0.4137762082332944,-0.4955965176993008,0.3450674020732284,-0.2738309898566261,0.1905071709781868,-0.07233134685503978,0.3514022264894202,0.3877313292119976,0.01642081777767492,1.4210865901023426,1.9740455242020902,2.977398265471872,2.789278956121814,0.2100823415370407,0.45449649860829816,0.1981501313435934
336,336,16.8,-1.79,-9.76,0.151,-0.314,0.512,-0.334,-0.393,-0.131,1.35,60.0,16800000000.0,-1.635898348277424,-9.716077396733368,-0.13246933141694328,-0.36350875227032103,0.4554599401775993,-0.3151609736530849,-0.10250736644614272,-0.0955603040854892,0.8503947608156965,0.3664100700310698,0.014687700135945557,1.2431546504533837,2.097507235684331,2.6456037305277245,2.782790342629579,0.17633925574844975,0.39614261624319824,0.16546545970887253
337,337,16.9,-2.18,-9.87,0.194,-0.00947,0.591,-0.191,-0.943,-0.23,1.47,60.0,16900000000.0,-1.8883609775491708,-9.777198787256287,0.03014033484088768,-0.10599175268467093,0.5450925912486381,-0.2298750139239356,-0.5245699821428795,-0.1487896526716989,1.160007303201053,0.4163890435982806,0.01374421710588905,1.1777968953192743,2.1737451254745572,2.2445167381521363,2.6513412722451486,0.16667727970743998,0.3700723735998964,0.16054965568523677
338,338,16.9,-2.55,-9.97,-0.979,0.048,0.74,-0.115,-1.41,-0.315,0.285,60.0,16900000000.0,-2.1953607710162384,-9.853758714453905,-0.47249789145204,0.006017155825473533,0.6739848611403519,-0.1509675656573285,-0.9691983727768116,-0.2145981034786401,0.7227720972748656,0.44744543972620027,0.010997500570369306,1.1839503704765129,2.1469762135034642,2.2092331277887363,2.6040690845713077,0.15627969595258903,0.31739208105657524,0.17573895362614614
339,339,17.0,-2.42,-11.0,-0.333,0.0278,0.414,0.119,-1.3,-1.31,0.929,60.0,17000000000.0,-2.299593174116609,-10.308921970855533,-0.40301600664891946,0.02186133239542346,0.5020568832300769,0.034472693249460014,-1.1353140188562976,-0.6483057531421064,0.8258227890507179,0.5092057610517874,0.009618103104755818,1.2750143338264903,1.9786351285176946,2.0723781169558757,2.4682088074163033,0.1664717412863245,0.30459876597144553,0.19179350338891044
340,340,17.0,-1.37,-12.2,0.919,0.537,-0.0635,0.431,-0.151,-2.49,2.11,60.0,17000000000.0,-1.8682629141379603,-11.059853871401579,0.25546110584188264,0.39655750138432977,0.12805413190399284,0.3068466150592757,-0.6410299209279046,-1.3774965018534648,1.4675173635512402,0.5926980682660997,0.007653768084750866,1.411954406962174,1.974957009977098,1.8846160676272392,2.3798089346843807,0.19506649692786593,0.2899570655463198,0.21166485117240522
341,341,17.1,-1.67,-11.9,1.89,1.57,0.00611,0.652,-0.181,-2.25,2.61,60.0,17100000000.0,-1.7762691090738636,-11.393469035099766,1.069601337410365,1.2500838539123236,0.047412481091064176,0.5439318890513448,-0.41002084114134185,-1.7229509532954974,2.0384081219230303,0.5509916055750136,0.007628462481187002,1.4869583418813357,2.1305678456212265,1.920872627978315,2.3185074891945447,0.18395693338567698,0.31491380548838893,0.2174708923510927
342,342,17.1,0.917,-9.98,0.953,2.11,-0.0849,0.711,2.74,-0.35,0.789,60.0,17100000000.0,-0.5265950565281514,-10.832191592637402,1.0115238981799366,1.8755605774586184,-0.040085758173880034,0.6586907047847085,1.1717967230393134,-1.1793519631549163,1.414087359920693,0.5023862894985831,0.011192799087609622,1.502061566455263,2.1369120816320386,2.0070079957412847,2.218928536630642,0.17321842475511592,0.41355167738175447,0.21201059543719905
343,343,17.2,1.04,-10.8,-2.94,1.87,-1.15,0.13699999999999998,3.1,-1.25,-4.17,60.0,17200000000.0,0.2003033963008156,-10.819408644140555,-0.9566731681311464,1.8715159863348731,-0.7740719973718815,0.3003422522091213,2.140065126499774,-1.2073239757206196,-1.3762431906611678,0.5214978396303224,0.013531180123748588,1.4659407663709296,2.3780003421120366,1.9427594211254384,2.190259886311553,0.19084445494496113,0.4670223015792229,0.18313466689123417
344,344,17.2,-2.99,-11.4,2.31,1.22,0.0996,0.0526,-0.956,-2.01,0.271,60.0,17200000000.0,-1.2799940529752851,-11.049956681340873,0.6704095741371434,1.3976231327780502,-0.1963127301731352,0.13016852484517716,0.5853420366111441,-1.5251313002157527,-0.5531269616165542,0.49224887973081577,0.015679334812470642,1.5034405094287404,2.669854781979892,1.9713394066723633,2.1176877555979163,0.200561664658721,0.50635278937202,0.17122282134304284
345,345,17.3,-0.675,-8.7,1.19,0.8859999999999999,-0.375,0.0581,1.38,0.546,-1.37,60.0,17300000000.0,-0.9992774496073096,-10.1168075828177,0.9292100966773432,1.0254840407361645,-0.3144786163719538,0.08066477896508056,0.9843882575881382,-0.7050984521891686,-0.9613128710045388,0.560031781895195,0.017766092879819735,1.5702601885317873,2.7447242652700425,2.105793699413524,2.2096086100787082,0.23815118863962526,0.5470977009127037,0.1738035046867016
346,346,17.3,-0.383,-7.85,1.35,0.364,-0.325,0.0141,1.62,1.31,-1.53,60.0,17300000000.0,-0.7133253501462198,-9.216676364853932,1.1387994878909753,0.5443407019850126,-0.3214363991675795,0.03494154683790158,1.3035676768204951,0.0927490201870661,-1.2454819511008934,0.5608920082549187,0.014540565231693541,1.7210968378216598,2.591999987453167,2.2419641638711743,2.5814663056234846,0.2551173621036409,0.5000426519637167,0.23546495568680167
