,Unnamed: 0,Time (s),Acceleration x (m/s^2),Acceleration y (m/s^2),Acceleration z (m/s^2),Gyroscope x (rad/s),Gyroscope y (rad/s),Gyroscope z (rad/s),Linear Acceleration x (m/s^2),Linear Acceleration y (m/s^2),Linear Acceleration z (m/s^2),Still,Walk,Run,Cycle,SPM/RPM,Timestamps,Acceleration x (m/s^2)_kalman,Acceleration y (m/s^2)_kalman,Acceleration z (m/s^2)_kalman,Gyroscope x (rad/s)_kalman,Gyroscope y (rad/s)_kalman,Gyroscope z (rad/s)_kalman,Linear Acceleration x (m/s^2)_kalman,Linear Acceleration y (m/s^2)_kalman,Linear Acceleration z (m/s^2)_kalman,Acceleration x (m/s^2)_kalman_max_freq,Acceleration y (m/s^2)_kalman_max_freq,Acceleration z (m/s^2)_kalman_max_freq,Gyroscope x (rad/s)_kalman_max_freq,Gyroscope y (rad/s)_kalman_max_freq,Gyroscope z (rad/s)_kalman_max_freq,Linear Acceleration x (m/s^2)_kalman_max_freq,Linear Acceleration y (m/s^2)_kalman_max_freq,Linear Acceleration z (m/s^2)_kalman_max_freq
0,0,0.0484,2.49,3.63,8.8,-0.284,0.616,-0.006640000000000001,-1.86,-1.89,1.96,,,,,135,48400000.0,1.2072720795040597,2.064870217526196,5.990830379075852,-0.2728404431361119,0.568231780835971,0.09616161061234144,-1.5064746271625684,-1.3746481067745029,1.161780578387157,,,,,,,,,
1,1,0.0984,1.19,3.03,9.38,-0.028999999999999998,0.64,0.0422,-2.85,-2.4,2.29,,,,,135,98400000.0,1.2039277566424598,2.5358000313913442,6.672829873771358,-0.1327546812757889,0.5827536906180999,0.06349599246575434,-1.8042131575270075,-1.9270460996633512,1.4289821854681222,,,,,,,,,
2,2,0.14800000000000002,-2.86,2.37,6.98,-0.6459999999999999,0.526,0.512,-6.81,-2.98,-0.228,,,,,135,148000000.0,-0.014951806779444963,2.4380565723382026,6.766645421321452,-0.46221355629094,0.5664891860154827,0.3656269320562038,-3.4754494271502026,-2.5902683423423047,0.8521013675743216,,,,,,,,,
3,3,0.198,8.61,2.06,7.49,-1.14,0.6729999999999999,1.95,4.61,-2.65,-0.132,,,,,135,198000000.0,2.9901184924840654,2.208970883476583,7.021477590444069,-0.9030144617712208,0.6013207309516372,1.4441996211328039,-0.4013145362699864,-2.6286128580940664,0.4660868574875587,,,,,,,,,
4,4,0.248,1.63,0.0718,8.4,-1.71,0.979,1.12,-2.44,-3.86,0.388,,,,,135,248000000.0,2.4890887204162593,0.9085221922371598,7.533429619767428,-1.4286707810756731,0.7315652314984439,1.2232639819558988,-1.211716245404719,-3.420994291797244,0.434218516765192,,,,,,,,,
5,5,0.298,0.328,1.01,9.2,-0.413,1.39,0.7040000000000001,-3.21,-2.19,0.63,,,,,135,298000000.0,1.6760122484159992,0.9703098799432356,8.164776207634343,-0.7669535986938101,0.9636107044521368,0.8693577181676708,-2.0184813960500883,-2.6286245460136133,0.5151976039206854,,,,,,,,,
6,6,0.348,-1.22,1.19,11.2,1.94,1.24,1.3,-4.27,-2.29,2.53,,,,,135,348000000.0,0.5776159020808849,1.1040876303289464,9.323297261118867,0.9966882155366148,1.0618883437290587,1.1628667086242626,-2.9324432364575355,-2.4106493258013133,1.3523615811289478,,,,,,,,,
7,7,0.398,0.563,-1.62,10.6,0.278,1.3,1.27,-2.53,-5.39,2.06,,,,,135,398000000.0,0.5720552966367346,-0.5547382368973646,9.811999413059477,0.5284451864112302,1.1468668617661926,1.2358846593032309,-2.7687665447820637,-4.328489331202261,1.6468457764846935,,,,,,,,,
8,8,0.448,-1.77,-0.124,13.5,-1.11,3.77,-0.645,-3.73,-3.45,4.53,,,,,135,448000000.0,-0.3200304239381646,-0.2924407423019733,11.225242481376014,-0.5390424776266255,2.0844426466579042,-0.04605468933468626,-3.1599699102936034,-3.762995973556956,2.847305134801726,,,,,,,,,
9,9,0.498,-3.1,1.07,10.8,3.1,0.258,0.478,-3.85,-2.43,1.72,,,,,135,498000000.0,-1.3793954146028806,0.5372161102747908,11.062222233642919,1.83188394234158,1.4312170733223788,0.31112102544660336,-3.440864983539448,-2.9049315614331275,2.377844726058549,,,,,,,,,
10,10,0.5479999999999999,2.5,-1.22,7.11,0.631,1.51,0.246,1.96,-5.71,-1.59,,,,,135,548000000.0,0.09918429367192694,-0.5328388193955826,9.546866617072997,1.0494782368325042,1.4594009663800331,0.2667370183181468,-1.242116828090738,-4.710585611307123,0.7253552266852137,,,,,,,,,
11,11,0.598,-2.54,-6.31,3.31,-2.25,2.49,-1.33,-2.2,-10.5,-5.54,,,,,135,598000000.0,-0.9067721234024362,-4.050835071068745,7.155393106192482,-1.1002137278451494,1.8281278142024229,-0.8215381742956105,-1.6320923856584597,-8.437296612279773,-1.8840334213157373,,,,,,,,,
12,12,0.648,-1.07,-4.87,5.73,-2.77,1.57,-2.53,0.602,-7.8,-3.48,,,,,135,648000000.0,-0.9689899645196972,-4.549664632669135,6.608825855949372,-2.1881209160714743,1.7357710403881137,-1.9859606934871292,-0.7225343824246491,-8.02706175500745,-2.548724647836986,,,,,,,,,
13,13,0.698,-5.0,-3.65,6.41,-1.8,1.46,-3.59,-2.32,-5.14,-2.9,,,,,135,698000000.0,-2.505511189323106,-4.001814848502799,6.532585328352464,-1.9352504749624728,1.6370998252373898,-3.0792127599997143,-1.372907133035694,-6.168627623324563,-2.6950248721611585,,,,,,,,,
14,14,0.748,-15.0,-3.62,2.89,-2.43,0.431,-2.48,-11.7,-3.72,-6.35,,,,,135,748000000.0,-7.268118693211655,-3.7693090239721783,5.135818724388235,-2.257592113778669,1.2055525593481184,-2.6708121680118544,-5.577359721894192,-4.592418565977544,-4.217260798630107,,,,,,,,,
15,15,0.7979999999999999,-11.6,-6.1,8.17,-3.29,0.584,-2.32,-8.12,-4.5,-0.861,,,,,135,798000000.0,-8.919333234827079,-5.1885808114328436,6.299291422629638,-2.9302314513227987,0.9831579216215908,-2.4317119043312,-6.612541172269535,-4.532927698082677,-2.8194339605754206,,,,,,,,,
16,16,0.848,-18.2,-2.1,7.22,-3.42,1.68,-1.48,-14.6,1.36,-1.22,,,,,135,848000000.0,-12.456914045653438,-3.3077926808883733,6.652342025532953,-3.2493278666251064,1.2324918221914318,-1.783061315326134,-9.864464515635305,-0.7395840084948064,-2.1532962484700926,,,,,,,,,
17,17,0.898,-6.94,-3.2,10.7,-1.77,2.45,-0.149,-2.64,1.53,3.22,,,,,135,898000000.0,-10.353990621561154,-3.242152469021136,8.204438572377956,-2.2855090319437856,1.6681231734780353,-0.6693473347363674,-6.923178039347862,0.7213726650423393,0.08459262770558684,,,,,,,,,
18,18,0.948,-19.7,-3.07,7.42,-0.921,1.91,0.052000000000000005,-14.8,2.21,0.8059999999999999,,,,,135,948000000.0,-13.91647958931154,-3.1373203614269385,7.903641313991179,-1.3964975327909368,1.7546680811280633,-0.17770445258070014,-10.130058106913692,1.6796188081341188,0.3850468471297677,,,,,,,,,
19,19,0.998,-2.23,-5.28,11.5,0.341,2.06,1.72,3.66,-0.087,5.62,,,,,135,998000000.0,-9.461856152574953,-4.442103026346027,9.282684880114648,-0.2644747712761641,1.8639175869332696,1.1156986755610931,-4.515730120414731,0.5424264607446699,2.5653180887010083,,,,,,,,,
20,20,1.05,-6.68,-4.46,-0.867,0.6659999999999999,-0.362,1.78,-0.0967,-0.0679,-6.66,,,,,135,1050000000.0,-8.40147501294941,-4.453001393066267,5.390732221863464,0.3417526423311841,1.0674713769661641,1.568461148627632,-2.716616280347636,0.14955246855493787,-1.2768740510464314,,,,,,,,,
21,21,1.1,-11.4,-3.23,3.05,-0.354,-0.486,2.24,-4.54,0.507,-2.89,,,,,135,1100000000.0,-9.544445239354845,-3.708255978503543,4.493165515597201,-0.11154747423462412,0.5116303054302934,2.0261564705164954,-3.4589680473338698,0.3796454739812208,-1.9487143377635516,,,,,,,,,
22,22,1.15,-6.46,-3.48,-1.81,-0.4970000000000001,-0.0538,2.13,0.693,-0.4970000000000001,-7.83,,,,,135,1150000000.0,-8.368724009833885,-3.5692597494337677,2.076181932635816,-0.3626793675099497,0.3093160599631902,2.096932344853474,-1.768582824308155,-0.1846610596293772,-4.398172385671064,,,,,,,,,
23,23,1.2,-10.8,-1.79,3.77,-0.652,-1.19,1.94,-3.59,0.649,-2.36,,,,,135,1200000000.0,-9.295471880561811,-2.4857813525203527,2.72568581199588,-0.551178947084505,-0.2271479496545292,1.9899732720669627,-2.5101339357560555,0.351975911421522,-3.5493072970162385,,,,,,,,,
24,24,1.25,-4.82,-4.25,0.57,-1.3,-0.745,1.3,2.36,-2.13,-5.76,,,,,135,1250000000.0,-7.589522589257731,-3.5601004628145603,1.8990761865286423,-1.0390544178470686,-0.41243842108054496,1.5197137248376391,-0.5273628420824372,-1.2456999052395323,-4.47002429241604,,,,,,,,,
25,25,1.3,5.72,-6.07,3.62,-1.04,-0.00977,-2.0,12.7,-3.64,-2.86,,,,,135,1300000000.0,-2.516231604565399,-5.088501279792722,2.5589738774578055,-1.0396704632355005,-0.2683613226105942,-0.8791891533447853,4.857875679459038,-2.7869378088174717,-3.79947579413195,,,,,,,,,
26,26,1.35,-7.43,-13.2,-0.235,0.6890000000000001,-0.546,-6.79,-1.06,-9.3,-6.6,,,,,135,1350000000.0,-4.389249682956397,-10.027989871971947,1.4876091731706902,0.08660125626752002,-0.3677020544859472,-4.9077727738994055,2.4485388670698254,-6.979469143353008,-4.9658477073985745,,,,,,,,,
27,27,1.4,-13.4,-12.1,0.807,-0.557,2.39,-6.61,-8.39,-6.3,-5.33,,,,,135,1400000000.0,-7.823945167325318,-11.289738516486025,1.2266258219948378,-0.33272092435808165,0.6190197871548054,-6.067946137853785,-1.9641411517586091,-6.542087354625693,-5.1175110748598875,,,,,,,,,
28,28,1.45,-10.0,-9.8,4.18,-0.401,-0.54,-3.29,-6.56,-2.49,-1.36,,,,,135,1450000000.0,-8.653408393028677,-10.382563912601992,2.359113385750896,-0.3772064323313577,0.20431577127942932,-4.17460378162239,-3.8352470141667774,-3.93371326447011,-3.552569945308134,,,,,,,,,
29,29,1.5,4.26,-7.76,2.04,-2.39,-0.848,-3.93,6.2,0.269,-3.25,,,,,135,1500000000.0,-3.7311070752755287,-8.785556485314473,2.236747582023945,-1.6885914678652112,-0.17220891702064012,-4.007891201714694,0.2503896461077475,-1.2283795839130884,-3.4265545738699323,,,,,,,,,
30,30,1.55,1.64,-5.59,1.57,-2.25,-3.73,-4.95,1.13,3.2,-2.74,,,,,135,1550000000.0,-1.6837617044204205,-6.839625780424648,1.9810795617241093,-2.054363060798293,-1.4452072270837435,-4.649996562234446,0.6085042348537202,1.6222180732250928,-3.1406159676777854,,,,,,,,,
31,31,1.6,1.37,-6.77,-2.33,-0.451,-3.45,-3.99,-1.99,1.91,-5.43,,,,,135,1600000000.0,-0.5197363316186772,-6.797227222242976,0.3279723382100006,-1.0097322342291877,-2.162533736552873,-4.200168038202984,-0.449421333850021,1.8074665070380032,-4.094106431748853,,,,,,,,,
32,32,1.65,7.49,-17.3,3.79,3.22,0.199,-1.46,2.67,-9.36,0.555,,,,,135,1650000000.0,2.533395163539681,-13.192879315990545,1.65550593901512,1.7460433176246937,-1.3175632560551909,-2.3325738484678604,0.8205845460623759,-5.381156766206024,-2.157830592596068,,,,,,,,,
33,33,1.7,-1.37,-19.1,3.84,-1.05,-0.506,0.21,-6.67,-11.8,0.096,,,,,135,1700000000.0,1.045508599794004,-16.790014544399913,2.4931622110127503,-0.07564827097159887,-1.0271812054242668,-0.5996523144491129,-2.22904718482162,-9.513038300694275,-1.219147475537953,,,,,,,,,
34,34,1.75,2.68,-10.5,1.5,1.56,1.57,0.139,-2.22,-2.88,-2.35,,,,,135,1750000000.0,1.6685400345809875,-12.95971673027634,2.1123286794818825,0.9900171373308628,-0.0978946741525929,-0.09621501863376468,-2.2253638281749066,-5.2432771947287655,-1.6901287845011783,,,,,,,,,
35,35,1.8,4.69,-13.7,5.72,2.69,1.52,0.135,0.0501,-6.59,0.754,,,,,135,1800000000.0,2.8202527300006324,-13.410511341205806,3.4957100792760576,2.0975982034799623,0.4809974256660002,0.06137233929087585,-1.298957273973029,-6.1101778734998735,-0.6721896189651662,,,,,,,,,
36,36,1.85,7.93,-11.7,-1.95,2.93,0.494,0.753,3.79,-5.38,-8.22,,,,,135,1850000000.0,4.767973553524426,-12.368897123054493,1.4075224737199583,2.639928677749067,0.4856498178947998,0.5327594366359065,0.7729031008724403,-5.6401542570925045,-3.815727756543112,,,,,,,,,
37,37,1.9,7.28,-3.29,-2.61,1.68,0.402,0.74,3.58,2.39,-9.7,,,,,135,1900000000.0,5.7255016921053885,-6.8403121403435625,-0.13301865315215755,2.0145112844423188,0.4557194310295221,0.6740067214078874,1.9157526879430065,-0.4710537925707587,-6.266429618593823,,,,,,,,,
38,38,1.95,-0.206,-4.08,1.04,0.202,0.282,0.973,-3.69,1.19,-6.45,,,,,135,1950000000.0,3.464546474830076,-5.159422887218009,0.31678180919964705,0.8336152003979749,0.3935616120047424,0.8777891504982811,-0.3665099536294016,0.5981852082616599,-6.342883562949962,,,,,,,,,
39,39,2.0,-1.52,-8.49,-0.00239,-2.03,-0.173,2.0,-4.5,-2.64,-7.29,,,,,135,2000000000.0,1.5645493241185158,-7.187574216300561,0.19439361729183732,-1.0321011593966218,0.19084258073230131,1.6426453425800391,-2.0493722454567105,-1.4862710116223896,-6.737341858143295,,,,,,,,,
40,40,2.05,2.37,-6.87,2.29,-3.32,-0.0538,1.49,0.0518,0.139,-4.16,,,,,135,2050000000.0,1.8715689868620973,-6.994187657927048,0.9979654367269722,-2.5227239965615595,0.1033080445200044,1.5386080948360996,-1.1939247898628025,-0.4400658261385544,-5.663921593368392,,,,,,,,,
41,41,2.1,8.41,-6.07,5.69,-1.35,-0.47,-0.5329999999999999,6.26,1.83,0.303,,,,,135,2100000000.0,4.363871970782006,-6.431404649478299,2.7971520094475735,-1.7586652211428926,-0.10182490156094473,0.1266788894018156,1.8407817654772032,1.021201044863884,-3.178797565085276,,,,,,,,,
42,42,2.15,5.59,0.103,-0.809,-0.662,-1.47,-0.831,2.83,8.03,-5.88,,,,,135,2150000000.0,4.831244493541394,-2.452285735002075,1.4143531115659325,-1.0441606104772565,-0.5913659045741723,-0.5260385623124157,2.243520835415425,5.532843402063426,-4.3038036929749115,,,,,,,,,
43,43,2.2,-1.09,-4.67,-10.7,-4.06,1.41,0.211,-4.12,3.63,-14.9,,,,,135,2200000000.0,2.574199077338778,-3.8027605763303085,-3.230962380600117,-3.009054789074465,0.1247344225049568,-0.023701140629823425,-0.3472508718958527,4.307961827119966,-8.716943815107776,,,,,,,,,
44,44,2.25,-2.87,-22.8,-15.9,-4.24,3.71,0.654,-5.24,-13.7,-18.5,,,,,135,2250000000.0,0.4989927151898903,-15.371109298411186,-8.088974635715118,-3.8110459971222417,1.407563273030468,0.4381941457918443,-2.339229208243969,-7.283965135113753,-12.79142470145144,,,,,,,,,
45,45,2.3,-12.3,-44.9,5.73,-1.06,1.92,3.63,-13.7,-35.3,4.21,,,,,135,2300000000.0,-4.379695901534685,-33.35269750523952,-2.7900125310734034,-2.018671211326131,1.5909160933917632,2.6136075809129933,-6.964524596906112,-25.318200638205827,-5.710612853607882,,,,,,,,,
46,46,2.35,-0.752,-7.94,8.38,0.17600000000000002,-2.72,-1.05,-0.931,1.85,7.77,,,,,135,2350000000.0,-2.9968996959687537,-17.877661827811295,1.4931904702750778,-0.5887884456869772,0.048445279131208,0.11663216101575813,-4.508103769307747,-7.829725033424079,-0.09616085696787824,,,,,,,,,
47,47,2.4,-2.33,-7.22,5.53,1.77,1.7,0.243,-3.07,2.5,4.47,,,,,135,2400000000.0,-2.7426924820614684,-11.387689615790462,3.041127445904665,0.9480207597480964,0.6393811629549089,0.20275966968943693,-3.9226104718046115,-1.1803651255557988,1.8055694335682255,,,,,,,,,
48,48,2.45,0.414,-6.27,5.23,2.99,-1.16,1.8,0.328,3.29,3.08,,,,,135,2450000000.0,-1.5394322088485235,-8.271277835910809,3.8804627154785143,2.278420923228638,-0.004447851007372439,1.2913778388614772,-2.1920650936262644,1.6972590405830281,2.3363486271968044,,,,,,,,,
49,49,2.5,-3.26,-6.19,2.53,2.67,-2.99,0.976,-3.1,2.98,-0.957,,,,,135,2500000000.0,-2.1952740014149645,-7.0038858974614575,3.3626203224340374,2.533544460506296,-1.072695745110571,1.0764283179071072,-2.561711382776388,2.5229738013298464,0.9647234571150018,,,,,,,,,
50,50,2.55,-0.28,-12.2,0.608,3.59,-1.11,0.6920000000000001,-0.13,-3.68,-4.32,,,,,135,2550000000.0,-1.4652145716241691,-10.168054059208927,2.306345948286296,3.2218514099567668,-1.086043429187797,0.8144165925603238,-1.571691967512689,-1.4699500775297405,-1.2362764153287753,,,,,,,,,
51,51,2.6,-8.24,-37.5,0.251,4.14,0.975,1.11,-7.82,-30.2,-6.25,,,,,135,2600000000.0,-4.047610520779312,-26.811814109964647,1.518212195081535,3.82004791797309,-0.3485901168870552,1.0158749998628374,-4.115557356449513,-19.963806066962842,-3.3244092573644157,,,,,,,,,
52,52,2.65,0.728,-8.28,-2.16,1.68,-0.82,0.943,1.52,-2.25,-9.85,,,,,135,2650000000.0,-2.2272550611919835,-15.526885021344588,0.10778139422413258,2.425753548916917,-0.5172633071428201,0.9662061870064698,-1.8211604109849624,-8.561230345315263,-6.0422098919269445,,,,,,,,,
53,53,2.7,4.0,1.19,-3.95,-1.14,-1.42,-0.643,4.46,7.05,-11.8,,,,,135,2700000000.0,0.1464346973525581,-5.347155241166249,-1.4481972964334364,0.10257661855884814,-0.8402677210751368,-0.13056749159469616,0.7360800686534175,1.4878939153032942,-8.440234198104053,,,,,,,,,
54,54,2.75,-4.37,10.3,3.81,-3.17,1.37,-1.52,-4.62,17.0,-3.33,,,,,135,2750000000.0,-1.5751287217217962,4.181163783377507,0.5680874573464734,-2.02958832400137,-0.04942109768215075,-1.0775517801683416,-1.4445336224018392,11.47321065436768,-6.311906252085789,,,,,,,,,
55,55,2.8,-7.28,-9.88,2.41,-0.741,2.66,0.8490000000000001,-7.03,-2.42,-3.96,,,,,135,2800000000.0,-3.7496975954900345,-4.381367346188503,1.2743790210998462,-1.1900410457767403,0.9200255305596023,0.2355125531305173,-3.718537187612079,2.5299950193814595,-5.332376263290966,,,,,,,,,
56,56,2.85,0.855,-12.3,5.78,0.0467,2.31,0.618,2.42,-4.8,-0.327,,,,,135,2850000000.0,-1.9944902912316904,-9.203410580145238,3.0020843345012147,-0.384273557850608,1.4173664443564946,0.4962014156683724,-1.219362695230093,-2.18840514299516,-3.2477199390955582,,,,,,,,,
57,57,2.9,9.03,-6.46,40.9,0.7979999999999999,-2.18,-0.463,11.3,1.04,35.1,,,,,135,2900000000.0,2.207797684205402,-7.532813584210624,17.53424985753236,0.3860069950121584,0.1302078231828787,-0.1575537518107023,3.8776288257708496,-0.11024455294322476,12.72346971335982,,,,,,,,,
58,58,2.95,-1.86,-21.0,8.51,-1.86,4.99,-0.233,-0.8029999999999999,-13.5,2.33,,,,,135,2950000000.0,0.6572445686024517,-15.733642743933007,14.07385152845114,-1.077322317802074,1.869069594306238,-0.20897503914418614,1.9720106630009455,-8.729380372893278,8.394761669534851,,,,,,,,,
59,59,3.0,-3.43,-15.9,-3.83,-1.86,-0.7490000000000001,-2.33,-1.74,-7.99,-9.33,,,,,135,3000000000.0,-0.9007212825284734,-15.834945589679467,7.208520869548732,-1.5872562632562188,0.9323090903918968,-1.6545848523419118,0.4607447067277,-8.253432783369758,1.012692001143801,,,,,,,,,
60,60,3.05,-11.1,-22.5,-2.89,-3.35,0.866,-0.767,-10.5,-13.8,-7.35,,,,,135,3050000000.0,-4.788457388372216,-19.893623540049926,3.3361872635230205,-2.7357274971848278,0.9085833117166396,-1.0496408209596362,-4.001688672903585,-11.82382045830646,-2.4702306852336844,,,,,,,,,
61,61,3.1,-2.89,-15.9,18.4,-2.05,3.82,-1.45,-2.1,-6.61,15.4,,,,,135,3100000000.0,-4.064808113286991,-17.461710407091076,9.112489255144132,-2.2889589818384315,1.950305080307129,-1.3225104280864453,-3.2274566600008767,-8.467625813984045,4.972424292020516,,,,,,,,,
62,62,3.15,-3.69,-6.73,7.48,-0.453,0.509,-0.887,-3.47,2.81,5.22,,,,,135,3150000000.0,-3.921939700902607,-10.92664652911834,8.486502247115558,-1.0927861422853693,1.4345977566772232,-1.0256831169036191,-3.3262030183050038,-1.208091574657904,5.075535386974981,,,,,,,,,
63,63,3.2,-5.78,1.58,1.73,1.21,0.37,0.7390000000000001,-5.61,11.1,-0.79,,,,,135,3200000000.0,-4.6301906328792715,-3.3107371081255925,5.895684175536285,0.40753620977820737,1.0536785008221117,0.17705772878204673,-4.256002293071494,6.714765319462407,2.632637026978073,,,,,,,,,
64,64,3.25,-1.33,4.06,5.49,2.23,1.66,2.05,-0.394,13.3,2.28,,,,,135,3250000000.0,-3.3722321057809803,1.1776655521984614,5.740122251503749,1.5949166153698735,1.2706238411134363,1.4535838448123866,-2.683670445774774,10.953754895201442,2.485769533256644,,,,,,,,,
65,65,3.3,1.54,-1.61,1.47,1.29,-3.74,1.16,3.2,7.1,-2.72,,,,,135,3300000000.0,-1.4997995755635631,-0.5198804948758822,4.1027203163710055,1.3962558475247844,-0.5222064604134018,1.25348825027286,-0.2882595218577868,8.473049567022747,0.3176527221427881,,,,,,,,,
66,66,3.35,-13.6,-30.7,1.98,1.33,-0.0953,3.28,-12.0,-22.4,-3.03,,,,,135,3350000000.0,-6.11212433937596,-18.89803333963674,3.2887515021047773,1.3530885463423372,-0.3694568493170334,2.6346814894139285,-5.056444808680656,-11.400278602295801,-1.0765891851028424,,,,,,,,,
67,67,3.4,-10.1,-24.4,3.19,3.61,1.36,2.8,-6.41,-17.2,-2.35,,,,,135,3400000000.0,-7.632213114678379,-22.248449982184912,3.250884715509341,2.823522306946668,0.2493528563612363,2.7473562599995534,-5.607515867045505,-15.133624832420555,-1.6069436611613033,,,,,,,,,
68,68,3.45,-4.27,-9.14,-2.94,-0.5479999999999999,-0.109,1.19,-0.154,-2.94,-9.31,,,,,135,3450000000.0,-6.350612986980527,-14.266073209624874,0.8769557790718725,0.6268918565526542,0.1211321249770858,1.685921561251616,-3.3872332223599617,-7.284451747033142,-4.815139232726722,,,,,,,,,
69,69,3.5,2.71,-4.21,-3.54,-1.42,-1.04,-0.779,6.79,2.21,-9.73,,,,,135,3500000000.0,-2.8969108128216807,-8.142437911885951,-0.8167502789915762,-0.7067089642058919,-0.2943276763157203,0.0059248762073107475,0.7562101556841759,-1.1727666011761473,-6.8620971579066845,,,,,,,,,
70,70,3.55,6.0,0.517,-1.16,-1.74,1.71,-3.33,9.43,7.74,-6.84,,,,,135,3550000000.0,0.4943917549322467,-2.86928219083134,-0.9483712662657844,-1.3799237266837332,0.4228324154785311,-2.2677144676519543,4.287558775386129,4.564481117651623,-6.852894121134199,,,,,,,,,
71,71,3.6,-7.25,6.22,13.7,1.33,-3.59,-2.75,-5.09,14.1,8.34,,,,,135,3600000000.0,-2.457596434759913,2.6656266171079217,4.6686274737290505,0.3856588699403905,-1.0129822874362864,-2.596421925730477,0.4696857111622066,10.702601860302249,-0.5253052617227025,,,,,,,,,
72,72,3.65,-3.35,-7.65,-1.12,0.0846,5.33,2.25,-1.53,-0.285,-7.33,,,,,135,3650000000.0,-2.797760593142862,-3.6160635394414133,2.448946317007601,0.18951154487136684,1.2565735701054996,0.7067147539600134,-0.3444436548026345,3.629759259620285,-3.3593478976499105,,,,,,,,,
73,73,3.7,8.69,-1.6,11.5,-1.26,1.84,0.455,12.6,5.7,6.19,,,,,135,3700000000.0,1.5811155576752438,-2.3883837586672367,5.9196228086700895,-0.7548811975013654,1.4653269455824722,0.5351555694622327,4.9256105882065615,4.962396330395112,0.6177973812712216,,,,,,,,,
74,74,3.75,0.919,-22.0,-9.47,-1.45,-3.11,-0.07200000000000001,4.11,-14.6,-15.1,,,,,135,3750000000.0,1.3287319901792367,-14.33085706939847,0.01838689790087411,-1.207768381353368,-0.17175155878235104,0.12134145004279985,4.5935521911561725,-7.630137931339298,-5.928405088525668,,,,,,,,,
75,75,3.8,1.3,-19.9,-3.59,-0.369,0.531,-2.42,4.88,-12.1,-8.39,,,,,135,3800000000.0,1.3177799826980543,-17.722180631833446,-1.3652689415302417,-0.6612899546175781,0.07969703505940767,-1.610740184594959,4.710173352271924,-10.507438544222216,-6.953618746306117,,,,,,,,,
76,76,3.85,-10.5,-20.6,-9.2,-2.79,0.8690000000000001,-2.41,-8.42,-12.2,-13.7,,,,,135,3850000000.0,-3.18689230677993,-19.474625974950712,-4.369539736238418,-2.0481973592456293,0.3621142243037585,-2.155485305188151,-0.6354966506080819,-11.596959221778588,-9.763374733956127,,,,,,,,,
77,77,3.9,-11.9,-15.8,16.8,-1.69,4.56,-0.515,-10.1,-6.67,13.8,,,,,135,3900000000.0,-6.5081331083478835,-17.2369664258905,3.748036827473944,-1.8148229264633664,1.8641421040164927,-1.0373929652408322,-4.488767436517198,-8.425420337279263,0.05038069521814848,,,,,,,,,
78,78,3.95,-4.29,-8.44,8.24,-1.42,-1.22,-1.93,-2.78,1.01,6.1,,,,,135,3950000000.0,-5.662630574537232,-11.880062615665945,5.47050481141929,-1.5575859623455002,0.7606181448449609,-1.6457599025379723,-3.793079216561469,-2.3517344029325944,2.569946909759732,,,,,,,,,
79,79,4.0,-4.93,-0.764,2.74,0.266,0.0819,-0.267,-3.99,8.8,0.799,,,,,135,4000000000.0,-5.383368189753269,-5.1109478475875525,4.423477674228323,-0.3694744444809093,0.5177688527173218,-0.7060496358267265,-3.873251316471518,4.826762282156847,1.8323768603656039,,,,,,,,,
80,80,4.05,-4.86,2.91,3.45,1.34,0.7490000000000001,1.09,-3.84,8.71,0.473,,,,,135,4050000000.0,-5.183872042119039,-0.2265999466874433,4.050192305260017,0.7442906072675373,0.6005047041689102,0.5180694424980314,-3.859713717382851,7.326445997246213,1.2662189061415403,,,,,,,,,
81,81,4.1,2.1,1.87,2.13,1.73,0.361,1.92,4.13,11.0,-0.737,,,,,135,4100000000.0,-2.407423659539909,1.0501224129297622,3.313884011268504,1.3865047545203448,0.5148085311520789,1.4735719092813937,-0.6068721768853322,9.691153927637572,0.4319114112902108,,,,,,,,,
82,82,4.15,-4.69,-6.85,2.64,1.67,-1.71,1.91,-1.96,1.8,-1.08,,,,,135,4150000000.0,-3.2774905132384804,-3.7606488548741552,3.0554795078985584,1.571208915386106,-0.28124089044206796,1.7710246582036937,-1.1577693190564078,4.611529571661492,-0.1977746710117333,,,,,,,,,
83,83,4.2,-18.8,-73.2,3.34,1.01,1.61,6.92,-0.423,0.759,-1.84,,,,,135,4200000000.0,-9.194322186679198,-46.04566764755617,3.1645804280817758,1.2055673715058843,0.3954560843423807,5.280370279974973,-0.858623668983552,2.1316130615318105,-0.8817343379679256,,,,,,,,,
84,84,4.25,-5.89,-13.3,-7.15,1.17,-0.7979999999999999,1.55,-0.0816,-7.25,-12.2,,,,,135,4250000000.0,-7.934788736820417,-26.105227510808273,-0.7906024045383746,1.1823943182216845,-0.031569423059875035,2.7378918810763406,-0.5422750597537453,-3.9074365318148994,-5.595604467895223,,,,,,,,,
85,85,4.3,1.86,-6.34,-2.86,-0.706,-1.19,-0.0409,7.73,-0.55,-8.17,,,,,135,4300000000.0,-4.2012352662799595,-14.069212870230105,-1.5841242942470823,-0.04794143107942528,-0.4460626289050017,0.8439731248435682,2.8256052645268266,-1.7462169721113256,-6.667797604893263,,,,,,,,,
86,86,4.35,9.24,-3.44,-4.95,-1.58,0.688,-2.37,14.6,2.89,-10.2,,,,,135,4350000000.0,0.9222616255198854,-7.5965647839434824,-2.8747878382924146,-1.0461156426240557,-0.04028842844176711,-1.3465485220301996,7.6192990509137175,1.2381679806662955,-8.138901327126737,,,,,,,,,
87,87,4.4,0.0144,2.53,5.91,0.416,-0.521,-4.43,4.4,10.1,1.44,,,,,135,4400000000.0,0.5762051653165655,-1.4300037095391218,0.4937874870658017,-0.09351100592426886,-0.21228982927648854,-3.4481115443978334,6.3086301590979925,6.942628930544834,-4.149447534255211,,,,,,,,,
88,88,4.45,-15.8,-6.57,4.53,0.544,-1.71,1.48,-13.3,1.31,-0.7390000000000001,,,,,135,4450000000.0,-5.6660364893942825,-4.559999208674814,2.0414955333117764,0.3218432568195376,-0.7481792365447409,-0.08929831757474105,-1.6746053730859105,3.3168424506574548,-2.729052625111671,,,,,,,,,
89,89,4.5,1.08,-3.56,-1.42,-0.404,4.43,3.09,5.68,3.77,-6.04,,,,,135,4500000000.0,-3.0945988864441336,-3.9510506958778113,0.7141659819370783,-0.15106164970595548,1.1046032933292909,2.0775903202456307,1.319665237441324,3.6085450375094568,-4.1080073591216895,,,,,,,,,
90,90,4.55,1.29,-1.64,-13.7,1.55,-2.92,-0.293,6.9,5.18,-18.0,,,,,135,4550000000.0,-1.4232882882337896,-2.5437387697991247,-4.813025449095468,0.9572222046256196,-0.3354231560221765,0.4618861985122802,3.591579528469807,4.620108118748932,-9.893792232349329,,,,,,,,,
91,91,4.6,-1.51,-37.4,-6.22,-2.04,1.35,-1.43,3.19,-30.2,-11.0,,,,,135,4600000000.0,-1.4563408414864667,-23.769423718651108,-5.352537525925887,-0.9955424283565316,0.2676310419823027,-0.8275513739103477,3.4280850137241226,-17.793986664639444,-10.354509447955015,,,,,,,,,
92,92,4.65,0.23,-18.0,-3.94,-0.29,-0.878,-3.4,4.59,-10.0,-7.76,,,,,135,4650000000.0,-0.8135455881329908,-20.256139146363953,-4.8108922371082485,-0.5358640191724684,-0.14228240298407546,-2.580834488480912,3.9011339751493503,-12.776909996807301,-9.273939325207369,,,,,,,,,
93,93,4.7,-10.5,-22.1,-4.55,-2.4,0.644,-2.29,-7.45,-13.4,-8.02,,,,,135,4700000000.0,-4.505804441852755,-21.378956527551203,-4.710851741943441,-1.7503949409614383,0.13905400312645755,-2.3826127472980723,-0.720237989215478,-13.177999777637622,-8.751694553074433,,,,,,,,,
94,94,4.75,-10.1,-11.9,8.15,-2.15,0.7509999999999999,-2.46,-7.85,-2.68,5.84,,,,,135,4750000000.0,-6.638186282435098,-15.606755577536035,0.22071269717106026,-2.010747617319157,0.35801182868117243,-2.4353569785808964,-3.622968452470625,-6.420319571778141,-2.6744953574492305,,,,,,,,,
95,95,4.8,-5.56,-4.9,3.74,-0.526,0.354,-1.29,-4.26,4.69,2.15,,,,,135,4800000000.0,-6.227205866972054,-9.086887963522676,1.5702028416594551,-1.0433977078806744,0.3565763738572765,-1.6547252401000447,-3.882322350312835,0.7315178358606582,-0.6651728985728513,,,,,,,,,
96,96,4.85,-6.79,-1.84,1.63,0.687,-0.0379,0.67,-5.77,7.79,0.0778,,,,,135,4850000000.0,-6.441730334985831,-4.673903096461843,1.5931323902446382,0.08399933232149981,0.21543043697971692,-0.07028100813268856,-4.6508500274207005,5.275141979495854,-0.35573699123909264,,,,,,,,,
97,97,4.9,-2.47,3.66,3.33,1.18,1.01,2.34,-0.721,13.1,1.32,,,,,135,4900000000.0,-4.927795951488753,0.4010185777133897,2.2591438325194315,0.7980709360475979,0.4997320358656706,1.5724747083155792,-3.0508954314228713,10.312091131044026,0.3421797360103861,,,,,,,,,
98,98,4.95,2.45,0.172,1.3,1.88,-0.00855,2.05,5.37,9.17,-1.27,,,,,135,4950000000.0,-2.1155458297610545,0.2615579565902588,1.8913548177002824,1.5029745717538698,0.3178657726099733,1.897937735082308,0.3774924522777563,9.576914304360104,-0.3292664172023898,,,,,,,,,
99,99,5.0,-17.9,-21.9,4.47,2.06,-1.24,3.31,-14.2,-13.6,0.973,,,,,135,5000000000.0,-8.132225078394448,-13.233699476976808,2.8801504651271115,1.86589042643362,-0.2395476479927372,2.8603455781729497,-5.5574225375128,-5.34232573362528,0.21310597489449712,,,,,,,,,
100,100,5.05,-8.03,-31.2,4.02,2.12,1.77,3.5,-2.24,-24.4,0.017,,,,,135,5050000000.0,-8.09325907280925,-24.174259957043795,3.3172320533129778,2.031449046090239,0.4794801594968125,3.296309680234633,-4.206804726471677,-17.609964248443546,0.13143108439606105,,,,,,,,,
101,101,5.1,-4.09,-9.29,-3.08,-0.171,-1.06,1.69,2.43,-3.48,-7.54,,,,,135,5100000000.0,-6.5673066898804215,-15.11050531514333,0.8641781424658843,0.5964988249484853,-0.07135475811540082,2.2015101939273825,-1.5047712391646528,-8.514347729865015,-3.0635929017806722,,,,,,,,,
102,102,5.15,2.85,-6.78,-3.63,-1.29,-1.27,-0.605,9.33,-1.1,-8.31,,,,,135,5150000000.0,-2.977640938789339,-10.037652896396818,-0.8591393155773299,-0.6326019578466142,-0.5002369772341442,0.2886996775190576,2.9063746995035324,-3.7416489194027345,-5.248634748560999,,,,,,,,,
103,103,5.2,8.31,-2.37,-4.85,-1.48,1.02,-3.41,14.1,4.19,-9.25,,,,,135,5200000000.0,1.3249544145867254,-5.368443571115083,-2.389456835841667,-1.1847028272878748,0.04371263170282491,-2.2321932704554692,7.463620600107727,1.3640425232823032,-6.9151371102100185,,,,,,,,,
104,104,5.25,-3.28,5.68,9.07,0.934,-2.03,-3.4,1.34,13.4,5.16,,,,,135,5250000000.0,-0.4303507651668854,1.3594945447152824,2.0047350208418173,0.1956846611660452,-0.6982737760376161,-3.0281259435229684,4.970519122760495,9.111723153986947,-1.8860425405813783,,,,,,,,,
105,105,5.3,-9.54,-9.17,2.11,-0.191,2.41,3.17,-5.79,-1.42,-2.59,,,,,135,5300000000.0,-3.902744426519239,-5.0524302522766265,2.0450994178796664,-0.056249992924187815,0.4138846559465048,1.1962807868744156,0.5896033337205981,2.332334817033688,-2.179229128624706,,,,,,,,,
106,106,5.35,3.2,-2.54,3.67,0.529,2.46,2.24,8.9,4.47,-0.133,,,,,135,5350000000.0,-1.1953377681596875,-3.5224884402795187,2.6681765439210667,0.3250548932098097,1.1459966178438568,1.9076400743046675,3.9730038937697714,3.708373745754254,-1.3270085841701724,,,,,,,,,
107,107,5.4,4.09,-8.66,-10.4,-0.222,0.214,-0.0751,10.1,-2.08,-14.5,,,,,135,5400000000.0,0.8193143329097352,-6.6509706677641365,-2.3428877348324835,-0.031364949568121026,0.8125228180902011,0.5562799251228268,6.467479805321094,-0.017667333260946272,-6.813341354358499,,,,,,,,,
108,108,5.45,-2.41,-34.9,2.27,-0.963,2.33,-3.43,3.29,-27.7,-1.15,,,,,135,5450000000.0,-0.4116277896724576,-23.85318862499927,-0.5740504795804124,-0.6383483079409733,1.355484935765093,-2.16061675834342,5.173836672852708,-17.837095969352234,-4.454653459470287,,,,,,,,,
109,109,5.5,-3.66,-19.0,-6.7,-1.31,-1.7,-2.45,0.836,-10.9,-9.96,,,,,135,5500000000.0,-1.6498343470660917,-20.897844459950512,-2.9230795619737364,-1.075946018536559,0.2622146709304194,-2.3578493914401237,3.407779021708908,-13.371609211193606,-6.747539136867914,,,,,,,,,
110,110,5.55,-10.5,-21.4,2.3,-2.03,1.64,-2.93,-7.18,-12.6,-0.33,,,,,135,5550000000.0,-5.023318709816884,-21.203631321440586,-0.9202608936463744,-1.6975358485882328,0.7551942548973742,-2.7478055097705907,-0.9028092659286909,-12.874915949725214,-4.074740371030095,,,,,,,,,
111,111,5.6,-11.9,-11.2,8.84,-1.61,-0.0476,-2.49,-9.93,-1.76,7.26,,,,,135,5600000000.0,-7.644555014640293,-15.111930317585616,2.8223650758921197,-1.6405040798997312,0.4679498097069505,-2.572095095551956,-4.578037518724215,-5.7201198327231335,0.6459913771248882,,,,,,,,,
112,112,5.65,-5.92,-2.66,1.99,-0.467,0.0904,-1.06,-4.75,7.01,0.858,,,,,135,5650000000.0,-6.987193407483548,-7.529340355091286,2.503190096993354,-0.8759370502616333,0.3328602970713064,-1.5415086053854108,-4.648048374466368,2.474401288225532,0.7342894493900003,,,,,,,,,
113,113,5.7,-6.66,-0.0455,2.11,0.595,-0.43,1.13,-5.62,9.64,1.02,,,,,135,5700000000.0,-6.862474571500195,-2.972063554767224,2.3524191438785764,0.08241496551094007,0.05990445164957215,0.2792899515781793,-5.0437576973758755,7.086977801022452,0.8532831541967194,,,,,,,,,
114,114,5.75,-1.0,3.23,4.26,0.922,0.211,2.54,0.924,12.7,2.79,,,,,135,5750000000.0,-4.627830942267806,0.8046766073183438,3.0838916397385256,0.6294254482092211,0.11396731437112187,1.820103828602885,-2.6141124521377384,10.700143048192585,1.6598936311192825,,,,,,,,,
115,115,5.8,1.24,-1.38,-0.431,2.0,-0.392,1.87,4.24,7.7,-2.58,,,,,135,5800000000.0,-2.3911455811734053,-0.525679937367898,1.7360870423748986,1.5223887865749035,-0.06707072429324551,1.854111162713333,0.17639311944283564,8.768917182427831,-0.10595181868458647,,,,,,,,,
116,116,5.85,-22.3,-28.2,1.6,2.87,-0.129,3.14,5.02,7.1,-3.56,,,,,135,5850000000.0,-9.979953420737894,-17.377928818082367,1.6839037239916947,2.4003908654806088,-0.08922937622280848,2.730524111492813,2.1483643234823804,7.694616404758244,-1.5445056607722394,,,,,,,,,
117,117,5.9,-6.5,-30.5,-0.0479,1.87,0.622,3.23,-0.563,-23.6,-3.68,,,,,135,5900000000.0,-8.653473340213226,-25.368600415117307,1.019834027896667,2.0548280553427576,0.16525261592428658,3.0709478748866177,1.0444901717299466,-12.4500795592803,-2.433903715494277,,,,,,,,,
118,118,5.95,-2.51,-9.65,-3.36,-0.457,-1.92,2.37,4.2,-3.78,-7.45,,,,,135,5950000000.0,-6.311719288243897,-15.79677481006343,-0.6596374641882503,0.4183097415559172,-0.5808628600442654,2.5932084106830127,2.3291886035474656,-6.86905204662089,-4.5230246682794055,,,,,,,,,
119,119,6.0,3.38,-6.52,-2.63,-0.909,-1.35,-0.585,10.0,-0.885,-7.16,,,,,135,6000000000.0,-2.6174535382816884,-10.147692427289758,-1.4151838977633555,-0.4464654857435565,-0.8560646022600185,0.4270625680327291,5.45219582069168,-3.017050594494941,-5.621281160124059,,,,,,,,,
120,120,6.05,9.31,-1.13,-3.99,-1.18,1.23,-3.01,15.4,5.21,-8.41,,,,,135,6050000000.0,1.9290240071483582,-4.6563780007272975,-2.402511347414636,-0.9243813940487636,-0.1096585706868204,-1.9155084217284932,9.502231918535504,2.2787942086999915,-6.782736310130409,,,,,,,,,
121,121,6.1,-2.71,6.97,8.28,0.838,-2.04,-2.92,2.31,14.4,4.27,,,,,135,6100000000.0,0.16073223850324592,2.423492661635413,1.6937564880404583,0.22385382644421611,-0.8003459264988471,-2.6001316921504207,6.574068102899412,10.08135013602316,-2.1794546864130933,,,,,,,,,
122,122,6.15,-10.0,-4.5,2.16,-0.366,0.7340000000000001,2.06,-5.94,3.09,-2.51,,,,,135,6150000000.0,-3.7123106699450727,-1.7925609930533488,1.87254016902551,-0.1604505795733977,-0.2513480370597747,0.5760366174634917,1.4792322165728713,5.580939552330088,-2.3171213314746733,,,,,,,,,
123,123,6.2,0.6679999999999999,-4.66,-1.59,-0.0486,2.9,2.02,6.3,2.37,-5.47,,,,,135,6200000000.0,-2.042634635548838,-3.538684900789272,0.5448100170652224,-0.08757715044028885,0.8762226189858561,1.5601870738365324,3.4419050548658463,3.5140216607379853,-3.630242995525356,,,,,,,,,
124,124,6.25,-3.08,-10.8,-7.08,-0.0382,-1.62,0.685,3.16,-4.2,-10.8,,,,,135,6250000000.0,-2.4380549830650127,-7.960455293594321,-2.3789654395488204,-0.0554067103624226,-0.0169403269101307,0.9636928845962048,3.327133460657082,-1.4515805140636882,-6.616328130835036,,,,,,,,,
125,125,6.3,8.68,-24.6,-2.53,-0.19,2.54,-3.11,14.8,-17.9,-6.17,,,,,135,6300000000.0,1.7998979694478372,-18.093088966888992,-2.4368804644121282,-0.14309757763437428,0.8979477520053385,-1.8127810272089269,7.998066396895956,-12.039612449779264,-6.430439887642178,,,,,,,,,
126,126,6.35,-4.61,-22.7,-6.31,-0.799,-1.6,-3.77,0.0447,-14.8,-9.82,,,,,135,6350000000.0,-0.6434112142622603,-20.89846311311931,-3.9220495059159934,-0.5704343015608349,0.004167536675603435,-3.146746954089215,4.760022939299498,-13.816505011342153,-7.842135413709945,,,,,,,,,
127,127,6.4,-8.15,-21.3,-0.527,-1.71,0.6509999999999999,-2.96,-4.73,-12.6,-3.45,,,,,135,6400000000.0,-3.504754107997775,-21.14297811812722,-2.6201990378759645,-1.3128896631458962,0.2356079552461127,-3.0194673656999065,0.8963625443158172,-13.03342733140041,-6.012883770778176,,,,,,,,,
128,128,6.45,-14.0,-12.6,6.83,-2.1,0.772,-2.77,-12.0,-3.25,4.82,,,,,135,6450000000.0,-7.50530610762693,-15.940740711544668,1.0035319139276844,-1.8257115216733344,0.4275321480209216,-2.8494398935443006,-4.354116344975154,-6.735725384014421,-1.5011670093420948,,,,,,,,,
129,129,6.5,-4.09,-3.61,3.83,-0.7390000000000001,-0.244,-1.48,-3.14,6.07,2.52,,,,,135,6500000000.0,-6.203468188975725,-8.431948917443298,2.08735667285129,-1.117692007555365,0.18725404608742746,-1.9160818101344477,-3.8598148188097223,1.5074638417930322,0.17358244859797778,,,,,,,,,
130,130,6.55,-7.31,-0.285,3.25,0.32,-0.0886,0.12,-6.79,9.45,2.14,,,,,135,6550000000.0,-6.6252532396438895,-3.4708728462058884,2.533178673808554,-0.18099998555341013,0.08855186620682265,-0.5283659644835745,-5.052777189586429,6.620163362644124,0.9925628371151448,,,,,,,,,
131,131,6.6,-4.92,3.56,3.6,0.999,0.462,2.25,-3.94,13.2,2.12,,,,,135,6600000000.0,-5.975249035577347,0.8105698253390052,2.9422571630439887,0.5877993012063139,0.22217378086187495,1.3652625035962225,-4.599733719236067,10.855677911862431,1.462121696598598,,,,,,,,,
132,132,6.65,1.86,-0.263,0.194,1.32,-0.0501,2.32,4.08,9.08,-1.78,,,,,135,6650000000.0,-2.988628085801789,0.1568205899258137,1.888422787176388,1.0648462639797005,0.12475264192147965,2.01597518847326,-1.0659653329694443,9.712654067033386,0.11183171382009503,,,,,,,,,
133,133,6.7,-12.7,-14.3,2.57,1.8,-0.999,2.79,-9.46,-5.41,-0.114,,,,,135,6700000000.0,-6.690384859032718,-8.646645386896296,2.1497773057726164,1.5438171385601087,-0.27733258159379554,2.543521006629501,-4.483417491596589,-0.021967940223381888,0.017776544929822072,,,,,,,,,
134,134,6.75,-5.2,-47.2,0.443,1.8,1.11,4.41,0.0524,-39.6,-2.97,,,,,135,6750000000.0,-6.122283553697067,-32.1236710410676,1.4953041230899922,1.7107266002196226,0.2190630749871127,3.815641927039452,-2.636756163215521,-25.498790277018088,-1.226582918154302,,,,,,,,,
135,135,6.8,-4.68,-15.4,-2.59,0.306,-0.507,2.38,1.61,-8.98,-6.54,,,,,135,6800000000.0,-5.572517392819196,-21.939808723786303,-0.0712282586649271,0.7955123509153283,-0.04072651860529264,2.8371631229314493,-0.9077799824190274,-14.865459333269387,-3.4395331227290113,,,,,,,,,
136,136,6.85,1.75,-9.35,-2.31,-0.493,-1.27,0.398,8.34,-3.52,-6.64,,,,,135,6850000000.0,-2.7813382342169843,-14.273258029282225,-0.929697617747034,-0.04398542724938948,-0.4805676996243626,1.1747223993890663,2.8572564148447404,-7.562259847347428,-4.772474519401406,,,,,,,,,
137,137,6.9,9.31,-3.54,-6.82,-1.01,0.293,-2.38,15.5,2.65,-11.2,,,,,135,6900000000.0,1.8276084762787592,-7.737251693541639,-3.1883666433285045,-0.6733678918152439,-0.20378068144826414,-1.2480411365743518,8.004479755416401,-0.9885135363763241,-7.44943235804524,,,,,,,,,
138,138,6.95,0.333,4.44,6.29,-0.0761,0.642,-3.63,5.68,11.8,2.69,,,,,135,6950000000.0,1.2578972972555418,-0.3219269063353876,0.4461653468835287,-0.2842330355261416,0.09884456331045338,-2.87149369392123,7.058117341692093,7.243596242260144,-3.2265266736056284,,,,,,,,,
139,139,7.0,-15.5,3.96,-4.05,0.219,-3.57,1.37,-11.4,11.8,-8.34,,,,,135,7000000000.0,-5.129836752234742,2.285548052572252,-1.2779141449172589,0.04363577534448332,-1.213889295998729,0.019346936036100267,-0.4567112080393052,10.176604588659242,-5.356203694689608,,,,,,,,,
140,140,7.05,-5.41,-6.5,3.42,0.0938,4.26,2.74,-0.156,0.78,-0.521,,,,,135,7050000000.0,-5.236628631354812,-3.0644022955720622,0.5235269931507653,0.07631901334286834,0.7447001531260122,1.8736404947708,-0.33428305612758624,4.127904762672648,-3.3424214419280687,,,,,,,,,
141,141,7.1,3.07,-4.13,-7.72,0.105,-0.66,0.232,9.26,2.52,-11.4,,,,,135,7100000000.0,-2.0703283982558456,-3.7132969789686365,-2.6374988517293807,0.0950053858806838,0.2420902743629589,0.7547608267823025,3.5718247066401583,3.092878413295715,-6.698269313014093,,,,,,,,,
142,142,7.15,4.32,-37.3,0.804,-1.44,0.83,-0.21,10.6,-30.7,-2.73,,,,,135,7150000000.0,0.3655213190100484,-24.16588438313052,-1.317837114142664,-0.9050887593740512,0.4524477811685363,0.09721658048026917,6.4331964991992585,-18.659977082743712,-5.045550869569562,,,,,,,,,
143,143,7.2,-0.883,-13.7,-3.34,-0.321,-1.62,-4.16,4.85,-6.4,-6.4,,,,,135,7200000000.0,-0.11038697085767996,-17.792694858181545,-2.093246601057401,-0.5245404418365748,-0.2890860676510602,-2.8043400631321678,5.788631780364366,-10.768092333878796,-5.6096565414309545,,,,,,,,,
144,144,7.25,-3.28,-23.2,-5.83,-1.85,1.1,-2.41,1.13,-14.9,-8.74,,,,,135,7250000000.0,-1.318572253776302,-21.085468164362773,-3.5261252874835134,-1.3881102576264253,0.2079369998328084,-2.535572947256985,3.8919692325515847,-13.427847414744024,-6.91339265579084,,,,,,,,,
145,145,7.3,-12.3,-19.2,0.101,-1.77,0.304,-3.41,-8.99,-10.2,-1.97,,,,,135,7300000000.0,-5.504445928776208,-19.937314751473966,-2.135284074880423,-1.6369208909188857,0.242308895461686,-3.1315491951781267,-1.3526496337255591,-11.350045693291486,-4.854551492817238,,,,,,,,,
146,146,7.35,-9.23,-7.21,6.38,-0.942,0.116,-2.08,-7.22,2.32,5.24,,,,,135,7350000000.0,-6.924543286324649,-12.187029695373194,1.1299486472761826,-1.1841626641108067,0.19711483822050452,-2.414853244571704,-3.7414160806010366,-2.5504839398382284,-0.6503380646415531,,,,,,,,,
147,147,7.4,-6.39,-0.6679999999999999,1.76,-0.4320000000000001,-0.519,-0.8340000000000001,-5.22,9.03,0.951,,,,,135,7400000000.0,-6.7207873410965995,-5.172528533679423,1.371545312363777,-0.6941100269488367,-0.0591152058796067,-1.3374038508281918,-4.343389895045076,4.9040033382396295,0.016592709609082656,,,,,,,,,
148,148,7.45,-6.28,1.41,1.06,0.698,-0.18600000000000005,1.48,-5.09,11.1,0.17,,,,,135,7450000000.0,-6.552769187198006,-1.1641046503744343,1.2520815208348304,0.21288421700563664,-0.1045153233879749,0.5828313673985996,-4.647356333820826,8.892436156655892,0.08048430626315936,,,,,,,,,
149,149,7.5,1.08,2.55,2.5,1.09,-0.308,2.31,3.26,12.0,1.21,,,,,135,7500000000.0,-3.6433289968060034,1.0975954841313404,1.730602749505505,0.7843469415238907,-0.17732332135552967,1.7600037144987049,-1.4280448955692568,10.892809870787945,0.5509089029747823,,,,,,,,,
150,150,7.55,-0.326,-2.22,-0.642,1.42,-0.274,1.78,2.74,6.89,-2.58,,,,,135,7550000000.0,-2.3788376958748625,-0.9226508524870324,0.8208151222275129,1.198490658168647,-0.2119147942795772,1.7736324019315344,0.2688856698266038,8.316156157809157,-0.7530627731662433,,,,,,,,,
151,151,7.6,-29.8,-52.0,-4.67,1.96,0.8140000000000001,5.97,-25.8,-43.4,-7.44,,,,,135,7600000000.0,-12.831168566878064,-32.02614948670367,-1.284668271974506,1.6946329200060244,0.15516347852630702,4.633716656673707,-10.344504687386596,-24.974114820190053,-3.5380614113354545,,,,,,,,,
152,152,7.65,-4.47,-21.5,-6.83,1.54,-1.17,2.62,1.66,-14.6,-10.1,,,,,135,7650000000.0,-9.644078829962107,-25.616261705767624,-3.4110563010612585,1.5938857097552246,-0.3189876915980398,3.2612439683462133,-5.4571267119554605,-18.29618095406481,-6.271000321821767,,,,,,,,,
153,153,7.7,-1.48,-11.0,-1.54,0.195,-1.33,2.12,5.26,-4.93,-5.33,,,,,135,7700000000.0,-6.532115361157698,-16.715704343447413,-2.693589420573248,0.6824769446282836,-0.6807337800465592,2.483415449058612,-1.093877108560954,-9.692220189269044,-5.879089239670857,,,,,,,,,
154,154,7.75,1.93,-6.68,-2.43,-0.624,-0.596,-0.453,8.74,-0.982,-6.6,,,,,135,7750000000.0,-3.3065470736026565,-10.604472517817584,-2.5925146279818727,-0.1687252201465571,-0.6504155472781262,0.4820664631137919,2.90977607497949,-4.0853537168106415,-6.1793365928122865,,,,,,,,,
155,155,7.8,10.3,-1.35,-5.69,-1.07,1.19,-2.95,16.7,4.91,-9.74,,,,,135,7800000000.0,1.879963126017782,-4.9689711188420835,-3.780262512267013,-0.7559281431754187,0.008095840025421963,-1.8570994107373384,8.52417186711905,1.7050563041244438,-7.662293839354444,,,,,,,,,
156,156,7.85,-1.4,6.34,9.55,0.568,-0.92,-3.43,3.98,13.8,6.19,,,,,135,7850000000.0,0.6297148629333564,1.9176151736347744,1.3313002970365355,0.10664391432240328,-0.3239822453059594,-2.9291286170317026,6.674109240895064,9.49070739428567,-1.8930428356885336,,,,,,,,,
157,157,7.9,-15.0,-8.82,-1.39,-0.6779999999999999,0.374,3.77,-10.7,-1.08,-5.61,,,,,135,7900000000.0,-5.3279813827725055,-4.621044231561089,0.28780268351803273,-0.4045710534452992,-0.07424014138972462,1.6367423972927568,-0.3993886136075133,2.686224409182397,-3.441093994664265,,,,,,,,,
158,158,7.95,-0.182,-5.68,7.44,1.07,2.29,2.85,6.07,1.14,4.18,,,,,135,7950000000.0,-3.3664488624742597,-5.265894140724197,3.0303522427238727,0.5561486211315201,0.7716986924799409,2.463652525180549,2.2344850175770783,1.6909023984960636,-0.26703462834783576,,,,,,,,,
159,159,8.0,1.25,-11.3,-7.27,-0.617,-0.245,-0.0311,8.04,-5.09,-10.7,,,,,135,8000000000.0,-1.6067622464578877,-8.940356743377952,-0.9193746698059028,-0.20818681270446396,0.40791799644682863,0.7633241805332385,4.598076576952028,-2.6740406582111764,-4.612191848561103,,,,,,,,,
160,160,8.05,8.45,-23.6,-2.78,-0.336,1.19,-4.35,14.8,-16.9,-5.92,,,,,135,8050000000.0,2.2266495635956627,-17.867331488262337,-1.6328417113431684,-0.2914602736193582,0.6877514979485582,-2.7217228499747903,8.751572136669763,-11.831450062202798,-5.156872317137923,,,,,,,,,
161,161,8.1,-4.59,-23.3,-7.71,-1.23,-1.33,-2.51,-0.0229,-15.2,-10.8,,,,,135,8100000000.0,-0.3717041989999008,-21.175548862991253,-3.9631616143818666,-0.9029422124854836,-0.0342117168602859,-2.577420609291094,5.179232993669406,-13.999823330929726,-7.507141622109435,,,,,,,,,
162,162,8.15,-6.77,-21.1,-1.03,-1.69,1.25,-2.57,-3.14,-12.3,-3.38,,,,,135,8150000000.0,-2.8105908385317058,-21.129543693752037,-2.8384245929113314,-1.4157299332286954,0.4252866905614103,-2.572362959004169,1.792234713413738,-12.90562810285676,-5.788255532688883,,,,,,,,,
163,163,8.2,-14.4,-13.2,6.14,-2.0,0.682,-2.74,-12.0,-3.8,4.66,,,,,135,8200000000.0,-7.228213155001116,-16.30085619337285,0.6044018220894554,-1.7963963834043208,0.5171401963012958,-2.6866179906491516,-3.8229794177090586,-7.044233093381783,-1.4367301977326417,,,,,,,,,
164,164,8.25,-5.04,-3.45,3.2,-0.5760000000000001,0.0977,-1.28,-3.58,6.21,2.33,,,,,135,8250000000.0,-6.394115435372231,-8.475340710539326,1.5996982879913726,-1.0012778330330567,0.36706205905463213,-1.7279206991356937,-3.724055500254856,1.4876654914455882,0.1320505180029694,,,,,,,,,
165,165,8.3,-7.76,1.28,2.59,0.232,0.179,0.0819,-6.68,11.0,1.89,,,,,135,8300000000.0,-6.914760039430712,-2.5348361494980285,1.9794349124784545,-0.19776671901338566,0.2997723644177305,-0.4944158106880745,-4.927505173695049,7.6108619469902825,0.8642073583500578,,,,,,,,,
166,166,8.35,-3.63,3.92,3.08,0.789,0.16899999999999998,2.13,-2.03,13.5,2.1,,,,,135,8350000000.0,-5.66268333523139,1.3958296560665577,2.4014526405570544,0.4451362736620205,0.2529812531816638,1.2942861714966116,-3.747847743622256,11.40176619031494,1.3788944882358942,,,,,,,,,
167,167,8.4,1.04,-0.333,-0.211,1.11,-0.321,1.65,3.67,9.01,-1.61,,,,,135,8400000000.0,-3.1077710117892487,0.3430606326694341,1.3996932579474382,0.8783115027126633,0.04760742520930245,1.5367271586115876,-0.7278292501433019,9.862159604321858,0.13406942623660445,,,,,,,,,
168,168,8.45,-11.1,-10.4,-0.132,1.63,-1.1,2.04,-7.76,-1.4,-2.15,,,,,135,8450000000.0,-6.154229333526615,-6.198914732682258,0.8123570243437351,1.3680552126143102,-0.3630131821727225,1.879738741538696,-3.5908276454563355,2.612581116206456,-0.817207703626704,,,,,,,,,
169,169,8.5,-2.84,-52.9,1.68,1.79,1.32,6.11,2.36,-45.1,-1.15,,,,,135,8500000000.0,-4.890919519990632,-34.6374929582978,1.1450594921658552,1.6429626894777738,0.23917872343490446,4.762923858857472,-1.1680751624895942,-28.10054172126894,-0.95581017384927,,,,,,,,,
170,170,8.55,-7.86,-19.2,-3.25,0.7140000000000001,0.395,2.69,-1.41,-12.6,-6.67,,,,,135,8550000000.0,-6.0226663611527,-25.23684814356121,-0.540250328455492,1.0377204315854702,0.2949324846052285,3.350097912557174,-1.266569685462644,-18.122669338256365,-3.335675636995978,,,,,,,,,
171,171,8.6,-1.04,-11.4,-2.01,-0.179,-2.16,1.62,6.11,-5.92,-5.84,,,,,135,8600000000.0,-4.123385845734446,-16.810913626927864,-1.1038339485752622,0.2449968678770731,-0.5834566405157025,2.1709290440085254,1.7366433505256094,-10.2676742152571,-4.378685324269232,,,,,,,,,
172,172,8.65,3.98,-4.78,-2.63,-0.517,-0.8420000000000001,-1.28,5.9,-5.91,-6.18,,,,,135,8650000000.0,-1.0345571647477767,-9.484701415776415,-1.689050788487917,-0.2514630171633849,-0.6759649581696124,-0.18109279487670624,3.431665231483351,-7.462590329738719,-5.128902984110384,,,,,,,,,
173,173,8.7,5.11,1.45,-2.8,-1.13,2.02,-3.91,11.4,7.89,-6.76,,,,,135,8700000000.0,1.3076100640477681,-2.8260263335583087,-2.115050377196184,-0.8238516637995681,0.2886669477034074,-2.7225740436557024,6.675802587131858,2.420044242080726,-5.808227974377964,,,,,,,,,
174,174,8.75,-5.36,8.75,9.48,0.805,-1.75,-2.18,-0.202,16.3,5.97,,,,,135,8750000000.0,-1.2339331816356682,4.223182861218752,2.331135512812003,0.23738562817808395,-0.4407799210911095,-2.3527762769726355,3.8756519864268832,11.35472701127365,-0.9027911666193208,,,,,,,,,
175,175,8.8,-11.7,-10.2,3.95,-0.8540000000000001,1.54,3.47,-6.97,-2.66,-0.225,,,,,135,8800000000.0,-5.2233627010832855,-4.559799223400576,2.9518980539648703,-0.4736791789223981,0.2679546198855052,1.6158063778907223,-0.5399237620104662,2.3332899277435875,-0.6205023679641979,,,,,,,,,
176,176,8.85,-0.5670000000000001,-4.98,16.3,1.89,1.51,2.0,5.8,1.61,12.8,,,,,135,8850000000.0,-3.448461815572666,-4.815680060845044,8.070301126919146,1.0663164637110256,0.7123656638224747,1.8776581243420027,2.0412410245107786,1.8677000948466431,4.968914694261126,,,,,,,,,
177,177,8.9,0.62,-17.5,-7.18,-0.556,-0.0593,0.745,7.33,-11.4,-10.9,,,,,135,8900000000.0,-1.897655551644805,-12.539783493935662,2.2224890522158027,0.009337025183867144,0.43625920900724297,1.1056814707102602,4.194446384189021,-6.672867079817093,-1.6402253160296647,,,,,,,,,
178,178,8.95,8.04,-15.7,-1.2,-0.125,0.529,-4.77,14.5,-9.1,-4.56,,,,,135,8950000000.0,1.8903555197723108,-14.464193931991167,0.9101167165713162,-0.07818688098932483,0.4694423967746703,-2.8989593175870154,8.39013268847339,-8.235240019545897,-2.8562630944383387,,,,,,,,,
179,179,9.0,-5.36,-28.1,-6.82,-1.69,-1.04,-1.32,-0.667,-20.1,-10.2,,,,,135,9000000000.0,-0.8733172045496544,-22.767704085834964,-2.0540392702841777,-1.1283231707581567,-0.07064484178440122,-1.8228007939730784,4.702714333693651,-15.872719392110545,-5.914807818438781,,,,,,,,,
180,180,9.05,-6.51,-16.5,-1.33,-0.813,0.122,-3.1,-2.47,-8.03,-4.02,,,,,135,9050000000.0,-3.0218941675202546,-18.950992202247832,-1.7764024322448213,-0.9228823138618648,-0.0017153985581041947,-2.6932910844055535,1.7824966980015056,-10.824272748914144,-5.125651733537593,,,,,,,,,
181,181,9.1,-13.1,-13.2,4.96,-1.81,1.58,-2.96,-10.6,-3.91,2.99,,,,,135,9100000000.0,-6.863441891277198,-15.448931366554733,0.8067082763236653,-1.5008614674995449,0.5642315686041847,-2.875069753577526,-3.2587728296705665,-6.373477854644157,-1.7456171837572456,,,,,,,,,
182,182,9.15,-4.66,-4.0,1.69,-0.289,0.275,-1.26,-3.11,5.57,0.221,,,,,135,9150000000.0,-6.023539275811201,-8.477116519734041,1.1454113850012462,-0.7113036457844667,0.4607428364379629,-1.774299689279485,-3.198203103160603,1.314672961728248,-0.9265536950134988,,,,,,,,,
183,183,9.2,-8.57,2.09,2.76,0.0968,0.109,-0.0506,-7.45,11.7,1.43,,,,,135,9200000000.0,-6.9941927913255055,-2.0422819589133607,1.7645342974211466,-0.18480406363918733,0.3348872066782007,-0.5994916026976183,-4.929231427639447,7.99982438121665,0.05491187083777094,,,,,,,,,
184,184,9.25,-4.53,6.37,2.37,0.459,-0.665,2.47,-2.86,15.9,0.841,,,,,135,9250000000.0,-6.054897927641362,3.0803683200691414,1.996703419035084,0.2346502575468623,-0.0228782481122361,1.4925570366390737,-4.086787952485743,13.085255824759546,0.3823045669711607,,,,,,,,,
185,185,9.3,1.62,-0.395,1.22,1.01,-0.624,1.38,4.21,8.87,-0.691,,,,,135,9300000000.0,-3.1293992221895075,0.9640463900059792,1.6988722169942112,0.7398098528431087,-0.2379631051871523,1.415842442299594,-0.7089277191023151,10.371848279754227,-0.06470900409787744,,,,,,,,,
186,186,9.35,-14.2,-14.9,0.8640000000000001,1.25,-0.715,2.0,-11.0,-6.0,-1.59,,,,,135,9350000000.0,-7.349263508501331,-8.696347925576527,1.3787358659386242,1.072211396714793,-0.4086496660705684,1.8139819945565496,-4.898718256809888,-0.16689415693719134,-0.699967457842946,,,,,,,,,
187,187,9.4,-2.98,-45.7,2.72,2.04,2.43,5.64,2.4,-38.1,-0.325,,,,,135,9400000000.0,-5.683798404643476,-31.229683830773663,1.893051012167508,1.702749667565377,0.6070356873159792,4.421650118296178,-1.9272007847085597,-24.58485903127023,-0.5437997164256063,,,,,,,,,
188,188,9.45,-9.88,-14.0,-2.33,0.284,-0.479,2.46,-3.31,-7.59,-5.79,,,,,135,9450000000.0,-7.283296245258137,-20.73768578383612,0.2736988218506018,0.7783990516167508,0.21844581295253893,3.0846641043345486,-2.4901779623919738,-13.645077681608207,-2.728755237680333,,,,,,,,,
189,189,9.5,-0.728,-9.62,-2.26,-0.622,-1.31,0.782,6.31,-3.96,-6.09,,,,,135,9500000000.0,-4.784564549867447,-13.967582520371304,-0.6978619723776761,-0.13399567496475195,-0.32844095140934515,1.5152559175799378,1.0926267357803172,-7.410684531873468,-4.128658080031388,,,,,,,,,
190,190,9.55,3.54,-4.42,-3.39,-0.486,-1.13,-1.52,10.3,1.48,-7.42,,,,,135,9550000000.0,-1.6114275365857225,-8.153592122165794,-1.7301771984408112,-0.36333523045943983,-0.6152434305140169,-0.5534589496450055,4.841212415264378,-1.6876511292143013,-5.499447514410959,,,,,,,,,
191,191,9.6,7.0,1.44,-4.04,-1.38,1.74,-3.06,13.0,8.15,-7.93,,,,,135,9600000000.0,1.6710552185255343,-2.311584143501909,-2.6158914860430977,-1.0257175584864378,0.2274763450379621,-2.26182186571996,8.162888727376483,4.644955039681934,-6.51173230141341,,,,,,,,,
192,192,9.65,-6.39,9.26,13.7,1.04,-4.94,-1.76,-1.41,16.9,10.1,,,,,135,9650000000.0,-1.4016379199969975,4.7349201236382985,3.640527086034712,0.3201486774455369,-1.6214767100175744,-1.9197991800699397,4.265491315924088,12.533664741833716,0.4067792583976262,,,,,,,,,
193,193,9.7,-10.5,-7.16,1.9,0.303,5.73,3.27,-5.85,0.255,-2.57,,,,,135,9700000000.0,-4.869729185990402,-2.508479019985762,2.973112358984646,0.3089758904762857,1.0089243405768795,1.6173703506927992,0.1471848612292268,4.6297504726706435,-0.8329999772501011,,,,,,,,,
194,194,9.75,4.24,-8.1,-5.53,1.1,0.505,0.794,10.7,-1.68,-9.15,,,,,135,9750000000.0,-1.3973051217565249,-5.913430136924803,-0.2874530880996065,0.8243477467062335,0.8286172844216246,1.056192485792094,4.443538342054562,0.5680933291262464,-4.296892592162698,,,,,,,,,
195,195,9.8,5.95,-38.1,-5.77,-0.297,0.253,-0.304,12.4,-31.8,-9.56,,,,,135,9800000000.0,1.4033224896539551,-25.513407446335567,-2.389765954846476,0.09376186360403184,0.6226580753153174,0.12913707711688582,7.682841814025393,-20.26761103932089,-6.488889841329402,,,,,,,,,
196,196,9.85,-1.02,-12.8,-4.89,-0.42,-0.996,-4.17,4.71,-5.68,-8.36,,,,,135,9850000000.0,0.4796063942726524,-17.771591322151085,-3.34849444820288,-0.2409667336400642,0.043492822204818316,-2.8009911370730265,6.4725127051921705,-10.877402023687246,-7.268176092455925,,,,,,,,,
197,197,9.9,-2.15,-23.3,-5.42,-1.54,1.42,-2.36,2.2,-15.2,-8.8,,,,,135,9900000000.0,-0.5227405358153773,-21.138109571447337,-4.1428247148846316,-1.0873191240279985,0.5360150659889402,-2.500428295223964,4.733050323036666,-13.659906719626315,-7.906155461246284,,,,,,,,,
198,198,9.95,-13.3,-17.5,-0.421,-1.83,-0.0293,-3.7,-10.1,-8.57,-2.95,,,,,135,9950000000.0,-5.393144925408713,-18.922686532169422,-2.7156704869662374,-1.5711941761392638,0.3337420534153077,-3.3180107336067266,-1.3059098349281797,-10.383476456866703,-5.841998809105803,,,,,,,,,
199,199,10.0,-9.32,-6.75,5.79,-0.805,0.269,-1.96,-7.38,2.72,4.13,,,,,135,10000000000.0,-6.889973762168963,-11.51014173007657,0.5458757933322014,-1.071999657985733,0.3105769686435748,-2.3924423434981827,-3.778846112474576,-1.9486216166557764,-1.6888264011443803,,,,,,,,,
200,200,10.1,-4.7,-0.479,1.89,-0.716,-0.12,-1.19,-3.6,9.18,0.6,,,,,135,10100000000.0,-6.05520488046973,-4.792739449123385,1.0612876337319457,-0.8400570581998948,0.15651403062940752,-1.5729034585472634,-3.706032694312872,5.21499718223901,-0.7355680998002317,1.270799558634455,0.9921990526628996,2.238256742289076,2.741062395242515,2.9888126502588963,2.9159366142613274,2.7422265949260876,2.406545544238677,1.4200231652098683
201,201,10.1,-7.07,0.943,0.539,0.282,-0.732,0.8029999999999999,-6.24,10.7,-0.584,,,,,135,10100000000.0,-6.442022052088803,-1.299966866403336,0.8610135481414588,-0.1090090317342136,-0.16140144515890398,0.046421869167536434,-4.7376833320183565,8.74575491728882,-0.6724424927388402,1.1745647400558124,1.0861782218592715,2.286942415838303,2.659956534247512,2.9286650030555013,2.65753631913486,3.0291908713661586,2.57286372012664,1.4687019450335863
202,202,10.2,0.716,3.96,3.19,0.779,-0.26,1.94,2.22,13.6,1.84,,,,,135,10200000000.0,-3.713544814816783,1.903084508859182,1.7540762797931806,0.4695508827110464,-0.19668057705486,1.33701267299581,-1.9050109813598468,11.870487189254884,0.3739482114780226,1.1691464476622553,0.9062529048090353,2.444459663242556,2.676236302649063,2.940272264105468,2.3745961165390903,2.8012873389741673,2.5528032716566282,1.610707901983379
203,203,10.2,-0.5770000000000001,-3.23,0.802,1.2,-0.293,1.53,1.69,6.13,-1.05,,,,,135,10200000000.0,-2.5179643899071027,-1.2227019751413533,1.3889973700580345,0.9454566435528614,-0.2311442302611875,1.4685454684907842,-0.4413789300762505,8.17527124852124,-0.2191026171049452,1.2945669123994643,0.883342391523996,2.4351245508655572,2.9994339878312437,3.0359770551249725,2.721496943780587,2.8562543803403764,2.8776789207226807,1.6126125754318392
204,204,10.3,-25.9,-48.1,-3.11,2.5,0.522,5.95,-22.6,-39.3,-5.82,,,,,135,10300000000.0,-11.430671033640866,-29.768582917805322,-0.3361679632958321,1.9582802242865676,0.03833515278184102,4.522934136711983,-9.462788939801113,-22.385093055521487,-2.55178369356148,1.1903498820446594,1.0072160922808362,2.4585257631578314,3.2188751372273186,2.959508267510219,2.8478115712321594,2.583106128337349,2.388722194031373,1.6395600104168924
205,205,10.3,-6.13,-22.9,-7.03,1.81,-0.453,3.03,-0.395,-15.7,-10.5,,,,,135,10300000000.0,-9.410174337956876,-25.585966262210803,-2.902954884553208,1.861671940545042,-0.13746742043290427,3.50540704612636,-5.771032122245996,-18.081823523352412,-5.862084156837983,1.314643466679068,1.0131535592579073,2.6792058549761566,3.1633854123052787,2.944236659850415,2.8504463203740618,2.717758491903449,2.3337319536250316,1.778900044144671
206,206,10.4,-3.22,-13.9,-1.09,0.187,-1.32,2.79,3.41,-7.76,-4.91,,,,,135,10400000000.0,-7.050618929142594,-18.469809029941498,-2.2077673403404665,0.7705816098554339,-0.5605844610291917,3.017812813270232,-2.0331707194852786,-11.437550053509334,-5.465556809184181,1.229305798116623,0.9164850135863516,2.7089939032042722,2.9424790121122464,2.9932877343486313,2.63239911303076,2.4085799809344812,2.596337278038977,1.6501893920181316
207,207,10.4,1.85,-7.74,-2.95,-0.544,-1.43,-0.0042,8.59,-2.14,-7.34,,,,,135,10400000000.0,-3.6579029016473954,-11.935902842614105,-2.4923805686941782,-0.08590095634744288,-0.8716663692520973,0.9581239288757244,2.2918266748951237,-5.452612829176941,-6.246231419540278,1.1465878041250646,0.7637648832083345,2.7093602227746643,3.0030867958429583,3.118933473264066,2.700576124039347,2.314096181645583,2.8703891943250217,1.5212325748247526
208,208,10.5,13.1,-1.41,-7.88,-0.99,1.01,-3.11,19.3,4.68,-12.4,,,,,135,10500000000.0,2.7298334295188744,-5.5261652350139805,-4.558293020255563,-0.6749439293796832,-0.19839522226235884,-1.8145543947223164,9.216341294905373,1.0698636306353864,-8.809173963455603,1.2223368327354642,0.9091628641262544,2.7904933125177513,2.747101908798325,3.225315275723512,2.8734496350775203,2.7436717079670303,2.4408094335551374,1.4713920202780182
209,209,10.5,0.00239,5.65,7.87,0.179,-0.615,-3.7,5.23,13.1,4.15,,,,,135,10500000000.0,1.690193255485361,1.279549017802205,0.2074044919312925,-0.11857826102768265,-0.3474588336307797,-3.0996023722405117,7.593387485849368,8.813797640334268,-3.4118925814866388,1.1780779305349631,0.9525147399770976,2.5908261690223853,2.528314054134564,2.9864771924298386,2.608807344441995,2.977712133811224,2.2665766841450643,1.273349072259766
210,210,10.6,-17.7,-1.13,-2.42,-0.438,-2.7,2.23,-13.9,6.62,-7.05,,,,,135,10600000000.0,-5.700913179926414,-0.18774334734249387,-0.8000882916062746,-0.3266894478714313,-1.1892117370337258,0.5328517179513974,-1.1571865510633863,7.401625410253311,-4.927104150979086,1.1176730539592306,0.9560765744006322,2.8423392776485636,2.5079524947729683,3.1625699553174806,2.39089183384934,2.8381599876223613,2.500624884784315,1.4040693884470117
211,211,10.6,-2.43,-6.4,4.65,0.25,3.45,2.45,3.03,0.677,0.616,,,,,135,10600000000.0,-4.454114569378954,-3.9706906322449065,1.2897781819177954,0.04903804093878394,0.4707251711743357,1.8395070330252488,0.5475371154834985,3.072908571650495,-2.618493071401065,1.1859775733117546,0.7761810163035907,2.884275645851772,2.6584844449067804,3.2294800631259655,2.471407685589159,2.801174786732684,2.762940567101203,1.4792045289613402
212,212,10.7,-2.84,-8.27,-7.08,-0.0687,-0.251,0.504,3.28,-1.69,-11.0,,,,,135,10700000000.0,-3.8388503175475215,-6.588750878478501,-1.9196594293301543,-0.02767121542876648,0.2124877197627488,0.9292762880350828,1.6600010751006269,0.006970845411097493,-6.109251903193421,1.0974864714741446,0.9196873535726079,2.901635260664263,3.039466280363851,3.3703489990651545,2.8518458075522837,2.5968252566309147,2.615750153866843,1.4770936170954418
213,213,10.7,12.7,-24.2,-3.98,-0.0174,1.93,-1.39,18.9,-17.6,-7.82,,,,,135,10700000000.0,2.465387870602708,-17.313103176915096,-2.7097084004324965,-0.02097926380297634,0.8270235653973295,-0.6514541245235911,8.678898697793556,-11.326834090943912,-6.821750225750586,1.221772318990368,0.985541689469183,3.031928544353795,3.1457021923101203,3.473028323427059,3.099294057297546,2.4697983064043547,2.2781936873423856,1.5849459731264006
214,214,10.8,-2.52,-20.7,-3.27,-0.967,-1.42,-3.7,2.74,-13.2,-6.79,,,,,135,10800000000.0,0.5650699987212661,-19.37555093897304,-2.924555299479293,-0.6373352587881943,0.02302550459168096,-2.7292269665968387,6.261002792558324,-12.532611881533347,-6.808526766645165,1.365607033184453,0.9176099314010945,3.0799047444119254,3.1582710494456943,3.317133449625417,2.961930547597275,2.517625804861084,2.2595232305365056,1.539052936820907
215,215,10.8,-4.54,-23.3,-2.74,-1.8,1.98,-2.37,-0.29600000000000004,-14.9,-5.66,,,,,135,10800000000.0,-1.3808680049405049,-21.765339647997347,-2.85378655490548,-1.3948401641406487,0.7232423465371178,-2.484391464055422,3.5914589858395387,-14.056525930922945,-6.33018432524194,1.2354759208713808,0.8090417690156987,3.1225607914947298,2.9685351563364684,3.4588742796953262,2.622157053597012,2.2732522155710195,2.7994266394792717,1.4661540645627644
216,216,10.9,-13.6,-18.0,1.92,-1.88,0.202,-3.66,-10.5,-8.93,-0.219,,,,,135,10900000000.0,-6.038526812144651,-19.472439985945293,-1.023251768164282,-1.7109338358390458,0.5367388115372121,-3.2856415448479592,-2.1455779243914326,-10.756523863858911,-3.784977258181645,1.2459397104252414,0.7454890712920432,3.1810867591222567,2.8317217291007215,3.4981952490040524,2.619313473770586,2.421239661927812,2.833002969730277,1.5501333117189462
217,217,10.9,-8.67,-5.38,4.01,-0.746,-0.0941,-1.91,-6.88,4.17,2.68,,,,,135,10900000000.0,-7.0415853147458485,-10.890863384735574,0.9067764909307204,-1.0822554867002985,0.3110210231582874,-2.348056616259105,-4.073096918714518,-1.148152921714999,-1.0924212671624924,1.2806810512048545,0.9095994464756428,3.283869895237054,2.501310185824863,3.373208892759544,2.807291545806482,2.858426617917801,2.3370930984881255,1.582809618123929
218,218,11.0,-7.02,0.524,2.35,-0.433,-0.669,-0.5579999999999999,-5.96,10.2,1.32,,,,,135,11000000000.0,-7.033357470323508,-3.939794206685642,1.4601884747270488,-0.6592494214053329,-0.039636198741653306,-1.1280221938396315,-4.841309270117748,6.156780322256607,-0.08768773902873228,1.0409358956028911,0.8657070026482622,3.1419082338314426,2.391387673119614,3.3260567137451784,2.5286504137985855,3.0282678159937766,2.165140627111078,1.4093268663207008
219,219,11.0,-4.61,2.87,1.6,0.642,-0.15,1.78,-3.35,12.5,0.474,,,,,135,11000000000.0,-6.109628084718982,0.20702282243857967,1.5137999849192252,0.1885468865912117,-0.07912500965051374,0.8539750046140286,-4.234154476355143,10.239982002408867,0.14624590519094435,1.055948834684295,0.8573094797065138,3.3012132949369226,2.5568117367327625,3.313062012132805,2.446120557890835,2.753827479247858,2.7608602584565904,1.4606553121574373
220,220,11.1,3.81,1.68,2.4,1.24,-0.545,1.79,6.05,11.1,0.867,,,,,135,11100000000.0,-2.328488686048265,1.1039907106262787,1.853618308615701,0.8735946934206142,-0.2458177916750087,1.4919339806880827,-0.0471802975345561,10.79358548277775,0.4464280427044893,1.1283177767195782,0.7364035252940258,3.2483250254638247,2.6862654311043834,3.502732582811132,2.5446869668961587,2.659398214059859,2.7766133197302305,1.4517331229927537
221,221,11.1,-1.13,-3.5,-0.8240000000000001,1.6,0.687,1.32,1.77,5.61,-3.02,,,,,135,11100000000.0,-1.8716517164415691,-1.699604643673411,0.8268707888070415,1.3468657956835717,0.08794982103688526,1.374750360784005,0.6926458865781914,7.45685343145229,-0.9972818225196124,1.1170861570131796,0.9450598445448655,3.23269599480527,3.0519450219941726,3.6940337580655074,3.0775621404806297,2.4604250382242037,2.626850327707458,1.4804471964350172
222,222,11.2,-26.5,-64.6,0.113,2.0,1.56,7.88,-22.5,-56.2,-2.84,,,,,135,11200000000.0,-11.259424903197887,-40.00273403957862,0.553133093904244,1.7723989406884717,0.6146579001683989,5.808480935864494,-8.749745112886393,-33.519777870116634,-1.764743390913854,1.329940854090357,0.9252583964549326,3.3793315368349033,2.89280162340624,3.705778490424196,3.1354343033254017,2.3782426772186973,2.123039147671491,1.5762155750360218
223,223,11.2,-7.69,-19.4,-7.67,0.932,-1.37,2.18,-1.51,-12.7,-11.4,,,,,135,11200000000.0,-9.898840324995426,-27.456720344241663,-2.6000727074540384,1.2248581598810633,-0.09546421958994344,3.3354465129490705,-5.802237333192023,-20.117853125692694,-5.777668042729024,1.3685850623088245,0.8717089307209342,3.4576281555538584,3.053014857000334,3.5442863153031063,3.036408961009281,2.3793963183345817,2.5783786396673833,1.5827693037619208
224,224,11.3,-2.27,-13.4,-1.99,-0.234,-1.38,2.02,4.48,-7.54,-5.98,,,,,135,11300000000.0,-6.9908977377165975,-18.896894879708572,-2.3661369641664534,0.27437586134033964,-0.5550785771248563,2.438888236207525,-1.6160437481997783,-12.0213479153341,-5.861935960108948,1.2852565852495463,0.7395981137205254,3.4311402714269854,2.407179881420498,3.5834640032944693,2.551063085676135,2.454808219764971,2.8721770799437456,1.5571768607511676
225,225,11.3,1.04,-6.79,-2.56,-0.643,-0.415,-0.332,7.84,-1.15,-6.82,,,,,135,11300000000.0,-3.929699917157367,-11.52441381271765,-2.4404747933343893,-0.3233172860841478,-0.5049576460571289,0.5503563116534345,2.2337827983699303,-5.023339265796858,-6.260953837966848,1.3097533894714637,0.8350739980129761,3.429366011802363,2.2884091512438354,3.6111111734947867,2.4589911268415063,2.6785853136734565,2.8084258666271436,1.4826049787779054
226,226,11.4,11.3,-1.28,-5.65,-1.05,0.555,-2.53,17.6,4.86,-9.84,,,,,135,11400000000.0,1.8755196886843064,-5.286088659980028,-3.67118498524204,-0.7967690795114197,-0.12569864445336354,-1.5490972606851874,8.489810476800669,1.3386772007587124,-7.751567356345903,1.2086165781142264,0.8890133685022694,3.475940178715536,2.027390635699635,3.336518205865034,2.541383931853369,3.050694318855409,2.1197703782005632,1.3891109272615556
227,227,11.4,-0.268,5.83,13.0,-0.0602,-0.256,-3.5,5.26,13.2,9.71,,,,,135,11400000000.0,1.0584581265486632,1.4830419204261058,2.721472913269816,-0.31687604135526004,-0.17232123024642115,-2.878758296288918,7.1748621365349186,8.973943652875537,-0.4791137130423335,0.981541289623518,0.9137243754216632,3.335521567123786,2.340312964967669,3.413382106891773,2.6958808150387563,3.1923169558296687,2.3740949576589863,1.2475574799990827
228,228,11.5,-16.6,-3.17,-4.16,-0.87,-1.63,2.46,-12.3,4.54,-8.4,,,,,135,11500000000.0,-5.672549628920362,-1.3504231635186756,0.08273420118006937,-0.6772500321418828,-0.6938871545012595,0.7599361361650865,-0.7539125989618459,6.1197643482539466,-3.778031516934624,1.0530275816289514,0.8011740802520544,3.5269739673746443,2.474041260347892,3.4231317780625408,2.4955166000282385,2.6917034345263455,2.855714191923345,1.3549580320330534
229,229,11.5,-3.31,-5.53,2.67,0.7829999999999999,3.45,2.93,2.7,1.44,-0.7120000000000001,,,,,135,11500000000.0,-4.771998753945981,-3.8955722583832433,1.0748355813002168,0.2741391024612032,0.7888197426094605,2.238969096204309,0.6522742521251412,3.107347565194916,-2.5010801710500083,1.0980114693641776,0.8081291570317038,3.5093015878236575,2.6750300909786473,3.56298593279836,2.5419784641974243,2.527167937524514,2.911494350602969,1.3861003299376025
230,230,11.6,1.47,-10.8,-6.93,-0.392,-1.7,0.331,8.35,-4.63,-10.1,,,,,135,11600000000.0,-2.3926890199770825,-8.100016466005211,-1.99466273888606,-0.15986704978918506,-0.10169442649909932,0.9385699974091856,3.7862392285890873,-1.873269952477203,-5.665904594937012,1.122070895426444,0.9236013173169317,3.5284091722693454,3.1631337300493496,3.7013189533232485,2.9488876360180343,2.3668770633059584,2.3678915509256337,1.448258918723651
231,231,11.6,9.85,-27.0,-3.01,-0.562,2.17,-3.7,16.3,-20.3,-6.27,,,,,135,11600000000.0,2.273949196009776,-19.609141779822476,-2.3839994121155934,-0.4218666326311399,0.7111310542822673,-2.222902753428651,8.880949657545838,-13.73476234860502,-5.917500318934149,1.293964753392061,0.9059376254286775,3.501395913305759,3.3936409645057863,3.641980036874973,2.8392975011939323,2.389286230257849,2.0936628192676037,1.5171613432371347
232,232,11.7,-6.46,-22.4,-6.75,-0.902,-1.43,-3.06,-1.54,-14.5,-9.76,,,,,135,11700000000.0,-1.0552360782477206,-21.30863175773507,-4.058166435500791,-0.7346854449810591,-0.05497804790498917,-2.793436329123049,4.6382823321662014,-14.227354411095805,-7.517837896779878,1.3642909008130015,0.8083743154583227,3.460739907058536,2.6512136126640256,3.5143372947473273,2.5648568137512715,2.487522371574423,2.6263884849618178,1.459630312202435
233,233,11.7,-7.4,-21.8,-0.833,-1.56,1.76,-2.56,-2.5,-13.8,-9.07,,,,,135,11700000000.0,-3.473717611415593,-21.607849473164272,-2.8214585662799507,-1.2723983247312372,0.5944316305665047,-2.634334975191835,1.732082962999372,-13.952261704355633,-8.16428758071514,1.3639536999470507,0.7703188482074079,3.4696893577690284,2.0002200062749704,3.5372691426792104,2.219306386724985,2.6677973874237755,2.873622121979277,1.3614957704105493
234,234,11.8,-15.9,-13.5,5.35,-1.61,0.8059999999999999,-2.73,-13.1,-4.18,3.88,,,,,135,11800000000.0,-8.210337204997561,-16.67058297002825,0.3119322864208609,-1.4923542048151714,0.6701320193029531,-2.6995366271016725,-4.30648335496317,-7.661747085881036,-3.14804121801696,1.3046797060737036,0.8807273709551865,3.554085974453079,2.095681689254643,3.2686788256293013,2.210388669017535,2.7881741998843883,2.6104593057023897,1.3678580091620318
235,235,11.8,-6.7,-2.22,2.88,-0.597,0.0171,-1.65,-4.87,7.36,1.92,,,,,135,11800000000.0,-7.634630513531055,-7.870915518924542,1.296672069420051,-0.9090087194112032,0.4364733720728518,-1.9842124020263736,-4.535907088786813,2.007920149556514,-1.0372859991066323,1.1114807603548569,0.8976549630449524,3.48904141006194,2.2829610508336837,3.246083077536367,2.3880984586429657,3.1077783298172315,1.9911469569794589,1.2748407974928817
236,236,11.9,-7.83,1.35,3.26,-0.34700000000000003,-0.853,-0.123,-6.58,11.1,2.6,,,,,135,11900000000.0,-7.709100944484708,-2.2558485904830032,2.0495209972518893,-0.5428460914348225,-0.02490768083988837,-0.7156808880931878,-5.368115879491509,7.860594211797784,0.4775833436493586,0.9980144648355966,0.8736666182345407,3.4278263373698654,2.7577967466336615,3.1984134795818764,2.608738867827633,3.0916072981033027,2.449360333255874,1.18311182879873
237,237,11.9,-4.52,5.8,5.16,0.35700000000000004,-0.513,2.17,-2.85,15.4,4.41,,,,,135,11900000000.0,-6.493487287780943,2.6497521453818513,3.242251280506084,0.043425967105804486,-0.19954995021249802,1.2510893984032954,-4.342918679788822,12.713794067406585,2.1153696937336006,0.9891804882458456,0.7197346469545498,3.5644236818589197,2.8757533905323065,3.2657647712688673,2.281993206542249,2.700992777752624,2.739692704644627,1.383438756813078
238,238,12.0,1.69,-1.32,1.34,1.14,-1.03,1.73,4.36,8.04,0.181,,,,,135,12000000000.0,-3.374125721709091,0.23237567373074786,2.5128225403974227,0.7578711573546417,-0.4966897887332093,1.5774966451661974,-0.7997109460234544,9.705220359728974,1.309736748506761,0.9647343105750972,0.8691202317768634,3.5328932371619453,3.0722871194805936,3.461380884812215,2.386541754270638,2.4707078589285123,2.8063497358940053,1.4895295842407743
239,239,12.0,-14.7,-19.0,3.11,2.11,-0.5710000000000001,1.77,-11.4,-9.98,1.15,,,,,135,12000000000.0,-7.691294532689318,-11.479159487834165,2.7418134931524065,1.6388165900390337,-0.5232784065456151,1.7086995901546966,-5.11539234100086,-2.966376567600882,1.2432090281829462,0.9858727170836488,0.9565281997040064,3.393655827642574,3.568083387018425,3.464369708427605,3.0156348592540487,2.300224812647689,2.063423878735172,1.5277982848471288
240,240,12.1,-4.72,-40.9,-0.0575,2.78,0.162,5.29,0.645,-33.3,-2.98,,,,,135,12100000000.0,-6.558703715294096,-29.394950644204012,1.6684012831072907,2.3823258873384257,-0.2780818143223787,4.149577582213331,-2.770171494705396,-22.49246983591808,-0.5156876005262898,1.0752319216776238,0.8947233191987046,3.3479823240938122,3.251131580507469,3.5986317770281304,2.917912095804139,2.322378626832,2.0928485598556366,1.5998468266473043
241,241,12.1,-11.4,-18.0,-2.83,0.723,-0.189,2.53,-4.97,-11.8,-6.68,,,,,135,12100000000.0,-8.404096972944872,-22.456007302109622,-0.0565354883859861,1.3012338804862027,-0.2462078224402822,3.0457351405318915,-3.6657846558448792,-15.60960715131355,-3.0830215578291815,1.0429243090907951,0.7533709977278591,3.301086159501381,2.4006484961142185,3.47965128714973,2.3214858896583923,2.4690380828106973,2.695010433832334,1.472214584399823
242,242,12.2,-1.25,-11.1,-3.26,-0.478,-1.66,1.08,5.66,-5.73,-7.7,,,,,135,12200000000.0,-5.6771158954967245,-15.540778699971488,-1.2849216330982598,0.1420188561180289,-0.7520708590000121,1.70596493418249,0.13100955586944396,-9.249993186949316,-5.005916538969212,0.9614650701936522,0.7876812929843203,3.510895254164831,2.0501480238535987,3.515152437334975,2.1793031686502706,2.718914552445424,2.836426505843386,1.5176742980488727
243,243,12.2,6.68,-4.51,-5.04,-0.331,-0.458,-0.917,13.4,0.8809999999999999,-9.68,,,,,135,12200000000.0,-0.9668609355524403,-8.823597623893871,-2.7248271442598795,-0.1661646691999351,-0.6468506000398743,-0.08174810488781947,5.5331957899187785,-2.7285592098686022,-6.952595021301539,0.9194971465824614,0.9122216204816793,3.4977139495421583,2.403044612726569,3.172984795798146,2.356826794133941,2.9151590458225916,2.182667705714906,1.5460379638250126
244,244,12.3,5.38,3.51,-1.93,-1.55,3.11,-3.85,11.7,9.79,-6.07,,,,,135,12300000000.0,1.4524199394452744,-1.31306618567781,-2.4200462686646094,-1.067767703157645,0.6973723164561229,-2.650045073000125,8.043878488758066,5.329777792460121,-6.58500888285151,0.7803039823273756,0.8507588159931533,3.513704202650527,2.623634879028794,3.2751540515771156,2.51740314768533,3.238788953710653,1.834379224180233,1.453932342577554
245,245,12.3,-9.26,8.93,9.53,0.208,-2.86,-1.39,-3.92,16.3,5.9,,,,,135,12300000000.0,-2.6309140163533487,4.92443849938997,2.162264828450724,-0.2365733770011672,-0.5754761121586681,-1.7912463118265585,3.1730405587610493,12.391432426841348,-1.3852094044288537,0.6646494674514797,0.885127304359232,3.3822751443437418,3.0095652468622767,3.3993254156719033,2.620024212764247,3.0697312559803662,2.5890039943646364,1.2264740999675814
246,246,12.4,-12.1,-9.2,3.2,-0.111,3.77,2.88,-6.97,-1.96,-0.913,,,,,135,12400000000.0,-6.240317052969638,-3.676623516838848,2.5601901260025346,-0.15475920606613175,0.9793604603836212,1.392497416419218,-0.9564819358493102,3.1532543200287275,-1.1885420024586228,0.7846482103922435,0.7173992718721113,3.499533875547968,2.919885583586888,3.5535848679962148,2.461914151839825,2.5671385939950317,2.67663422490079,1.394731083059701
247,247,12.4,6.56,-1.6,13.0,1.28,0.384,1.38,13.2,4.83,9.66,,,,,135,12400000000.0,-1.36112372294446,-2.412065800821217,6.563392844288671,0.7800220089927916,0.7663370326553546,1.3839796499187196,4.807027603677184,4.232594278905704,3.3296960181159885,0.8187516208053316,0.8523719209517708,3.4176553504518283,2.90748756579612,3.71894703214676,2.541678545438628,2.4173610710925213,2.3995839564180166,1.582664306278509
248,248,12.5,1.43,-25.8,-4.66,-0.748,-1.13,0.513,8.02,-19.5,-8.34,,,,,135,12500000000.0,-0.2972100713634651,-16.65412353937635,2.25972096960102,-0.2155222723866768,0.08781663542737916,0.7903530868176385,6.1151209582395145,-11.044342948101034,-1.5305391781612403,0.9229935317977136,0.8581986409178926,3.352404694416719,3.5306102821000507,3.5910494575246212,3.216163798405517,2.3251402532070045,1.6754972682537648,1.7848867689696175
249,249,12.5,3.3,-13.2,-4.34,-0.35200000000000004,1.1,-4.01,9.63,-6.5,-7.69,,,,,135,12500000000.0,1.0739655924944354,-14.550738486803384,-0.27097852159198377,-0.3044408980825424,0.4499817277473932,-2.4813849821229588,7.546129023081677,-8.119098402971966,-4.095852629050393,1.0566864367977613,0.8885586951799034,3.2637079657887407,3.034920144546771,3.67304748455899,2.7170903923302006,2.3348198582716884,2.0989750363336945,1.715053993521179
250,250,12.6,-5.38,-24.6,-8.65,-1.78,-0.337,-2.16,-0.384,-16.7,-11.7,,,,,135,12600000000.0,-1.3861411720448868,-20.6702260646128,-3.4839604088757667,-1.2658042579483784,0.1683950925228233,-2.2623412720395617,4.317546164970172,-13.642721533411365,-7.2628539992945305,1.04778780597608,0.712206175203504,3.2228817726613572,2.4223115136350684,3.5002763263766616,2.2557171951731037,2.528105585476634,2.696533999945388,1.4314477855917447
251,251,12.6,-12.3,-17.5,0.441,-0.935,0.998,-2.58,-8.11,-8.85,-1.73,,,,,135,12600000000.0,-5.546259093070687,-18.739720200143058,-1.978912670857788,-1.0502770748351251,0.4652325536687865,-2.478845315645396,-0.7420639970452969,-10.557593151562338,-4.9585119446966415,0.9852801846660096,0.7924710855846304,3.2727872559340763,2.516146599641638,3.414546879643398,2.14825358734858,2.8207570055141518,2.618801005129229,1.4112984634196626
252,252,12.7,-11.3,-9.2,5.65,-1.32,0.299,-2.7,-8.5,0.0935,4.34,,,,,135,12700000000.0,-7.739455964346428,-12.930517391055467,0.9464360368219458,-1.2260082893189188,0.4057535791584089,-2.62957596156884,-3.9005421390805797,-3.7013649780913234,-1.0858356464322307,0.9802074704088983,0.8901189271305742,3.403461193307139,2.7757548157193788,3.3034347363016505,2.3763425303728334,3.0422553628043274,1.700871311189495,1.5217373450884113
253,253,12.7,-5.57,-1.8,1.29,-0.422,0.00611,-1.11,-3.68,7.79,0.421,,,,,135,12700000000.0,-6.9125081444628576,-6.15260037437322,1.0781775201620871,-0.7021769273138377,0.2627587865025207,-1.5938908466733408,-3.8107531392013265,3.695755571691678,-0.4582635524199778,0.7256770454343575,0.818709103388507,3.138490732037631,2.7204904243292454,3.214768481878324,2.552210476121463,3.326379119149341,1.5655199516799967,1.3352635716330126
254,254,12.8,-8.03,1.71,2.55,0.506,-0.348,0.823,-6.34,11.3,1.76,,,,,135,12800000000.0,-7.338470837950823,-1.3646780316155267,1.6425559554350766,0.0849803164759314,0.044225750686881886,0.05336995200925077,-4.840482103779913,8.590693155788067,0.4656064771019156,0.6396668214552502,0.7919195505550736,3.1128692761025674,2.688589893190254,3.2057350775506386,2.534561329435511,2.8841936806765345,2.548196941794839,1.354864174928725
255,255,12.8,1.09,5.7,4.28,0.981,-0.08800000000000001,2.27,3.58,15.1,3.15,,,,,135,12800000000.0,-4.125727054233684,2.9373501911179467,2.653898512039743,0.6687593836787851,-0.003085390337588777,1.5641405918801117,-1.4122624820807914,12.780807254120235,1.5836119635608743,0.7620995697325224,0.6980602844309349,3.2566737852899914,2.298767254251536,3.495582188371124,2.2892238005715733,2.480934830038484,2.5426642351839446,1.4180324453649196
256,256,12.9,1.53,-3.06,-0.213,1.75,0.192,1.42,4.84,6.0,-1.96,,,,,135,12900000000.0,-1.9698909457194045,-0.7147299346511158,1.5545704540523633,1.3732144817726737,0.06671729543558982,1.4658998226852218,1.1332128688816088,8.415925541137812,0.1077562496916713,0.8181875171863262,0.8715452691050155,3.2185599986876166,2.5554165204975963,3.57391067979496,2.7017465110512227,2.3827036814493474,2.0578952160342565,1.578638085627654
257,257,12.9,-32.8,-37.9,3.0,2.24,-1.45,3.78,-28.8,-29.4,0.378,,,,,135,12900000000.0,-13.721635749306708,-23.358662391099763,2.108828391434996,1.9379467668628596,-0.4759729748074506,3.043102385483364,-11.053455868978078,-15.92660979470293,0.22030829258421286,0.9631059984670772,0.863960030629784,3.23205076909218,2.9754181799318866,3.3517265107618965,3.2880092446113958,2.3352781734603165,1.5300474115485287,1.778362292243333
258,258,13.0,-8.91,-21.4,-7.42,2.21,-0.271,3.04,-2.61,-14.7,-10.7,,,,,135,13000000000.0,-11.887548217972114,-22.16593673308717,-1.5450534784930192,2.115196225509054,-0.4026324537407562,3.0409878916472213,-7.6158828951114055,-15.137027183997429,-4.327819183437148,1.0870176537726968,0.8184842491687556,3.204359444287396,2.4126078517635445,3.468929855302496,2.4722368913056534,2.497993105609658,2.1044117638297384,1.5818465504086132
259,259,13.0,-6.7,-17.2,-1.35,0.3670000000000001,-0.325,3.15,0.454,-11.6,-5.08,,,,,135,13000000000.0,-9.910171282435966,-19.141935189486748,-1.4702591547175,0.9762030029412484,-0.37485510685361145,3.1152864595722263,-4.330402232311721,-12.860203344284125,-4.641090005088394,0.9461405354767372,0.5745092330234005,3.4225730449757723,1.8393879580325796,3.5668617741549435,2.1764193143421484,2.6802364234838634,2.5056737962281117,1.3586685129250717
260,260,13.1,-0.278,-9.28,-1.53,-0.8640000000000001,-1.6,0.621,7.15,-4.45,-5.74,,,,,135,13100000000.0,-6.2386039373078495,-13.136519851337788,-1.4931671006074658,-0.2227349422018665,-0.8132190703854372,1.4152757615142924,0.34359866173217224,-7.446460962776582,-5.098767723879295,0.9175952761877922,0.8161223479334776,3.5146249188498317,2.190712963929173,3.5204554650312168,2.1970042575373836,2.8793002535175045,2.330180983833446,1.193960732593965
261,261,13.1,6.27,-3.07,-3.88,-0.813,-0.412,-2.12,13.3,2.14,-8.24,,,,,135,13100000000.0,-1.4706050802448694,-7.006523018112787,-2.4084113937886893,-0.6073072930509734,-0.6696605580079387,-0.9942335304164768,5.618521142814988,-1.2755484093911331,-6.4070388504225555,0.9009626604345811,0.8777951137348026,3.067978944486868,2.5220372750892124,3.41671303992569,2.4255071068296976,3.294404661800333,1.5970902761527173,1.1484263948397266
262,262,13.2,2.78,2.75,0.474,-1.16,1.75,-4.12,9.06,9.23,-3.35,,,,,135,13200000000.0,0.14963009232112226,-1.0652984746822636,-1.303134832837852,-0.9674002878004052,0.1961080363045371,-3.124636879121569,7.019646012613563,5.4869906837316496,-5.133832756332572,0.6280401909336669,0.7961910382338487,2.6740879902360906,2.7491216669380374,3.4365961006656907,2.6127107779698506,3.6234463624406263,1.5951905356156642,1.015310087938963
263,263,13.2,-13.5,5.67,0.7090000000000001,1.12,-2.93,-0.6579999999999999,-8.36,13.1,-3.16,,,,,135,13200000000.0,-5.053302313640458,3.0361545720745737,-0.5315706285818368,0.3925928124087523,-0.9224315907102544,-1.4434710827951147,0.7581513753541476,10.387570447331806,-4.311764137201034,0.6807520431716725,0.7180833861285547,3.1027677898259998,2.3244945584295422,3.444919979690519,2.5611893988090815,2.625937569377743,2.702627996695208,0.915690776399293
264,264,13.3,-8.12,-7.46,4.01,0.267,3.86,3.28,-2.56,-0.467,-0.048,,,,,135,13300000000.0,-6.222258546761777,-3.3554678600274777,1.2099197837264215,0.3107659712118398,0.7887501579689213,1.7758669636302902,-0.5927631470522329,3.4003616526340235,-2.5359769853259997,0.8458073712068941,0.7412053115723267,3.315115644272756,1.989378552666612,3.6469571324661985,2.3012404675756604,2.6317941081593603,2.5951777586146423,0.8689056524149239
265,265,13.3,4.4,-5.8,1.88,0.377,-0.6759999999999999,0.684,11.3,0.226,-1.61,,,,,135,13300000000.0,-2.1732921396258766,-4.844063280080865,1.4668657393082989,0.3539190875469493,0.2646540485947618,1.0316920193565255,4.249121735278942,1.3569894366302773,-2.150322911760996,0.7333661143886674,0.8804714381694113,3.1108815664697165,2.646452858079262,3.7183649876724423,2.8497645009194423,2.305150467472603,1.6636700106344113,1.066586244916065
266,266,13.4,2.25,-24.0,-4.8,-0.764,-0.715,-0.248,9.23,-18.1,-8.37,,,,,135,13400000000.0,-0.4872325278535656,-16.50905102023175,-0.9361985912758556,-0.37443294398386384,-0.08587184771401496,0.15950266002446056,6.2769798763401505,-11.167693224878091,-4.740715368885711,0.9586154515753715,0.8268546346976617,2.683171994087981,3.1266931020953774,3.6810531146725003,3.2349628522336062,2.2662611118227156,1.372955688526325,1.2292408512140822
267,267,13.4,-2.21,-17.2,-1.68,-0.273,-0.261,-4.1,4.21,-10.4,-4.77,,,,,135,13400000000.0,-1.143912807584068,-16.929804147347937,-1.221413326719412,-0.3083468646395827,-0.14853371990359165,-2.7436121273727783,5.435453130505391,-10.67352023662732,-4.752911924825816,1.1067770525026333,0.7319784781539095,2.987342283348009,2.4705933606768262,3.671710713761306,2.4341065137400313,2.480898849441881,2.234075466413374,1.2554694408509752
268,268,13.5,-4.61,-22.6,-5.56,-1.6,0.695,-1.84,0.626,-14.9,-8.69,,,,,135,13500000000.0,-2.465107444215353,-20.382664246144486,-2.885068311298298,-1.1498909568925906,0.1532875394158945,-2.1277445249179587,3.4773868841838067,-13.394152437631972,-6.392643732274829,0.9221934678199463,0.49302726080498294,3.5765529143395685,1.9151121720777966,3.5250026468913553,2.197483299885706,2.620915833080796,2.453326764754139,0.9874714191649748
269,269,13.5,-13.6,-17.6,1.31,-1.89,0.6679999999999999,-4.35,-9.49,-9.04,-1.03,,,,,135,13500000000.0,-6.709478530340648,-18.688163980196176,-1.2764462347652252,-1.6320903587787323,0.3374546396888294,-3.6423491897333236,-1.80200795672391,-10.59133563355361,-4.159191415222947,0.8972075616257059,0.8338618888591653,3.453913298268895,2.3053876059309415,3.460736889089888,2.257065407499767,2.5313012304427156,1.9666591932428903,0.9649348899078818
270,270,13.6,-10.4,-5.82,5.55,-0.976,1.01,-2.0,-7.71,3.52,4.14,,,,,135,13600000000.0,-8.11622227612381,-10.852109014075706,1.3411923253834488,-1.204631212914865,0.5780952704683541,-2.522986506788538,-4.207320896323475,-1.5077105634006165,-0.7027156871522959,0.9261128784419053,0.8439237322172156,2.696249582944952,2.333141509612879,3.393445580045447,2.3412625197935406,3.2089765027314976,1.3932167284734593,0.9733896215566975
271,271,13.6,-5.76,0.0215,2.24,-0.716,-0.152,-0.93,-3.85,9.59,1.28,,,,,135,13600000000.0,-7.218083354972158,-4.230636114919042,1.6858450928041258,-0.8862758631568324,0.3168629460813126,-1.4372675541601458,-4.0618452773552,5.636010345456286,0.1230525493891096,0.5165557071328671,0.7023195158869269,2.552179904869511,2.399822366154247,3.419894163279799,2.56388870612918,3.487678201507542,1.5920190159521206,0.8931437688728517
272,272,13.7,-7.07,1.53,0.419,0.312,-0.621,0.8859999999999999,-5.32,11.1,-0.411,,,,,135,13700000000.0,-7.161637371600122,-0.7227027622060902,1.2000663495775041,-0.10556939272240996,-0.018709857625061832,0.14618314791564924,-4.574076202107258,9.153242039901132,-0.09937149868592393,0.7056653143643672,0.5779439408139102,3.306270632137412,2.040504488405816,3.4945666710388075,2.194785303828543,2.354883926557163,2.6207559973885433,0.9068988462970671
273,273,13.7,1.3,4.91,3.17,0.885,-0.436,1.92,3.75,14.3,2.03,,,,,135,13700000000.0,-3.9362512811106782,2.7073256329487663,1.9554483100552176,0.5398111465095307,-0.1680186892735644,1.355149155251994,-1.185106155566729,12.466268010380814,0.7874764546302624,0.875725921837165,0.7420664125051568,3.600445476410944,2.0562525216116354,3.6805713687332746,2.189382569985423,2.5939342677487467,2.1900218309732042,0.956209383097925
274,274,13.8,0.158,-3.95,0.828,1.42,-0.299,1.81,3.41,5.15,-0.8690000000000001,,,,,135,13800000000.0,-2.375614651224355,-1.346645915517353,1.5231220361339752,1.1132760030226874,-0.21488456083509846,1.6651581357106842,0.6856933223170779,7.7567042618879745,0.09758143640701368,0.7818519277140848,0.8620084575201574,2.9491215605409193,3.1223612456776517,3.6739701985639437,3.181748694543731,2.2402077331299024,1.4597653105190314,1.1972906188635541
275,275,13.8,-27.7,-48.9,-3.01,2.97,0.742,6.44,-23.4,-40.5,-5.73,,,,,135,13800000000.0,-12.028701824322967,-30.30421235084042,-0.21512862534557156,2.3229777898726707,0.12749428415434574,4.9195086095988065,-9.12028273374553,-23.306677731978212,-2.3295097307309245,1.0371390772675544,0.8231255487162176,2.6464891665240056,2.7991340904335487,3.5246987859818217,2.876774173354169,2.2460753646603013,1.4911574015691476,1.3663788046698375
276,276,13.9,-9.79,-21.2,-7.47,1.63,-0.226,2.82,-3.19,-14.8,-10.9,,,,,135,13900000000.0,-11.175358957977886,-24.760212174322163,-2.9970490164692176,1.8714855568471631,0.0010119785800835057,3.488563424785024,-6.705894653879811,-17.83083395018518,-5.898976835332329,0.9985486869042851,0.6518622166651281,3.1328852429579968,1.938244156930965,3.571146606804326,2.252907400194457,2.307962004937544,2.491833604961951,1.3270262452774921
277,277,13.9,-5.59,-14.0,-2.25,-0.0541,-2.39,3.03,1.83,-8.76,-6.0,,,,,135,13900000000.0,-9.04634563447142,-18.20779216322597,-2.7105889477977327,0.6169187736392371,-0.854506025237177,3.176024032613324,-3.230687225992525,-11.991836505218256,-5.9410513103979055,0.8434949250678755,0.5597086153901505,3.565682755369968,1.8658894972326945,3.520811906653345,2.051302597301167,2.4514540735961883,2.4938758171051014,0.9829478660188165
278,278,14.0,1.98,-8.13,-2.25,-0.88,-1.61,-0.000535,9.34,-3.46,-6.74,,,,,135,14000000000.0,-4.84335033480856,-12.0709311777422,-2.5339735735629128,-0.35836095803728185,-1.124826160333055,1.0110023286387717,1.8871999672613533,-6.4997976405760705,-6.273800113109012,0.8401533504662043,0.8296589524413276,3.249364921305434,2.2646882414565366,3.261295310863424,2.2618443234292296,2.453771368889944,1.753787176916459,1.0446516418696656
279,279,14.0,10.5,-2.17,-4.94,-0.525,-0.173,-2.96,17.3,3.08,-9.73,,,,,135,14000000000.0,1.0051901848284626,-6.0417694821735966,-3.456577708685753,-0.4669304143494241,-0.7842572320908736,-1.6954817071874568,8.162192385695509,-0.3331744590956269,-7.713249938115437,0.7502055632784382,0.871880763761029,2.503283089525091,2.278542335639561,3.2921271885701624,2.4609907445159016,3.344067323506018,1.419916716055199,0.9605300344039338
280,280,14.1,3.33,5.4,8.41,-0.408,1.55,-4.4,9.24,12.0,4.28,,,,,135,14100000000.0,1.8913554395855168,0.925684200676682,1.093726952287401,-0.4285357817679655,0.05095353936203373,-3.5387784786604017,8.600998669594361,7.6058283236214015,-2.7182598686198745,0.5420930146718022,0.6972854869437026,2.484655662592003,2.301977028132084,3.2308280231523314,2.640437470319717,3.2662061848666046,1.904197159950855,0.8392296295295615
281,281,14.1,-19.1,0.69,-4.14,0.172,-2.4,0.899,-14.5,8.04,-8.72,,,,,135,14100000000.0,-6.110077911189358,0.7821645503745659,-0.9131744837113178,-0.0372718107487115,-0.8260118994645393,-0.5141576227764024,-0.8040801206032828,7.885309478739227,-5.2178853512862835,0.7582104039524571,0.5141471468636473,3.123496760330003,2.036960948404723,3.465845790009182,2.2682173154690686,2.313656232740703,2.4530530306240133,0.8231549762224745
282,282,14.2,-5.32,-6.63,1.43,0.551,3.62,3.4,0.546,0.0106,-2.77,,,,,135,14200000000.0,-5.8089180228689,-3.731465412348406,-0.014671314989933015,0.3460018743307612,0.7647969272849411,2.1535832646300954,-0.2544237994701368,2.8162706295267035,-4.198381633328126,0.7934562512979922,0.7580507666411002,3.1968981971372914,2.033206526336459,3.669247877436475,2.336101655449373,2.5536385784788003,1.9061951506233603,0.9217804263260412
283,283,14.2,2.21,-7.74,-5.18,-0.231,-1.4,0.0563,9.31,-2.13,-8.96,,,,,135,14200000000.0,-2.752286571450917,-6.17245824056131,-1.995345043252064,-0.02992917211090706,-0.009779971885132131,0.7241548352877925,3.6395274815965264,-0.3676993476003592,-6.1815168430039495,0.8390025367281269,0.9232617683224386,2.6669265747849633,3.5418285659023288,3.6275125448860908,3.5202190454028313,2.2262883572423156,1.4808296376971408,1.1694262318307858
284,284,14.3,4.15,-26.6,-5.93,-1.0,1.14,-1.87,10.8,-20.6,-9.92,,,,,135,14300000000.0,-0.12128992677049988,-18.61178877913693,-3.5041101377589845,-0.6619543937897925,0.4016179716604037,-1.043922343360782,6.5547611893559035,-13.391458538016927,-7.738533197615037,1.0682779944746406,0.7884252453832807,2.6548732192059123,2.5672998678544,3.597979792446618,2.6720866407851833,2.155121121665024,1.6798441492063583,1.2877611795147839
285,285,14.3,-8.88,-21.9,-4.71,-0.856,-2.27,-2.82,-3.06,-14.9,-8.38,,,,,135,14300000000.0,-3.4599135203500166,-20.614141349484978,-3.9665152759225353,-0.7883799265166586,-0.5543024411000547,-2.2544292127624432,2.6403163079887215,-14.362523358007856,-8.005693545305268,0.9419685743331719,0.4342465198000827,3.070083113311397,1.9811314489194114,3.587480513892802,2.2155348117367524,2.2859353727863945,2.486946375954713,1.040961389210699
286,286,14.4,-9.46,-21.0,-1.37,-1.87,0.807,-2.8,-4.58,-13.1,-4.67,,,,,135,14400000000.0,-5.7470117325998356,-20.849109573357246,-2.9708671638390776,-1.4930822534765709,-0.06722053167089148,-2.626269458783644,-0.2992814133259261,-13.549823151972225,-6.6164324570191075,0.8697145641816496,0.6266329158659107,3.454305691504087,2.0793452518484155,3.2800235534106945,2.1868124431670806,2.4942161027238954,2.226333300324578,0.8303036637654583
287,287,14.4,-12.7,-14.6,5.98,-1.98,0.613,-3.41,-9.13,-5.75,3.57,,,,,135,14400000000.0,-8.397334615906239,-17.043721031097547,0.461392261392525,-1.8103212631377932,0.1761663146881167,-3.160430417294438,-3.894520145033825,-8.528989471756134,-2.3739520613480094,0.8908590078056233,0.8620868763514848,2.8590299925609286,2.3350359623367427,3.142980240769536,2.1957878857234765,2.3795279694142737,1.5344845207474629,0.9748561940279002
288,288,14.5,-7.18,-3.96,3.02,-0.5539999999999999,0.615,-1.45,-4.64,5.37,1.36,,,,,135,14500000000.0,-7.933313937521478,-9.076402741743356,1.4425045135780517,-0.9917967911621546,0.3331835582302577,-1.9946661940182784,-4.1980263101580535,0.4179459300456223,-0.8188228588533479,0.6175528734088279,0.8167289793068541,2.316082938395044,2.195146531207438,3.2742108892674415,2.2700126157822185,3.4467036505766653,1.4904815036341692,0.9099010133429678
289,289,14.5,-6.6,2.46,3.62,-0.015,-0.289,-0.322,-4.51,11.9,2.2,,,,,135,14500000000.0,-7.425084575837627,-2.0513222687571524,2.277477132560448,-0.35538943725297206,0.11056266756338247,-0.8546405930187981,-4.32503983576575,7.809072722787862,0.4384668877737383,0.46073559306561873,0.5883010432402165,2.6289283280601388,2.195738692030523,3.163747069070028,2.272277327834738,2.638566950012882,2.103033825941013,0.7814158281894984
290,290,14.6,-4.49,4.34,1.36,0.535,-0.6729999999999999,1.39,-2.25,13.7,-0.29,,,,,135,14600000000.0,-6.306296173409686,1.8406668716546732,1.9256654675881693,0.22472139780886446,-0.16980059579467088,0.6752209712223982,-3.4802316338648263,11.601128587029296,0.13507249644315916,0.7790020473907028,0.46103013884326316,3.1849868991115486,1.9770890502184393,3.44240769889994,2.205566172600262,2.2605312407138776,2.2807412817486097,0.7404158187299873
291,291,14.6,0.812,-0.0383,1.77,1.11,-0.128,1.68,3.82,9.08,-0.245,,,,,135,14600000000.0,-3.59296156552648,0.6964719495269711,1.8659746775384976,0.8015023892094106,-0.15484410213310545,1.3600400692175496,-0.5080980885863347,9.978249778325685,-0.02322140602902334,0.6756644297240062,0.7917055145810534,3.2722350738591444,2.3369935823127794,3.720817103223432,2.4764498528886243,2.3310999405223813,1.682404859634177,0.9470565872070926
292,292,14.7,-6.7,-10.6,2.22,1.65,-0.42,2.15,-2.87,-1.91,-0.393,,,,,135,14700000000.0,-4.777294756651137,-6.182503126174074,2.0017276524353376,1.3543196269488624,-0.2497184169857791,1.8984467490015515,-1.4696960183103032,2.325650026348227,-0.17722806939057814,0.8877537129558095,0.9068955506710903,2.660249651360189,3.7031763290407214,3.6585721052349007,3.7965937519522073,2.28270255870481,1.4735199969834631,1.2483022366257683
293,293,14.7,-6.51,-46.8,3.54,2.63,1.97,5.56,-0.97,-39.5,0.12,,,,,135,14700000000.0,-5.437763164254924,-30.91648513376953,2.5915866599123816,2.185457127138461,0.5445097287981406,4.394022009338172,-1.2662554562163049,-24.59799019697155,-0.05343750192370314,1.0168318779810024,0.7634977378095683,2.6533880864678068,2.2686220601428624,3.457529692364598,2.4887919883125784,2.1067469951682036,1.87246471183773,1.2636577792272998
294,294,14.8,-10.4,-20.2,-3.88,0.248,-0.833,2.79,-3.71,-14.3,-8.04,,,,,135,14800000000.0,-7.329256243508233,-24.390693123125477,0.11002099162921296,0.9231557181791844,0.05162874955423763,3.30078164742275,-2.2611739298677342,-17.969058482184128,-3.379708503088393,0.7932892469740447,0.3302073235263048,3.3097481367210273,2.0215310624229024,3.418821365497279,2.139644646903219,2.1086787572505457,2.3753538001975056,0.905685332009613
295,295,14.8,-3.59,-11.6,-2.07,-0.363,-1.79,2.0,3.66,-6.68,-6.5,,,,,135,14800000000.0,-5.903935718444386,-16.60181408259787,-0.7259200645489151,0.08519334162734382,-0.6073166944435864,2.4142183977274203,0.1495057530592594,-10.702164758724448,-4.6792582372113865,0.8056694027414071,0.7290601842784094,3.6148904148962386,2.1134147188840573,3.3455049161346757,2.2341058147738666,2.333581534682801,2.0773587524450274,0.8005771615092336
296,296,14.9,1.7,-6.1,-1.83,-0.7609999999999999,-0.556,-0.7140000000000001,8.88,-1.36,-6.53,,,,,135,14900000000.0,-3.0054861968932465,-10.206745262605176,-1.1492856261776154,-0.4661226084919473,-0.5889552812196872,0.2821438392464244,3.7039402829501937,-4.688508489729727,-5.450061619138746,0.7867122556503908,0.9130655165191818,2.700677265358267,2.163527553910165,2.9748888863740635,2.0112002609012603,2.1855922370137444,1.535338613968949,0.9275423238308124
297,297,14.9,9.41,-1.41,-5.43,-1.25,0.6679999999999999,-2.76,16.1,4.06,-10.1,,,,,135,14900000000.0,1.727018218154632,-4.8499763647324565,-2.7907491142224723,-0.9768381850184744,-0.13920939084189402,-1.7912655796608186,8.75073170448524,0.943004550215341,-7.386684107216056,0.44606177998247537,0.8341662480426927,2.3276648274700085,2.1132342987316877,3.0807538559792436,2.353309174257705,3.4705475887113635,1.647582034022846,0.865916500648919
298,298,15.0,1.55,4.24,11.5,-0.523,0.76,-3.97,7.5,11.1,7.87,,,,,135,15000000000.0,1.659542831235861,0.6853551480670497,2.689117510828911,-0.6811513443871369,0.1825329458956532,-3.2762080349228686,8.241522973108415,7.481176732552798,-1.0325278862240097,0.5693322372472002,0.5324252719063307,2.655231140746021,2.1792356437463343,3.088385471276225,2.3145073061851478,2.534429839780954,2.345398379026082,0.741256936288779
299,299,15.0,-15.2,-3.2,-2.56,-0.907,-1.59,1.74,-10.5,4.31,-6.79,,,,,135,15000000000.0,-4.7669361400369095,-1.6806278569527937,0.6763144509545604,-0.8282973525351335,-0.4516896440291857,0.14264839947964258,0.6113117111864241,5.439854651040326,-3.4304196577171173,0.7710970683860421,0.5485188260537368,3.201979776722101,1.9725269648374824,3.2799716396945975,2.2719860617475027,2.204955753497159,2.3116688882954906,0.7221781487493495
300,300,15.1,-4.84,-5.74,7.12,1.04,4.2,3.17,1.35,1.04,3.65,,,,,135,15100000000.0,-4.794786500525794,-4.15257816164412,3.147181196510761,0.3889447192192853,1.2127118464312714,2.2059760501155545,0.912052899101678,2.607618819392978,-0.4815420875582026,0.6502702867323326,0.8666951970640553,3.222851390224957,2.61258050200753,3.7247589470640867,2.4884970868153116,2.2364435814493513,1.6480947676000723,1.0017256139011859
301,301,15.1,-0.615,-12.2,-6.08,-0.753,-2.04,0.727,6.5,-6.22,-9.25,,,,,135,15100000000.0,-3.201545772617595,-9.053047203270827,-0.3910323330835848,-0.355060622267526,0.048872678725728765,1.1979622781647452,3.1870663524628284,-3.074818329184912,-4.133459595925917,0.9767424764423394,0.9592962345391537,2.740069465001724,3.3932288297191557,3.6573133819079513,3.4031296600147267,2.2267221229829905,1.6195045589262895,1.2755660427052573
302,302,15.2,7.43,-21.1,-4.96,-0.529,1.76,-3.18,14.2,-14.9,-8.3,,,,,135,15200000000.0,0.850960614628173,-16.389026810247472,-2.143028217819729,-0.4683864338105469,0.6611239643326352,-1.7858901856580036,7.670747268334164,-10.686820208636982,-5.868754752662363,1.0211970801851185,0.7409390107952077,2.760838672469135,2.3501217250171926,3.461309506603048,2.3528122468847736,2.020357010088437,2.2033572449067127,1.2117170881229584
303,303,15.2,-8.73,-23.6,-7.26,-1.17,-1.24,-2.72,-3.2,-16.1,-10.3,,,,,135,15200000000.0,-2.801086198597973,-20.780141665799924,-4.1051593783783416,-0.9255050583806284,-0.019109229957106733,-2.4225438927432283,3.244954406398427,-14.171345024044411,-7.714295092909614,0.7349162029380026,0.22818899186091926,3.2735887829686754,2.1710518945440325,3.3898064222195097,2.2027103883797468,1.9563011569386501,1.9698951356284333,0.7920188206555459
304,304,15.3,-9.55,-20.0,-1.6,-1.61,1.53,-2.63,-4.81,-11.8,-3.84,,,,,135,15300000000.0,-5.373620624603461,-20.305075209891555,-3.1445421967571625,-1.3714705114369212,0.5351710352015601,-2.563938155525323,-0.034448418951123834,-12.644883747358096,-6.1007153121649855,0.8572653951119873,0.816391643032953,3.2004502514293867,2.360269231136154,3.2783079616726547,2.321648894685726,2.284808487152202,1.95723993754534,0.7524897453107589
305,305,15.3,-18.0,-11.1,5.15,-1.63,1.25,-3.14,-14.5,-2.01,3.77,,,,,135,15300000000.0,-10.186512840574439,-14.699654467973096,0.03604582654351551,-1.5399088868712547,0.7909409885444774,-2.9565600493527966,-5.9237891487309975,-5.7990897451826475,-1.9897258589561484,0.7600604255556103,0.92436519400758,2.5654211962024056,2.059246234695412,3.024368713040501,1.8393593708932152,2.1718663859081992,1.568794865182493,0.9248480333384603
306,306,15.4,-6.02,-2.62,4.23,-0.669,0.34600000000000003,-1.36,-3.58,6.85,3.47,,,,,135,15400000000.0,-8.598331722793576,-7.343761374914697,1.6442407100270413,-0.9724901502419392,0.6317385148306436,-1.868405511033465,-4.969565366276534,2.343271190501701,0.2841595561065047,0.3323710032097437,0.8009659248178063,2.3953849389539936,2.2037203032891903,2.9653583727844155,2.2697481530717107,3.448183928725115,1.7864909711447108,0.8825718002586137
307,307,15.4,-6.94,2.36,4.18,0.104,-0.605,0.194,-4.87,11.9,3.62,,,,,135,15400000000.0,-7.966212939772742,-1.4346660431098224,2.6165915399619197,-0.2711300973079868,0.18922628786284024,-0.4627484272738109,-4.929029404852318,8.495044510130334,1.6734818093343304,0.6030547481825925,0.44626360485923044,2.9778018400747985,2.130064788178927,3.069401405415654,2.2516553211662917,2.3088495020394735,2.274165915778607,0.8368222362916812
308,308,15.5,-2.61,4.62,4.08,0.903,-0.318,1.79,-0.127,14.1,3.21,,,,,135,15500000000.0,-5.924544833392233,2.252316476267084,3.1777435619310763,0.4938448013161518,0.007737781515750525,1.0726391118779646,-2.9739855769503483,12.103017494470372,2.3134162057536947,0.7560668154532758,0.6535268686887357,3.0143556900595208,2.0940398177459842,3.366864939996975,2.32935726416355,2.208166913881292,2.3322685464642214,0.7900193191051081
309,309,15.5,0.536,-1.66,0.532,1.46,0.403,1.81,3.91,7.44,-0.865,,,,,135,15500000000.0,-3.461930248532467,-0.1300845521529732,2.1632185920469866,1.1233189182349927,0.14916489684910414,1.5751961826495005,-0.17131767176305068,9.101380849098561,0.9896584890143494,0.5810132226582793,0.9005400746431579,2.8368952433655124,3.050641683144357,3.521153064063464,2.7323247723222814,2.0643536814839107,1.6079367162976563,1.0939878939600307
310,310,15.6,-27.7,-28.1,5.55,2.25,-1.4,3.43,4.79,6.9,-1.65,,,,,135,15600000000.0,-12.700938315742668,-17.162335702928825,3.4618986892657833,1.857379607404947,-0.4051352879528287,2.839359897059301,1.8485769620032515,7.684327357505231,-0.10971554702866836,0.9491300284553521,0.9672418907620838,2.53708692696469,3.268923306876463,3.519494510202615,3.1293013175851665,2.089561486011521,1.7839297589043817,1.3342011282450177
311,311,15.6,-8.62,-24.1,-4.62,2.45,-1.71,2.98,-2.32,-17.3,-7.67,,,,,135,15600000000.0,-11.145376248380773,-21.387019392570867,0.3628500730419497,2.243486533178257,-0.872023470596742,2.9352148500081583,0.15142980817091933,-8.398364006054187,-3.2584488495503736,0.9526528582723306,0.6609478083027875,2.8267877061306232,2.401469130475475,3.293480382213476,2.3883757591154278,1.91056726861203,2.48916807735444,1.3090086991527705
312,312,15.7,-8.41,-18.9,-2.5,0.8959999999999999,0.0629,3.29,-1.36,-13.3,-6.39,,,,,135,15700000000.0,-10.102712203799165,-19.872551288093923,-0.7349255888493791,1.3655656300057848,-0.5375024256257129,3.177022875454941,-0.4639166004218631,-11.55360221654974,-4.562687987297204,0.6639406166424786,0.21768079752949235,3.0369690806582983,2.1280231487008496,3.3507000449979505,2.2165296150898266,1.9126121703128751,2.1278303740306463,0.8402579796494161
313,313,15.7,-1.36,-10.9,-2.04,-0.688,-1.36,0.778,6.16,-6.31,-6.33,,,,,135,15700000000.0,-6.770186687792399,-14.408725281898375,-1.235363560482027,0.027616637015124068,-0.8317968376330811,1.5419402131900934,2.2328696720072205,-8.17823659750412,-5.298744140815471,0.8117017538446791,0.8958394834142704,3.148910242137099,2.2686623418260443,3.110635128733894,2.222242553865563,2.1410892916715567,2.0047843939312506,0.8852804159969268
314,314,15.8,6.13,-3.66,-5.06,-0.945,-0.428,-1.65,13.4,1.21,-9.54,,,,,135,15800000000.0,-1.8529252307176998,-7.863300254261836,-2.7019414911974327,-0.6060672378366813,-0.6873159861082576,-0.6335647016497781,6.779328399164452,-2.134923335177544,-7.065156951936593,0.7597930794075068,0.9591071354011873,2.675059802599356,1.9739792057060537,3.083200570052887,1.8311556121133725,2.436345467882203,1.7015123423833556,0.995147198305421
315,315,15.8,4.18,4.13,1.34,-1.22,2.31,-4.75,10.7,10.3,-2.49,,,,,135,15800000000.0,0.4466902958715728,-0.5599924698197842,-1.1520367042685211,-1.0060596889332012,0.3851410533204389,-3.439170286950496,8.375546123336102,5.869576463516709,-5.159679853418214,0.2543476859224714,0.7479405206072386,2.437208531639746,2.256670545581035,3.015310960953023,2.2547208044785374,3.3814833796196933,2.041240298654757,0.8806320219915048
316,316,15.9,-15.5,9.68,2.05,1.59,-3.77,-1.47,-10.4,17.0,-1.94,,,,,135,15900000000.0,-5.631829865264478,5.675640479173437,0.0758019252087323,0.6853376547598622,-1.101592530233006,-2.0970588058295143,0.7314832169286971,13.034354981977687,-3.8187365385864656,0.6091155410656527,0.3748657379006551,2.9726585260278697,2.2703009198152366,3.1796483292341455,2.2588109932970313,2.1981513375393695,2.3048044796506972,0.7921966540223842
317,317,15.9,-6.96,-10.3,3.93,-0.168,2.84,3.29,-1.56,-3.37,-0.444,,,,,135,15900000000.0,-6.138098503050458,-4.052709289374082,1.5537154756738332,0.1293669941859098,0.3087321281778925,1.5745553631119216,-0.20144526688760267,2.474687689993079,-2.4132146607875753,0.7506563482645403,0.7374302848236857,3.158286883500687,2.1076680011622004,3.4595787408746013,2.157830996227576,2.393763019302325,2.1169068172344114,0.7579715037438239
318,318,16.0,4.72,-7.97,-0.136,0.551,0.145,0.5329999999999999,11.2,-1.86,-4.21,,,,,135,16000000000.0,-1.999235318120097,-6.438139265196186,0.9057847473774244,0.4040713618493662,0.25014782072224856,0.8646708747724721,4.440409866607818,-0.3155994222802128,-3.1615460143597116,0.5711138808318329,0.9710932650225754,2.772628033218678,3.057529734422165,3.4009866656853545,2.540249040185477,2.184179699874102,1.6891588309081547,1.0524219180828394
319,319,16.0,2.87,-22.1,-4.75,-0.8059999999999999,-0.0189,-0.561,9.57,-16.0,-8.55,,,,,135,16000000000.0,-0.14319222668689655,-15.975413300942114,-1.262957130876064,-0.3843201608272412,0.15388094874437191,-0.1070121105603219,6.5288129346219685,-10.411824059720127,-5.405747942023599,0.9538988660060104,0.9730558454915798,2.499858717284916,2.8420158910460294,3.59608636683907,2.840975715909969,2.1387774667264963,1.9279180916483003,1.2348310601769852
320,320,16.1,-1.58,-18.7,-2.17,0.0559,-0.731,-4.5,4.53,-11.8,-5.56,,,,,135,16100000000.0,-0.6908710939991647,-17.634548001889378,-1.6107677546828332,-0.09750579969198968,-0.16273459386124906,-3.1011054134989013,5.715038974777322,-11.305408611173515,-5.469991345810949,0.922816671530794,0.5582267656181031,2.9192142316235943,2.3936869107011804,3.2718853884125143,2.312422586119352,2.037170758404242,2.4747870596530124,1.1111464528495798
321,321,16.1,-3.29,-21.8,-6.98,-2.03,1.39,-1.61,1.52,-14.0,-10.5,,,,,135,16100000000.0,-1.6816006392221363,-20.171095198766587,-3.669629501720384,-1.35657371735963,0.39284285266680097,-2.084824740284681,4.007118342019194,-13.039947322608194,-7.564906649607937,0.7250050589088246,0.3301857143658596,3.6416322748476126,2.1602079900674473,3.0287941504658815,2.2775666902706124,2.2318541920832775,1.8969166793965728,0.7311385811859762
322,322,16.2,-10.9,-17.5,-0.22,-1.67,0.705,-3.88,-6.97,-8.89,-2.75,,,,,135,16200000000.0,-5.195447275074039,-18.544534555872602,-2.346850028740239,-1.5607786918286042,0.5045344861514086,-3.3083479323886813,-0.4619811285000619,-10.368579887894134,-5.559577768470302,0.7361591838522565,0.9355855997927073,3.0509805462267225,2.2071386347383735,2.9116105342856526,2.2622402737516647,1.7989587424648315,1.8727712775270113,0.8048550333341083
323,323,16.2,-10.5,-7.12,6.66,-1.0,0.955,-2.1,-8.11,2.25,5.13,,,,,135,16200000000.0,-7.217423627911294,-11.587576051851268,1.1068762692083345,-1.1954174554877357,0.6657136560854544,-2.484783918879625,-3.575708715570689,-2.2458584282907275,-1.1075456075731729,0.6712674778428473,0.9513350073006406,2.41662340336433,1.8974905067750594,2.906334974138942,1.9271187875482862,2.470820726077356,1.7534518988066066,0.8778182402039546
324,324,16.3,-6.43,-0.642,2.69,-0.672,-0.0819,-0.957,-4.78,8.96,1.58,,,,,135,16300000000.0,-6.91727536189148,-4.922278912248957,1.7139338237083084,-0.8543979860318982,0.3982131496730225,-1.4435045747107118,-4.06601030606331,4.967478400993502,0.01177264810667511,0.30828648136822234,0.681657433915804,2.452041744390316,2.278969169363808,2.9613047936462733,2.2158560853566143,3.3316221235598404,2.096037513244074,0.8230664118017577
325,325,16.3,-6.4,1.09,0.57,0.435,-0.945,1.15,-4.86,10.7,-0.447,,,,,135,16300000000.0,-6.720101648845992,-1.2611079021053802,1.2752860823689145,-0.014323193519784172,-0.0823963103660294,0.3241293915845167,-4.389266325969574,8.657566752795725,-0.17929856092368512,0.6483488790559792,0.33718971603772396,3.009235952488087,2.1941622325040813,3.1305615451420916,2.25057444299722,1.990601331031817,1.9816747315518581,0.7150185564472873
326,326,16.4,0.129,5.2,2.26,0.764,-0.0226,2.31,2.46,14.6,0.913,,,,,135,16400000000.0,-4.1093779410145554,2.6733769180788443,1.6528800655156608,0.4927736842293125,-0.06100084364556331,1.6776231565296231,-1.6007336425599268,12.482777956174223,0.2756256952635254,0.6962004320915548,0.7421896896307822,3.244806647118729,2.1122630090471737,3.413026350864624,2.227714265025066,2.391499720821922,1.9687810893099904,0.758232515100873
327,327,16.4,-1.12,-3.17,1.01,1.21,-0.629,2.17,2.19,5.88,-0.799,,,,,135,16400000000.0,-2.969894216330194,-0.884941424535,1.4063641523866468,0.9600644554765576,-0.26423424204861323,2.0132085200886203,-0.05741728515857102,8.232495773510045,-0.1719381205423801,0.6151767558861936,1.000766176053728,2.4989152072860783,3.6212373594784144,3.2826164286916732,3.0933375572949444,2.186550410507985,1.7574877033881386,1.0709750986881523
328,328,16.5,-29.2,-62.0,-1.08,2.71,1.9,6.17,-24.7,-53.7,-3.91,,,,,135,16500000000.0,-12.968221675764735,-38.10089277397191,0.4529540783130441,2.100190921260236,0.5101413250773914,4.846319394367279,-10.090119443078805,-31.634147155624326,-1.728779024007276,0.8963389632149408,0.9391168798027596,2.311299432771279,2.934018551609749,3.3776688795897454,2.7815154148903853,1.9833007372286575,1.9964573897634392,1.2057332344432474
329,329,16.5,-7.52,-19.7,-7.65,1.26,-1.14,2.59,-1.11,-13.1,-11.2,,,,,135,16500000000.0,-10.891481938555025,-26.89568872392219,-2.6541684235074863,1.5527856761761514,-0.0802888153471123,3.308497935494041,-6.434055392299642,-19.703508916190152,-5.673385630628653,0.8247808405547578,0.445792755419083,2.8107105758586957,2.269837008239738,3.454353811015134,2.3732055483971797,2.034504066701813,2.3520176382063256,1.0026836793230276
330,330,16.6,-4.88,-14.1,-1.48,0.0327,-1.62,2.82,2.27,-8.61,-5.34,,,,,135,16600000000.0,-8.600040091487827,-19.1037676174857,-2.203927068052987,0.5624121283859573,-0.6312064172812841,2.975556294440285,-2.89038493240811,-12.5624925320087,-5.534536100135377,0.7381550565974442,0.5008532615432358,3.5544355184882854,2.0247997072861743,3.049404254193897,2.253365001346824,2.2867719198696994,2.0373453733915423,0.644111172353948
331,331,16.6,1.59,-6.78,-3.08,-0.648,-0.974,-0.28800000000000003,8.8,-1.84,-7.53,,,,,135,16600000000.0,-4.71582567504421,-11.599222273402198,-2.5398620400013,-0.2262014171178577,-0.7538599429800221,0.7512405772683515,1.8691059772047884,-5.6603037997713885,-6.365613855449003,0.7480535001412093,1.0029177453677889,3.072143137984582,2.0278117448534045,2.954943482415349,2.157439548112711,1.8005323161001479,1.9225907572647805,0.8609912197868635
332,332,16.7,11.0,-0.591,-5.61,-0.961,0.593,-2.55,17.8,4.92,-10.0,,,,,135,16700000000.0,1.2746940780977465,-4.895776782929951,-3.717123437460008,-0.7049409481465005,-0.271945638442835,-1.4987592883765073,8.355029311089941,1.1503565207049204,-7.879275496525269,0.5763938100525275,0.9622309664559983,2.295837430837351,1.8689279778479202,2.842270826764783,2.085409635641871,2.650655551088195,1.841094916839691,0.8588731151851523
333,333,16.7,1.94,5.89,11.5,-0.701,0.0452,-3.85,7.97,12.8,8.01,,,,,135,16700000000.0,1.5282937738583604,1.6722106886829329,2.117966534921837,-0.7023733064592036,-0.1584690873901488,-3.1012753799078627,8.198272755566359,8.649362864997844,-1.2616552950801267,0.4108339576819745,0.5990324013843906,2.522388666009915,2.3293851919048865,2.8688199540597266,2.3257793710146633,3.015431439178781,2.082119573784988,0.8194132395017469
334,334,16.8,-21.2,-2.26,-3.45,-0.397,-3.5,1.76,-16.7,5.22,-7.93,,,,,135,16800000000.0,-7.13522160186387,-0.7223049142128533,-0.017100983341123754,-0.5034150275187799,-1.3540882462376451,0.2119848421741346,-1.9385281477493272,6.441843374851117,-4.038910360452658,0.685726276318058,0.3860546401402046,3.1393796683898882,2.2047735727623516,3.130927568594245,2.2390120322351126,1.920156184977069,1.9770503145209755,0.736234992938677
335,335,16.8,-2.32,-6.31,3.21,1.05,2.48,2.68,3.77,0.369,-0.59,,,,,135,16800000000.0,-5.299767256793288,-4.124925989701958,1.2203487152000292,0.5086733878456761,0.01777079280922189,1.8940900610931737,0.3855772986927653,2.532685946779178,-2.6024963009141344,0.6724211352137002,0.8402602292848166,3.33852138039196,2.0242416594803565,3.339894809719114,2.0753618599718506,2.4013695200342116,1.9623316128687025,0.7989154265781968
336,336,16.9,0.194,-10.8,-7.41,-0.38,-0.365,0.21600000000000005,6.89,-4.68,-11.2,,,,,135,16900000000.0,-3.2056665721870283,-8.189705481204424,-2.0890060759880145,-0.0703193782410626,-0.11918682233814927,0.7503677647150018,3.033714187049437,-2.1102008160277648,-6.1832141311097155,0.7225729414942381,1.0356018514772838,2.7093270416412363,3.4300707073187855,3.205622011225249,3.2077603233097554,2.2254795482782157,1.7913632069965315,1.1031540978165861
337,337,16.9,10.3,-25.3,-4.73,-0.0321,1.93,-3.62,16.8,-19.0,-8.41,,,,,135,16900000000.0,1.942390246177291,-18.60900106620699,-3.1017097803217353,-0.04541850437211399,0.6140240999031834,-2.228308444368303,8.638363466307107,-12.982354061390994,-7.110633504727179,0.9478457787053025,0.8891186449168021,2.4193571362498925,2.5633310065371755,3.2387892814416266,2.559382784046997,1.957102875477066,2.067880030319556,1.1468727908014504
338,338,17.0,-9.46,-22.5,-6.47,-1.1,-1.28,-2.4,-4.22,-14.9,-9.85,,,,,135,17000000000.0,-2.403944820375697,-20.978420819637208,-4.393299175744719,-0.7325045391843302,-0.06366870802823099,-2.3453269373313077,3.4033551764046037,-14.216764023310079,-8.251534442943901,0.8014157468336096,0.33161853831009414,2.9831925788885663,2.1836763508299777,3.3420795374134333,2.2621395257322297,2.1226279970634763,2.1355498948299947,0.9181089085519275
339,339,17.0,-10.0,-20.2,-2.66,-1.72,1.13,-2.56,-5.51,-11.9,-5.35,,,,,135,17000000000.0,-5.299390439357955,-20.504402735800838,-3.728656072844049,-1.37588236033726,0.3634328835052925,-2.4916398851724257,-0.2255273265017093,-12.725436780883694,-7.043093359300491,0.7758753391747121,0.7146324860207274,3.1570268214259536,2.0945703333085084,3.1471031638216505,2.2985159764943495,2.4790742691140344,2.2914253025848543,0.6571144767723962
340,340,17.1,-14.7,-12.0,5.34,-1.75,1.94,-3.12,-11.2,-2.97,3.41,,,,,135,17100000000.0,-8.882691583466752,-15.325655535865359,-0.2512297891266093,-1.6196292882356609,0.9275377705768509,-2.919906139562701,-4.693549677288607,-6.44575268334777,-2.6895530503811225,0.7528256350644694,0.9875428391459988,2.7857043640476467,2.1201040513360287,2.8195491830870227,2.1119851748999054,1.8405643790245352,1.840729710037613,0.8681734154612873
341,341,17.1,-6.55,-3.0,4.09,-0.865,0.349,-1.86,-4.31,6.47,2.9,,,,,135,17100000000.0,-7.993522019290781,-7.819960418085742,1.4134387932641732,-1.1279695831470038,0.7205336002004431,-2.1975144755642626,-4.537395585224824,1.868262104036725,-0.3615967323212477,0.5093798549350047,0.9169168407181666,2.370086348214048,2.016553963804213,2.6867904946705394,2.124502491593424,2.933121471096143,1.830667247141398,0.9092844941632843
342,342,17.2,-7.42,1.35,4.43,-0.513,-0.645,-0.413,-5.75,11.0,3.59,,,,,135,17200000000.0,-7.774908336534133,-2.2359225452979894,2.570155771948205,-0.7273016435419392,0.23193775765297464,-0.981257337626768,-5.031081603973133,7.746464249602668,1.2841778295717423,0.44385182996155753,0.5669925406266005,2.4896112376059056,2.307366104863304,2.742235367687469,2.262519161543092,2.6757643491825074,2.2073989053218397,0.7924127961390245
343,343,17.2,-4.21,5.77,4.14,0.5760000000000001,-0.503,2.03,-2.26,15.3,3.17,,,,,135,17200000000.0,-6.41604536482661,2.6392756495204823,3.1721211546885697,0.12183170922065213,-0.03102724601628765,1.0711010046360985,-3.902894841059215,12.60876008875509,2.069591564716915,0.7288904327841583,0.4076237638578039,2.9975670934532657,2.121813925718871,3.207598420925101,2.235728035098301,2.0828225664926205,2.062732658510841,0.7593346000528666
344,344,17.3,0.721,-2.21,0.615,1.6,-0.0409,1.79,3.63,7.04,-0.8740000000000001,,,,,135,17300000000.0,-3.6955639713977946,-0.3136857364101875,2.191578937654969,1.0848950545643206,-0.03455977450467717,1.5610751651538226,-0.8360373606503324,9.024086711240816,0.8436344207090616,0.6300053230624085,0.8852171008981052,3.0778479619580525,2.2659613635667606,3.4119541480645266,2.253330006264391,2.4854066302221325,1.9335255202436887,0.9534992986540195
345,345,17.3,-21.4,-21.0,3.33,1.96,-0.905,2.27,-17.7,-12.2,1.06,,,,,135,17300000000.0,-10.444097179601592,-12.910595289925473,2.6281127482241327,1.6550476716105031,-0.34600833004533804,2.0442513305820214,-7.701840297659189,-4.638095925173417,0.9337470774779492,0.7939362871480935,1.0216705044777357,2.5107672033330575,3.714337376915124,3.621840725081734,3.8624209307336854,2.3099557569160547,1.782947403070225,1.2197770380340378
346,346,17.4,-6.52,-31.0,-2.56,3.08,0.373,4.17,-0.563,-23.9,-5.69,,,,,135,17400000000.0,-8.948319466869618,-23.92611947205682,0.6387023012838655,2.5834394313877413,-0.0887429770051823,3.4930807477006667,-4.795413774257646,-17.03719945923637,-1.8249339099602933,0.951413453692331,0.8082656284723764,2.4653798300610883,2.5508378342844016,3.220515250273955,2.5893321853454103,2.070822506701078,2.0814080538362107,1.2494257606129229
347,347,17.4,-10.3,-19.2,-4.18,0.662,-0.277,2.9,-3.6,-13.3,-8.29,,,,,135,17400000000.0,-9.463549798618203,-21.04815440010995,-1.2090556269483652,1.3315739517231406,-0.15610243628872011,3.0888595538471417,-4.308726519237934,-14.631522357156589,-4.5175268542863565,0.7279632542257856,0.23991656002702463,3.0790683651371533,2.0863735805149135,3.463689788501245,2.2299782305863634,2.1426278561310403,1.9383050128806936,0.9311560513519618
348,348,17.5,-2.5,-11.4,-2.55,-0.433,-1.65,1.51,4.76,-6.61,-7.08,,,,,135,17500000000.0,-6.809201024130879,-15.1729205815948,-1.7232481297978213,0.1819102262623593,-0.6906276484550177,2.0127689831510374,-0.6165878886643084,-9.467978496949849,-5.584754451245717,0.7431760873973402,0.8171309761374991,3.41055658608545,2.0710682538057443,3.1150297593853753,2.2623839627064615,2.3739105396930746,2.3034987591351865,0.7147163503316305
349,349,17.5,4.35,-4.29,-3.43,-0.8370000000000001,-0.439,-0.897,11.5,0.47,-8.18,,,,,135,17500000000.0,-2.5555642776257073,-8.54577739029807,-2.377711580372111,-0.4819350837356411,-0.6005938188379687,0.02958121002911152,4.316422384663556,-3.070790230938061,-6.6656313702120356,0.7406691503003238,0.9874103127955149,2.6751184781422404,2.0180803390481414,2.765428404931228,1.9462640951097694,1.8816822654289147,1.7646974770542307,0.9099725787541358
