,Unnamed: 0,Time (s),Acceleration x (m/s^2),Acceleration y (m/s^2),Acceleration z (m/s^2),Gyroscope x (rad/s),Gyroscope y (rad/s),Gyroscope z (rad/s),Linear Acceleration x (m/s^2),Linear Acceleration y (m/s^2),Linear Acceleration z (m/s^2),SPM/RPM,Timestamps,Acceleration x (m/s^2)_kalman,Acceleration y (m/s^2)_kalman,Acceleration z (m/s^2)_kalman,Gyroscope x (rad/s)_kalman,Gyroscope y (rad/s)_kalman,Gyroscope z (rad/s)_kalman,Linear Acceleration x (m/s^2)_kalman,Linear Acceleration y (m/s^2)_kalman,Linear Acceleration z (m/s^2)_kalman,Acceleration x (m/s^2)_kalman_max_freq,Acceleration y (m/s^2)_kalman_max_freq,Acceleration z (m/s^2)_kalman_max_freq,Gyroscope x (rad/s)_kalman_max_freq,Gyroscope y (rad/s)_kalman_max_freq,Gyroscope z (rad/s)_kalman_max_freq,Linear Acceleration x (m/s^2)_kalman_max_freq,Linear Acceleration y (m/s^2)_kalman_max_freq,Linear Acceleration z (m/s^2)_kalman_max_freq
0,0,0.247,4.48,1.81,15.0,-1.48,0.7170000000000001,-1.33,0.0381,2.39,-2.63,90.0,247000000.0,2.790415792010349,1.3005972852215977,10.697489248679542,-1.1934876909783014,0.36480486725676253,-1.2251222878885926,1.7883677495607744,0.19319635286408324,0.07465467516216917,,,,,,,,,
1,1,0.267,2.73,1.68,15.9,-0.192,-0.574,-0.902,5.32,-3.1,7.74,90.0,267000000.0,2.776857132049991,1.3973675358992164,12.32149456192985,-0.4339519437184081,-0.198748830513651,-1.0043481416863127,2.7672518535052606,-0.6056199014303107,3.012539136080623,,,,,,,,,
2,2,0.317,2.21,2.45,8.51,-1.15,-0.154,-1.5,7.22,-1.65,-0.815,90.0,317000000.0,2.5934450935045517,1.7818506503024705,10.709767916734233,-0.9971824891025788,-0.16924538159753405,-1.362261643484182,4.479505552279412,-0.9720499540895688,1.127032527711535,,,,,,,,,
3,3,0.3670000000000001,1.86,1.22,8.43,-0.332,-0.584,-0.933,3.19,-3.19,0.0977,90.0,367000000.0,2.324952087477459,1.5533151485305643,9.666731351474365,-0.4731133486131943,-0.4454835235992037,-1.0510147403796652,3.934449486352032,-1.844801733938752,0.5925140925552468,,,,,,,,,
4,4,0.417,1.86,1.22,8.43,-0.634,-0.0586,-0.952,3.64,-3.22,-1.23,90.0,417000000.0,2.1470118420715654,1.4129867418389568,9.088522097506829,-0.599878368281985,-0.1875191546844498,-0.9791994373998916,3.8063267992783785,-2.406959396924448,-0.364983086401172,,,,,,,,,
5,5,0.467,0.304,1.24,2.95,-0.534,0.315,-0.0708,2.39,-1.7,1.7,90.0,467000000.0,1.4301148485939472,1.3393381123416928,6.201245149084358,-0.5479716229686538,0.14758988625754454,-0.3203226216809626,3.184462900174238,-2.114222433688715,0.7227229966322558,,,,,,,,,
6,6,0.517,-0.792,1.26,10.5,-0.007640000000000002,0.8059999999999999,0.0453,7.07,-1.57,-0.433,90.0,517000000.0,0.5605683204160808,1.3054364719590017,8.226580410467726,-0.12223473732422102,0.5866621591134082,-0.05513015012161465,4.89528686659601,-1.8878850212635252,0.11360562779661708,,,,,,,,,
7,7,0.5670000000000001,4.39,2.17,9.41,0.0889,-0.55,-1.08,6.82,-0.746,-0.823,90.0,567000000.0,2.0623879814527006,1.6753110646906468,8.784403780464235,0.04412207435994242,-0.17134201118441705,-0.7984862782683673,5.743494607777513,-1.4122794649358483,-0.3800912490802164,,,,,,,,,
8,8,0.617,4.39,2.17,9.41,-0.703,-0.7290000000000001,0.16399999999999998,0.6779999999999999,0.647,0.623,90.0,617000000.0,2.9759687304845865,1.887029885876244,9.079326978895589,-0.5445486930986638,-0.5432265893921265,-0.100378070803966,3.510552686358849,-0.5541377890550561,0.14866640852049096,,,,,,,,,
9,9,0.667,4.39,2.17,9.41,-1.32,0.199,0.418,2.65,-0.0184,2.31,90.0,667000000.0,3.5311380901190668,2.0081519830462056,9.23522097468698,-1.1555406005443931,-0.048258980357016416,0.27561065896848996,3.1311762916679364,-0.33084715289682065,1.2879735716039258,,,,,,,,,
10,10,0.7170000000000001,-0.29,2.19,11.4,-1.6,1.98,0.915,3.35,-1.51,0.461,90.0,717000000.0,2.0307374285084494,2.0859931883779064,10.255804991912044,-1.5057380791449082,1.3043232669144729,0.7393709951513625,3.227647726999036,-0.8223360101455659,0.8520490502545599,,,,,,,,,
11,11,0.767,-0.836,-0.304,12.8,0.601,2.97,0.317,4.16,-2.05,6.06,90.0,767000000.0,0.9050439789641718,1.0629276758924924,11.455268217999222,0.1541983032482963,2.4151108037717304,0.4330178941714199,3.6386915878438617,-1.334055190686584,3.597329313516412,,,,,,,,,
12,12,0.8170000000000001,-0.836,-0.304,12.8,2.81,-0.713,0.836,4.22,-4.67,3.79,90.0,817000000.0,0.2213708735642601,0.477795124157014,12.089243880915713,2.246751614249919,0.32907191903594324,0.7253079126796547,3.8949722247252634,-2.7245647976931866,3.6988922847283527,,,,,,,,,
13,13,0.867,-1.97,-0.342,16.8,-0.5589999999999999,-0.431,0.831,2.79,-1.83,-1.21,90.0,867000000.0,-0.6391413558760616,0.1268698111624207,14.310136204654706,0.03605004121642885,-0.1777961767817563,0.8019682187666897,3.407824053458155,-2.351685813259254,1.1112552883070674,,,,,,,,,
14,14,0.917,-1.24,1.11,7.24,-1.1,3.95,-0.276,4.19,-4.45,-2.21,90.0,917000000.0,-0.8750883042611474,0.5477132950572103,10.97691010308174,-0.8590639950565953,2.5749015292771484,0.020098939022497042,3.7526614040653317,-3.2263209903198797,-0.6394865538853372,,,,,,,,,
15,15,0.967,-1.44,-2.02,5.73,2.13,0.997,0.117,4.44,-3.64,0.236,90.0,967000000.0,-1.0969196849941514,-0.5514346778113222,8.503246671915125,1.496072738810743,1.5226485251103663,0.09038297977120956,4.055687907050744,-3.3987539066446586,-0.17798907920961615,,,,,,,,,
16,16,1.02,-1.44,-2.02,5.73,-0.509,2.0,0.155,4.35,-3.35,-2.64,90.0,1020000000.0,-1.2316416366089673,-1.1800759960180192,7.1957954760195815,-0.08375970911361262,1.8409792368166444,0.13725084047624467,4.185441031280426,-3.3784318859958726,-1.475795269709049,,,,,,,,,
17,17,1.07,-1.44,-2.02,5.73,-1.42,3.01,-0.447,5.48,-6.89,-1.49,90.0,1070000000.0,-1.3134605286623922,-1.5396180121541494,6.504744060249643,-1.1366071483067608,2.620562474919712,-0.2865165548764365,4.7561723499591375,-4.842150888651076,-1.4832830506698846,,,,,,,,,
18,18,1.12,-1.44,-2.02,5.73,-0.184,-0.35600000000000004,0.395,11.7,5.81,4.35,90.0,1120000000.0,-1.3631505022621149,-1.7452526953129075,6.139489846791574,-0.3860310465928513,0.6355864082347562,0.2077993817389716,7.8174927298036945,-0.4020387106783172,1.59163036429599,,,,,,,,,
19,19,1.27,2.95,5.79,9.11,-1.25,1.21,0.489,11.0,5.1,3.66,90.0,1270000000.0,0.3305521880568065,1.480324857929137,7.5399410495489825,-1.066767539538851,1.0186448237681307,0.4117591243984969,9.22056249641558,1.8913637329113144,2.681935403945726,,,,,,,,,
20,20,1.32,1.86,5.02,7.17,0.19,0.16399999999999998,0.0777,10.5,5.76,1.01,90.0,1320000000.0,0.9311409876734168,2.9955357139771737,7.365531835603466,-0.07653806159616637,0.4487090261944995,0.16946017084322065,9.784627218840562,3.5039188282620533,1.80060379852218,,,,,,,,,
21,21,1.37,1.19,5.62,4.53,-0.402,1.24,0.35700000000000004,10.0,5.51,4.26,90.0,1370000000.0,1.0327906520008034,4.118976839694153,6.028716295477469,-0.3329753149017653,0.9763961396622772,0.3054860984302916,9.879578467097195,4.340109250638547,3.0970317507403005,,,,,,,,,
22,22,1.42,0.539,5.62,7.57,-1.06,2.52,0.982,10.6,2.59,4.65,90.0,1420000000.0,0.8388872407129524,4.761512195573281,6.7553568374799875,-0.905810939972726,2.0057770785099014,0.796173510101437,10.19719037550297,3.6106150910199055,3.9156519398369154,,,,,,,,,
23,23,1.47,1.23,3.22,6.85,-0.715,0.622,1.42,10.1,3.54,7.38,90.0,1470000000.0,0.9924707436676172,4.101644866060567,6.799976450177714,-0.7554675885900797,1.0829795758404457,1.248645790290405,10.154342290419445,3.5811807446982487,5.7418226841425755,,,,,,,,,
24,24,1.52,0.737,4.68,9.03,-0.838,1.3,1.33,10.7,1.63,7.95,90.0,1520000000.0,0.8921516141297424,4.349218354386174,7.851324194696176,-0.8204963419398412,1.2277036513537574,1.3076534587954656,10.39490594130332,2.7678744377571944,6.905824759252923,,,,,,,,,
25,25,1.57,1.24,3.28,9.59,-0.923,1.52,0.669,9.8,1.01,11.0,90.0,1570000000.0,1.0287459112904662,3.891523440144908,8.671025522876125,-0.9012607785497576,1.4226268966281983,0.8444269079296574,10.132630256746808,2.03514356431384,9.063997861345218,,,,,,,,,
26,26,1.62,0.175,2.7,11.0,-0.289,1.38,-0.156,7.97,4.58,10.3,90.0,1620000000.0,0.6934940468145367,3.3814740380750834,9.769023952963442,-0.4188496335300221,1.394200354398407,0.11879969568378425,9.179192866846543,3.095910347675029,9.715534941356822,,,,,,,,,
27,27,1.67,-1.82,6.75,10.7,1.06,0.206,0.691,6.63,1.66,9.73,90.0,1670000000.0,-0.29351340944045196,4.823421937384032,10.207933884656137,0.7463622299305797,0.6018268428745299,0.533826616659395,8.055332030798121,2.49738303571706,9.723159703540905,,,,,,,,,
28,28,1.72,-3.02,4.06,10.4,0.375,2.13,2.19,5.76,0.78,14.7,90.0,1720000000.0,-1.3641594778858783,4.496627739016855,10.298483556341592,0.4537593290756274,1.6209176192478785,1.7350783055914467,7.0433906954574095,1.7815300948532076,12.34661420121118,,,,,,,,,
29,29,1.77,-3.26,4.26,13.2,0.166,0.614,0.767,5.54,1.21,11.9,90.0,1770000000.0,-2.108624612033057,4.395335795592748,11.666407645624542,0.2270286346266113,0.9494358870406878,1.0329141193747022,6.380591868188787,1.5433004998469635,12.111189110035006,,,,,,,,,
30,30,1.82,-3.45,4.7,10.3,1.03,0.0935,0.8220000000000001,6.54,-0.0569,8.23,90.0,1820000000.0,-2.6353605041182195,4.525751781538999,11.022212848702047,0.8597040213620898,0.37863911903026537,0.8799344230237178,6.4508700035904045,0.8762925058874858,10.065287692338023,,,,,,,,,
31,31,1.87,-2.04,3.88,6.2,0.256,0.486,1.07,6.99,-3.55,4.56,90.0,1870000000.0,-2.401572290909832,4.249328126096741,8.748773444854628,0.3840349034135352,0.4502347208073126,1.0177923627582277,6.688555769290379,-0.9687090777109582,7.163271231946527,,,,,,,,,
32,32,1.92,-2.1,0.194,2.54,-0.73,1.57,0.495,8.03,-6.78,8.79,90.0,1920000000.0,-2.283149815223916,2.513384294794959,5.8216380880419685,-0.4937330107719203,1.196971064397562,0.6386018820901314,7.279957236720326,-3.3910165602631466,8.020772922236741,,,,,,,,,
33,33,1.97,0.455,-2.01,6.4,-1.34,2.49,1.36,7.33,-5.61,10.0,90.0,1970000000.0,-1.2079237792018094,0.5770820244188941,6.0943077039193145,-1.1605218378394628,2.059251472053452,1.1618446195307848,7.3020195213321175,-4.315950519165834,9.064087971297017,,,,,,,,,
34,34,2.02,-0.611,0.11,7.41,-1.2,1.94,0.527,4.34,-4.93,12.6,90.0,2020000000.0,-0.9735217093303438,0.3771405804792816,6.714592692966225,-1.1916274209870767,1.979726447511433,0.7013806725098729,5.996156102017441,-4.571903319060825,10.927982554763016,,,,,,,,,
35,35,2.07,-2.73,0.804,8.96,-1.41,2.55,-0.017,3.27,-4.26,12.6,90.0,2070000000.0,-1.6632616172049326,0.5598641453600468,7.773193276240834,-1.3636870306345832,2.3600239435938195,0.1803265509282068,4.794277548676742,-4.441893451718482,11.80935760288108,,,,,,,,,
36,36,2.12,-3.69,1.75,9.18,-1.89,-0.524,0.0893,3.22,-4.29,13.3,90.0,2120000000.0,-2.4591281970243113,1.069319591121218,8.43643451154795,-1.7783783616215136,0.4367589295636079,0.1143033939627098,4.100226913155119,-4.378580028128351,12.595123855854721,,,,,,,,,
37,37,2.17,-3.88,1.86,10.5,-1.26,-0.057999999999999996,-0.6579999999999999,1.22,-7.78,9.54,90.0,2170000000.0,-3.01708103935906,1.407782167370251,9.40930548499925,-1.3699388303053508,0.10681973397159232,-0.44586181849628814,2.8304232894710384,-5.796386393374728,10.984668556830735,,,,,,,,,
38,38,2.22,-6.09,-1.7,7.11,-1.22,0.0208,-0.4920000000000001,0.379,-7.29,15.3,90.0,2220000000.0,-4.223765422711601,0.07744952717100229,8.325294607671175,-1.25179938371998,0.04945587409398863,-0.4793266618653815,1.7496660121316132,-6.4189659958632825,13.259420396031556,,,,,,,,,
39,39,2.27,-7.26,-1.52,13.1,-2.24,1.86,-2.4,-4.33,-8.65,12.1,90.0,2270000000.0,-5.4160444869487945,-0.6063626175147719,10.576336641516894,-2.0304202192172145,1.2568509174680451,-1.8724248419084355,-0.9306720812110528,-7.348922749907594,12.648252348178726,,,,,,,,,
40,40,2.32,-12.5,-4.02,9.2,-0.833,2.95,-2.95,-4.95,-7.83,11.5,90.0,2320000000.0,-8.197796357072452,-2.0676211266704683,9.927460625086676,-1.0869515511862455,2.3859589144026643,-2.654009067441204,-2.7026703016441047,-7.5494490720773255,12.042971140967513,,,,,,,,,
41,41,2.37,-13.2,-3.71,8.18,-1.53,1.03,-1.18,-3.18,-7.01,13.2,90.0,2370000000.0,-10.162078710658632,-2.7706659741917945,9.103617896560282,-1.4360372753725443,1.4817124669111477,-1.5848843602044929,-2.9131103432551515,-7.324591817532079,12.65287863232686,,,,,,,,,
42,42,2.42,-11.3,-2.7,9.87,-2.28,1.16,0.085,1.4,-6.95,12.8,90.0,2420000000.0,-10.608921607882381,-2.7404163678557256,9.464929808319427,-2.101010482567496,1.2671725009338353,-0.3736878997593174,-1.0115923960655149,-7.168451468700204,12.730431196988485,,,,,,,,,
43,43,2.47,-6.66,-2.19,8.92,-0.924,1.58,0.269,-1.5,-6.83,6.76,90.0,2470000000.0,-9.058245510055118,-2.5048024370631428,9.208021887623453,-1.173623024922513,1.4757873671669886,0.092464918953989,-1.226916316774235,-7.027375468326981,9.583222598043553,,,,,,,,,
44,44,2.52,-9.0,-2.23,2.44,-0.512,2.49,-0.667,1.07,-6.62,6.71,90.0,2520000000.0,-9.03537346403173,-2.3871691535960875,6.017228077913543,-0.6523185043060138,2.1521339362054834,-0.458388324480374,-0.21427639434544066,-6.857570015473755,8.068653416104464,,,,,,,,,
45,45,2.57,-6.12,-1.73,2.19,-1.63,0.458,0.773,4.72,-6.74,8.27,90.0,2570000000.0,-7.890554599897968,-2.105858080525375,4.212875819190309,-1.4226511264752264,1.0223692059370566,0.4347592593278482,1.9610945158435635,-6.808563473527326,8.174789998918508,,,,,,,,,
46,46,2.62,-2.06,-0.898,4.26,-1.91,0.0177,1.67,0.44,-6.84,7.42,90.0,2620000000.0,-5.600992463120591,-1.5888163718334396,4.235092691194843,-1.8066419388465416,0.35238685485350274,1.3307010357611728,1.2904906333592203,-6.821667154135307,7.776915649885657,,,,,,,,,
47,47,2.67,-6.08,-0.5579999999999999,3.64,-0.41,0.301,-0.0421,-1.62,-8.6,8.03,90.0,2670000000.0,-5.7890907504167055,-1.1475600246439996,3.954535419347589,-0.7062029311289144,0.3181185740542685,0.3349843289587973,0.007344649678500792,-7.56292581509808,7.9103245121265475,,,,,,,,,
48,48,2.72,-8.06,-2.11,4.48,-0.204,-0.418,0.78,-5.71,-8.25,5.68,90.0,2720000000.0,-6.680839323306611,-1.5595468001938322,4.202266474896985,-0.310508313478,-0.17277580027561024,0.6577619915991846,-2.5132571270106516,-7.849317410584312,6.734647737576642,,,,,,,,,
49,49,2.77,-11.9,-1.52,2.12,0.0761,-0.069,0.92,-3.46,-11.9,9.19,90.0,2770000000.0,-8.730317031765594,-1.5426181929598597,3.2205788400287125,-0.005892753032609943,-0.10357097605775872,0.8479678376940175,-2.9306470158797966,-9.537754213819676,8.028943655977816,,,,,,,,,
50,50,2.82,-10.1,-5.24,6.25,0.425,-0.183,1.52,-1.72,-15.5,5.43,90.0,2820000000.0,-9.26816897232297,-3.1253376553691607,4.648803885169419,0.3336153143505092,-0.15653969726311992,1.3354045561582257,-2.396909920484265,-12.022983787142975,6.65895572609228,,,,,,,,,
51,51,2.87,-7.02,-8.15,1.68,0.5489999999999999,-0.0941,0.87,-9.09,-11.4,6.81,90.0,2870000000.0,-8.385350286540817,-5.276219330147258,3.249156918333164,0.5033207555522132,-0.1149006224936889,0.9978384596965352,-5.347687956747417,-11.763306689775208,6.738576051679897,,,,,,,,,
52,52,2.92,-14.8,-4.35,3.52,0.546,-0.527,0.7290000000000001,-5.41,-11.7,6.49,90.0,2920000000.0,-10.904276941896756,-4.879737257568246,3.37684627708251,0.5369484937587776,-0.3897167657836176,0.8028451823780471,-5.375159356653169,-11.736918624391668,6.607543398952362,,,,,,,,,
53,53,2.97,-10.4,-4.22,2.56,0.174,0.277,0.202,-8.29,-11.0,1.5,90.0,2970000000.0,-10.706255598488932,-4.5973267712213985,2.991742875779954,0.25097492121854503,0.05489571979654606,0.3670416221996029,-6.660223107292079,-11.429750482696493,3.915190938881148,,,,,,,,,
54,54,3.02,-13.1,-3.31,-2.17,-1.52,0.0452,0.8740000000000001,-2.06,-11.6,3.3,90.0,3020000000.0,-11.64623948381792,-4.046267276066059,0.5582315970773459,-1.1444076781530372,0.04842994963634109,0.7347474482333259,-4.632125919741356,-11.500715367147794,3.5909037352851327,,,,,,,,,
55,55,3.07,-6.83,-3.78,-0.129,-0.534,2.11,-1.75,-0.828,-7.49,5.12,90.0,3070000000.0,-9.75498206716397,-3.9322875754574067,0.2342352567789485,-0.6634566041446983,1.4232262213397475,-1.0674835232697084,-2.9550035748823738,-9.828937757350953,4.3969401133059085,,,,,,,,,
56,56,3.12,-5.9,-0.113,1.36,0.0571,1.23,-0.7759999999999999,4.11,-5.23,6.22,90.0,3120000000.0,-8.241194566722832,-2.297384427500847,0.7649787013949039,-0.09571724856625097,1.2943697335663693,-0.8560654202173409,0.15973969704609647,-7.9119728278722725,5.357934239548034,,,,,,,,,
57,57,3.17,-0.989,2.24,2.44,0.0834,-0.585,-0.8909999999999999,-10.0,-11.5,4.89,90.0,3170000000.0,-5.393378018613287,-0.35508918284568725,1.5546699741521963,0.0454124177176187,0.041077077137255065,-0.8814040648837788,-4.319377678123681,-9.407562167501302,5.111270792552173,,,,,,,,,
58,58,3.22,-15.5,-4.34,1.07,0.329,-0.6940000000000001,-0.00725,4.11,-4.49,7.74,90.0,3220000000.0,-9.362080891684554,-2.060889900044282,1.3261716293380204,0.2688561107436631,-0.4491227509866187,-0.2473647660025445,-0.6031237440828114,-7.357785634557756,6.496959445487425,,,,,,,,,
59,59,3.27,-1.38,2.46,3.54,1.06,0.511,-0.905,-9.85,-17.4,5.47,90.0,3270000000.0,-6.22765007541557,-0.12565537222208345,2.369884240815913,0.8922123963047299,0.19115295274595068,-0.7243591325496603,-4.679787816944176,-11.54365922475035,5.955615566765496,,,,,,,,,
60,60,3.32,-15.7,-11.1,0.74,0.594,1.02,-1.48,-3.71,-8.16,7.16,90.0,3320000000.0,-9.947284753817438,-4.823387825896075,1.6014729315693372,0.6572455351139953,0.7438850134091238,-1.2724387412018503,-4.2522381532947415,-10.133256055846275,6.5904857435974975,,,,,,,,,
61,61,3.37,-9.71,-2.08,2.35,-0.524,-0.21,-0.647,-2.02,-10.9,7.87,90.0,3370000000.0,-9.854106980417818,-3.649039619212696,1.9543670699011635,-0.2734788065937656,0.10776905045426743,-0.8187970464160116,-3.26811286253766,-10.452856059850523,7.2649593170404145,,,,,,,,,
62,62,3.42,-8.46,-5.1,3.26,0.192,-0.484,-1.22,-2.26,-7.59,5.3,90.0,3420000000.0,-9.306664300029789,-4.270144862037234,2.569909623556748,0.0932802189798137,-0.2868631483999499,-1.1097966169695104,-2.8236668416663164,-9.259538236324417,6.22916536984982,,,,,,,,,
63,63,3.47,-9.21,-2.33,0.804,0.368,-0.858,-1.27,-5.0,-11.5,6.31,90.0,3470000000.0,-9.26870584718925,-3.4396368149556573,1.7373689532329968,0.3097368173610119,-0.6677363703169746,-1.2259949309943698,-3.783145327762248,-10.193424901294293,6.2717759057349936,,,,,,,,,
64,64,3.52,-12.5,-6.59,2.23,0.355,-2.04,-0.526,0.939,-10.6,7.03,90.0,3520000000.0,-10.537581482551523,-4.788196941285626,1.969620591118307,0.3454004749313649,-1.5828558760088414,-0.7182763279708059,-1.7012963962592031,-10.362896849173758,6.6714606290750655,,,,,,,,,
65,65,3.57,-6.95,-5.79,3.69,0.841,-2.68,-0.0836,-0.736,-4.18,11.8,90.0,3570000000.0,-9.128797645541335,-5.217033701743073,2.780696011432654,0.7358921647406828,-2.314506890947224,-0.2579344381829805,-1.2757268459366655,-7.7856937153130055,9.37488085027955,,,,,,,,,
66,66,3.62,-9.0,0.35200000000000004,9.05,0.588,-1.21,-0.311,-3.45,-11.8,5.18,90.0,3620000000.0,-9.07822094574529,-2.8331255664259407,5.736368653717089,0.6193652994090749,-1.5779459478441216,-0.2964238147144603,-2.234297160404738,-9.458968103333998,7.1636224512916336,,,,,,,,,
67,67,3.67,-11.9,-7.38,3.0,-0.174,-1.76,0.0526,1.58,-11.3,3.06,90.0,3670000000.0,-10.186286642323012,-4.779483194967326,4.4463036420850495,-0.005741315830570803,-1.6993520731092704,-0.04327071087911677,-0.5526906048332625,-10.226361389878956,5.00046938669656,,,,,,,,,
68,68,3.72,-7.0,-6.63,2.12,-2.19,-2.48,0.403,2.42,-13.4,1.52,90.0,3720000000.0,-8.93508471005475,-5.571624628588965,3.3495643271372453,-1.7267575970715086,-2.21994167909779,0.2804172728782053,0.7578774685508864,-11.54922191319974,3.1658006164322385,,,,,,,,,
69,69,3.77,-5.99,-8.34,1.92,-1.77,-1.44,0.998,4.98,-11.9,-0.669,90.0,3770000000.0,-7.77859868731416,-6.756669160366273,2.67559411001192,-1.7608290398195314,-1.6998230984671063,0.8008926486593684,2.619281701342434,-11.695435799411971,1.144352310139209,,,,,,,,,
70,70,3.82,-3.07,-6.44,0.625,-2.34,-0.6459999999999999,1.45,4.99,-10.1,0.5529999999999999,90.0,3820000000.0,-5.92961003038818,-6.6211142163882615,1.7088385119342997,-2.2171680648117174,-0.9970615783080254,1.271701647451267,3.66445852817086,-11.03041402319002,0.8326312351519201,,,,,,,,,
71,71,3.87,-2.59,-4.56,2.94,-1.86,-2.22,0.218,1.62,-13.4,0.765,90.0,3870000000.0,-4.618200512194531,-5.738823436783348,2.289271426586712,-1.9357490101855208,-1.812600835514011,0.5074333293315582,2.7631195206716317,-12.018123086058633,0.7969806010543837,,,,,,,,,
72,72,3.92,-5.79,-8.01,4.21,-1.49,-0.831,0.17600000000000002,-0.314,-11.5,2.36,90.0,3920000000.0,-5.078346726338865,-6.711034617977451,3.194801745116176,-1.5845354506713782,-1.158002036874085,0.2670389128876901,1.40651197279228,-11.802154999154356,1.6208989729108845,,,,,,,,,
73,73,3.97,-7.49,-6.27,6.51,-0.902,-1.81,0.273,-2.22,-10.2,1.59,90.0,3970000000.0,-6.025362889137252,-6.522243147878539,4.757756928333912,-1.0467536468780367,-1.5927989702361822,0.2713625954666797,-0.192305851395328,-11.134332235424088,1.6046111356150918,,,,,,,,,
74,74,4.02,-8.82,-4.81,6.46,-0.0058,-0.934,0.672,-0.77,-9.23,-3.37,90.0,4020000000.0,-7.122770424547889,-5.789291844962668,5.560281936898999,-0.2265677684956945,-1.1534666307733297,0.561951936036432,-0.4469934605541568,-10.34055349897441,-1.0176683389955128,,,,,,,,,
75,75,4.07,-6.96,-3.63,1.78,-0.545,-0.991,1.06,0.34,-24.1,-3.13,90.0,4070000000.0,-7.058853192722068,-4.864974737119408,3.7780624646862986,-0.477466196062307,-1.045122733277054,0.9231949040837406,-0.10003219929698333,-16.075872962692042,-2.1311472089496197,,,,,,,,,
76,76,4.12,-6.13,-19.5,3.19,-2.26,2.37,-0.316,6.56,-10.9,-4.94,90.0,4120000000.0,-6.6941079902969065,-11.129716102534731,3.5008195809479368,-1.8819562520682809,1.2323153202445534,0.024385061792863368,2.836171539804464,-13.918425255235595,-3.611785019598708,,,,,,,,,
77,77,4.17,0.103,-5.89,0.467,-0.117,-0.139,0.00313,0.812,-13.0,-6.1,90.0,4170000000.0,-4.024996386061481,-8.886777231067807,2.070520897389293,-0.4913158530231416,0.3178281878590836,0.008968392167543054,1.9437764303556404,-13.535600110641756,-4.923404117789988,,,,,,,,,
78,78,4.22,-5.92,-8.46,-0.634,-1.38,0.516,-1.57,-0.746,-14.0,-4.2,90.0,4220000000.0,-4.769132913949539,-8.70408887308538,0.7954705555736208,-1.1915258824669197,0.4499827294605047,-1.1362851570182149,0.7579365695448181,-13.729174877645882,-4.5420741480666775,,,,,,,,,
79,79,4.27,-8.13,-10.3,1.08,-0.575,1.63,-1.64,5.92,-6.76,-6.13,90.0,4270000000.0,-6.088889736670933,-9.387242572353085,0.9296123993264868,-0.7057541733089882,1.236899196253589,-1.5016383705578444,3.0337319180744986,-10.824229399063155,-5.3791216380313385,,,,,,,,,
80,80,4.32,-1.82,-3.89,-0.845,-1.13,-0.397,-1.59,6.87,-7.79,-4.63,90.0,4320000000.0,-4.412567540611212,-7.034065747377353,0.09296876968299528,-1.0400249961478192,0.14730311021337128,-1.5657286367707357,4.725024709164743,-9.559478330416981,-4.984235286728937,,,,,,,,,
81,81,4.37,-1.09,-6.09,0.836,-2.28,-0.157,-1.73,4.66,-8.75,-7.07,90.0,4370000000.0,-3.107850372381078,-6.6299443552302755,0.4432719439584226,-2.017023316120117,-0.055627083604012806,-1.6848775559609457,4.696357243582046,-9.222065288777603,-6.083709883504728,,,,,,,,,
82,82,4.42,-3.42,-8.4,-1.51,-1.45,0.213,-2.35,8.37,-8.12,-3.49,90.0,4420000000.0,-3.2304263853188218,-7.387642973981001,-0.4776009718225966,-1.5702556057157442,0.12351188433407992,-2.1673024790520734,6.315953520505174,-8.762693832108793,-4.716480941050502,,,,,,,,,
83,83,4.47,0.256,-9.31,1.88,-1.74,0.677,-3.06,3.66,-7.02,-6.23,90.0,4470000000.0,-1.8613645478516785,-8.210536818881524,0.6338934588912581,-1.7040002382035535,0.4926157221711167,-2.8147916306983514,5.145025176706056,-8.036290652581117,-5.5143061369980755,,,,,,,,,
84,84,4.52,-4.41,-9.87,-1.44,-1.03,1.15,-2.91,6.3,-10.7,-2.77,90.0,4520000000.0,-2.8621713707846657,-8.920894794454131,-0.3438466783347417,-1.1729434495700113,0.9310046419593584,-2.8838479956462075,5.654218207973137,-9.146598581561047,-4.067692989862923,,,,,,,,,
85,85,4.57,-1.59,-14.5,1.6,-0.986,0.7090000000000001,-1.43,2.98,-10.3,-1.99,90.0,4570000000.0,-2.3626107805992578,-11.309114188365015,0.5725826978927285,-1.0256473844002434,0.7829567105570014,-1.8293464679336264,4.475237494680052,-9.627368394117504,-2.972473356878252,,,,,,,,,
86,86,4.62,-4.87,-14.7,1.92,0.201,1.2,-0.975,7.13,-14.4,0.7979999999999999,90.0,4620000000.0,-3.347220906820312,-12.760633473987609,1.207824539225545,-0.05915010616667915,1.0610698186197818,-1.2096739845066165,5.645640844736294,-11.616733590864206,-0.9849340711521783,,,,,,,,,
87,87,4.67,-0.8140000000000001,-18.6,4.8,2.16,-0.28800000000000003,0.784,11.1,-10.6,-14.2,90.0,4670000000.0,-2.3524670644480272,-15.260261780467221,2.901361014054573,1.6893577691028008,0.16141752016318578,0.2363727626424501,8.050300540742958,-11.192930961656284,-7.95102558929947,,,,,,,,,
88,88,4.72,3.26,-13.5,-9.11,2.99,-1.75,1.19,7.36,-15.7,-4.28,90.0,4720000000.0,-0.14854431292269155,-14.506755408460993,-2.7614125754452257,2.7141569055055457,-1.1132468132864517,0.9280553909035688,7.745968280241919,-13.071602386951149,-6.015908559557915,,,,,,,,,
89,89,4.77,-0.345,-17.5,1.49,2.22,-0.9,1.41,7.78,-12.3,-6.48,90.0,4770000000.0,-0.2256892033163128,-15.788058506514492,-0.7570778822937503,2.3248019199863608,-0.9710391926901971,1.2776182575539106,7.760971913364121,-12.749977169600553,-6.260546281673224,,,,,,,,,
90,90,4.82,0.292,-12.9,-0.175,1.84,-1.16,1.66,8.45,-6.65,-7.4,90.0,4820000000.0,-0.022401238721272254,-14.551781721451473,-0.4826564103123769,1.9428178975727144,-1.097051200224051,1.5549664280923992,8.064743162681093,-10.207337371587403,-6.861189494820738,,,,,,,,,
91,91,4.87,1.37,-6.14,-0.627,1.47,-1.52,1.36,8.69,-4.22,-7.57,90.0,4870000000.0,0.5243716420377582,-10.950992737689765,-0.5507073950502234,1.5702762956431329,-1.3791024632005535,1.413553863374745,8.34039952475114,-7.7116488413955855,-7.234826686020733,,,,,,,,,
92,92,4.92,2.21,-3.0,-0.311,0.893,-1.56,0.77,7.6,-5.27,-8.42,90.0,4920000000.0,1.186289963598575,-7.5474514246276465,-0.4376969874441419,1.0366382709329,-1.4997373128856102,0.94677292770908,8.013980059102192,-6.693901808931106,-7.859570176906691,,,,,,,,,
93,93,4.97,1.72,-3.64,-0.747,0.451,-1.36,0.406,7.4,-6.58,-8.01,90.0,4970000000.0,1.3958690566229068,-5.8748084686837405,-0.5835183360705507,0.5752034731784902,-1.4065508956459305,0.5545408155017795,7.743295139451145,-6.646424340914828,-7.938866756273397,,,,,,,,,
94,94,5.02,1.93,-4.93,-0.0383,-0.691,-0.49,0.224,3.71,-12.0,2.85,90.0,5020000000.0,1.6056134010056509,-5.470369004777626,-0.3264743526364349,-0.4224607344312452,-0.7953318856751004,0.314793760723292,5.965139132886216,-8.87794330677516,-2.251703784378029,,,,,,,,,
95,95,5.07,-1.82,-10.9,10.9,-1.06,0.00122,-0.348,-0.716,-17.1,-0.929,90.0,5070000000.0,0.2604317983091655,-7.794603564944447,4.966263252191181,-0.9247892071096674,-0.2641364416282081,-0.16594218936169847,3.0196299603846843,-12.305124964221342,-1.5544635544416625,,,,,,,,,
96,96,5.12,-5.95,-15.9,7.27,1.09,-0.926,0.36,7.53,-6.04,-5.88,90.0,5120000000.0,-2.178301718130411,-11.264239525789973,6.052363308817678,0.6626990425392466,-0.7055124682427095,0.2155329297063701,5.00811375574375,-9.693646924764677,-3.834594742525297,,,,,,,,,
97,97,5.17,2.84,-4.22,2.54,0.695,-0.7979999999999999,0.664,8.43,-14.6,-0.516,90.0,5170000000.0,-0.2076978761419055,-8.248847391726859,4.39645446192209,0.6881495353433118,-0.7671894848113383,0.5408139552731444,6.516718499217348,-11.738751260456956,-2.0852553646107723,,,,,,,,,
98,98,5.22,3.32,-12.9,7.68,-0.518,1.59,-0.467,5.02,-12.8,-10.3,90.0,5220000000.0,1.1775705604550786,-10.239842639682015,5.944486736581537,-0.2621971246431234,0.8047461986920406,-0.19017121537169449,5.8568612468741605,-12.181109278017654,-6.41551488741953,,,,,,,,,
99,99,5.27,-0.601,-11.2,-2.48,-0.317,1.29,0.298,7.17,-7.15,-11.2,90.0,5270000000.0,0.4791553877333106,-10.650852270997373,1.9727501105005618,-0.3053772854148471,1.1283466983467263,0.1639079481039758,6.4357838494457935,-10.084003292162112,-8.937572703344669,,,,,,,,,
100,100,5.32,1.05,-6.04,-3.59,-1.58,1.32,-0.812,3.17,-16.0,-9.54,90.0,5320000000.0,0.7033165830080463,-8.67710800530201,-0.6498165402076852,-1.3096752087930608,1.2561543030626448,-0.5439352125964508,4.996000028397215,-12.549954965620568,-9.255131730212971,,,,,,,,,
101,101,5.37,-3.65,-16.0,-2.49,-2.2,1.85,-1.08,7.44,-6.93,-4.56,90.0,5370000000.0,-1.0061586937636362,-11.811781404876552,-1.5173737334025017,-2.0111779723113705,1.6521713699064868,-0.9327524505902524,6.07348462155076,-10.207401637762695,-6.780174861349592,,,,,,,,,
102,102,5.42,0.14400000000000002,-7.98,1.91,-2.46,1.19,-0.7490000000000001,6.17,-5.71,-6.84,90.0,5420000000.0,-0.5545104480656402,-10.171530095454212,0.098466619900206,-2.364812854501084,1.3439638317783522,-0.7994735797030782,6.1160353229666935,-8.332759789822871,-6.811710720657798,,,,,,,,,
103,103,5.47,-1.21,-7.81,-0.737,-1.97,0.184,-0.917,7.64,-4.83,-4.79,90.0,5470000000.0,-0.8119103413450316,-9.160641807433274,-0.29541533693774497,-2.0537328123223184,0.5704203707571548,-0.884717553711486,6.787904511505335,-6.87271223061274,-5.7460011397784765,,,,,,,,,
104,104,5.52,0.242,-7.68,0.989,-1.47,0.445,-0.698,6.54,-6.9,-5.94,90.0,5520000000.0,-0.3980572258179501,-8.526830871873678,0.31012416639204576,-1.5937993778687864,0.4867814584196576,-0.7492880421369269,6.678611005092554,-6.884086570234631,-5.848264287015407,,,,,,,,,
105,105,5.57,-0.84,-10.4,-0.539,-1.14,0.407,-1.0,5.85,-5.93,-3.54,90.0,5570000000.0,-0.5716008150385847,-9.328668758778221,-0.09019665423370282,-1.2362427717995066,0.4335777121112267,-0.9311338292040416,6.313301805447612,-6.48639672793199,-4.631502989280711,,,,,,,,,
106,106,5.62,-1.49,-10.1,1.46,-0.8290000000000001,0.659,-0.703,4.84,-8.91,-4.09,90.0,5620000000.0,-0.9322409506391718,-9.658848791701326,0.6406458480261505,-0.9153689513272047,0.583904744886457,-0.7656643620340906,5.663768330282988,-7.496621794548933,-4.34605920924264,,,,,,,,,
107,107,5.67,-2.51,-13.4,0.611,-0.251,0.418,-0.399,3.69,-8.75,-3.44,90.0,5670000000.0,-1.5518007645805711,-11.260304335378326,0.6266692702060193,-0.3919008371902656,0.4732680876835453,-0.4997162514365291,4.79359448429325,-8.019064628080866,-3.8684459230946806,,,,,,,,,
108,108,5.72,-3.76,-13.3,1.06,0.345,0.629,0.116,4.94,-7.83,-1.75,90.0,5720000000.0,-2.41892398618858,-12.133426640833314,0.8309636507876339,0.18871642777987274,0.577120816063616,-0.0531264409630155,4.858140207419464,-7.940257210299968,-2.751744086798645,,,,,,,,,
109,109,5.77,-2.79,-11.8,2.79,1.77,0.177,1.08,12.2,-11.8,-5.73,90.0,5770000000.0,-2.5646393689801257,-11.990698463960713,1.7545541903843709,1.4346378420589323,0.3102928067148553,0.7687501023967136,8.094940744567598,-9.549105242468917,-4.321679779880878,,,,,,,,,
110,110,5.82,4.43,-14.7,-0.462,3.02,-1.37,1.19,8.11,-15.3,-7.03,90.0,5820000000.0,0.1820394649191277,-13.150455410356527,0.7095564633745866,2.6837728465126203,-0.8102417148932909,1.074290094345351,8.101579756677435,-11.946237918822801,-5.749323678838644,,,,,,,,,
111,111,5.87,0.67,-17.0,-0.8859999999999999,2.14,-0.991,1.08,5.76,-13.2,-6.52,90.0,5870000000.0,0.37365348267128,-14.798310524752376,-0.04267095882407068,2.255324639407055,-0.930783737929012,1.0784316203446425,7.069249218588894,-12.46884068291133,-6.155572255849358,,,,,,,,,
112,112,5.92,-1.59,-13.8,0.177,2.18,-0.8959999999999999,1.66,6.67,-8.41,-7.75,90.0,5920000000.0,-0.3974406935249065,-14.370968860990185,0.060893237122161936,2.195975069939189,-0.9075875736155442,1.500253357781577,6.893232526862542,-10.777003137204044,-6.996047044619687,,,,,,,,,
113,113,5.97,-0.199,-7.77,-0.785,1.69,-1.09,1.25,7.44,-5.09,-8.1,90.0,5970000000.0,-0.3195163239193024,-11.545325443780627,-0.3379043814437428,1.7973083651714552,-1.0292327160211316,1.318740201409382,7.134285547750161,-8.406502405129983,-7.5779768002986465,,,,,,,,,
114,114,6.02,1.14,-3.69,-0.711,0.989,-1.68,0.746,7.64,-5.6,-8.89,90.0,6020000000.0,0.25361153046448603,-8.182735970648803,-0.5138008694559911,1.1604278565610902,-1.4632089512782676,0.9033216666411564,7.357239467778113,-7.236674246081492,-8.269587137756936,,,,,,,,,
115,115,6.07,2.03,-3.78,-1.06,0.488,-1.71,0.467,7.12,-6.15,-9.8,90.0,6070000000.0,0.9511698167222108,-6.29807900285261,-0.7713072229670138,0.6306100022313497,-1.6277861788731849,0.5868499028940255,7.25264781814124,-6.7837182907634,-9.076317698079807,,,,,,,,,
116,116,6.12,2.09,-4.22,-1.6,-0.418,-0.952,0.35600000000000004,5.23,-9.78,-3.97,90.0,6120000000.0,1.3983695129216132,-5.40852612745126,-1.1619956582945303,-0.1956084645016608,-1.1771256077515038,0.41941041769078174,6.360924489512322,-8.032651581543602,-6.384611359936608,,,,,,,,,
117,117,6.17,0.314,-8.27,4.38,-1.41,0.197,-0.225,-0.6779999999999999,-16.1,3.71,90.0,6170000000.0,0.9725555893677942,-6.633422995149174,1.450786369926236,-1.1524491113285136,-0.26076438397222,-0.04799177370905144,3.257678756450475,-11.395346534905304,-1.0634129464942603,,,,,,,,,
118,118,6.22,-5.5,-15.1,12.2,-0.239,-0.701,-0.35100000000000003,2.13,-11.7,-3.79,90.0,6220000000.0,-1.5691096684152903,-10.257668025330444,6.5185187976525905,-0.43272631676568,-0.5543436781553936,-0.2677689708626487,2.760519857733668,-11.522334477737813,-2.5006857575104418,,,,,,,,,
119,119,6.27,-2.49,-10.4,4.76,0.513,-0.527,0.75,9.11,-8.98,-7.24,90.0,6270000000.0,-1.930728035988867,-10.318595191734863,5.689462641496612,0.31242826478885977,-0.5361090443517457,0.470436741926232,5.559810601275703,-10.46261869385547,-4.9989325166479155,,,,,,,,,
120,120,6.32,4.36,-7.47,1.21,-0.3,1.47,0.0807,4.45,-19.7,-7.1,90.0,6320000000.0,0.5395366089140221,-9.099211342043644,3.577613433004328,-0.1701148585771915,0.8017021127292222,0.1877538387496961,5.070529089162674,-14.313015997399232,-6.106473561130509,,,,,,,,,
121,121,6.37,-0.965,-18.3,0.958,0.8490000000000001,0.9,-0.177,9.33,-5.49,-11.5,90.0,6370000000.0,-0.05126996021970598,-13.037746157321415,2.342592843292071,0.6328638322893103,0.8672538716962795,-0.07680852857270742,6.948399033958527,-10.635337881161664,-8.949576994990307,,,,,,,,,
122,122,6.42,3.9,-4.13,-3.39,-1.24,0.737,-0.648,6.05,-16.2,-9.24,90.0,6420000000.0,1.5003282741626107,-9.22465228798674,-0.3600465025981765,-0.8427988734389884,0.7803916464728895,-0.4911037377836333,6.552322560691646,-12.954843861848245,-9.10266829832195,,,,,,,,,
123,123,6.47,-0.381,-15.9,-1.84,-1.83,2.43,-1.2,4.98,-8.35,-6.7,90.0,6470000000.0,0.7615618506368206,-12.082134512922757,-1.0577727633882257,-1.620632219523162,1.8804637109557432,-1.0052786838911427,5.859133815159058,-11.03541725510091,-7.83614349139137,,,,,,,,,
124,124,6.52,-2.12,-9.14,0.0192,-2.32,1.34,-0.8059999999999999,6.19,-5.29,-6.29,90.0,6520000000.0,-0.3699796636727689,-10.822709995109037,-0.5500323754777809,-2.171676470407036,1.5200454527440088,-0.8607383497671317,6.005002585212806,-8.640567817434523,-7.021120884587951,,,,,,,,,
125,125,6.57,-1.07,-7.16,0.0263,-1.98,0.203,-1.01,6.83,-5.99,-5.96,90.0,6570000000.0,-0.6448660632307504,-9.254832156865591,-0.2783196324965728,-2.0206511879051945,0.6417491862919089,-0.9690004397075714,6.368718588132478,-7.535737468092068,-6.46176952950515,,,,,,,,,
126,126,6.62,-0.362,-8.72,0.127,-1.7,0.128,-0.718,6.56,-6.5,-5.31,90.0,6620000000.0,-0.533789245939677,-9.025889370391424,-0.08723109589538253,-1.7680044558754144,0.29914598764611106,-0.7869454078867018,6.453048665938977,-7.1040133362443525,-5.8546342713119515,,,,,,,,,
127,127,6.67,-0.503,-9.84,0.5429999999999999,-1.26,0.326,-1.1,5.18,-5.56,-3.37,90.0,6670000000.0,-0.5216988278178915,-9.374381662112484,0.20989226970350394,-1.36773870926286,0.3170540887168665,-1.0140094199848,5.89180051018226,-6.460425687452653,-4.544902570895782,,,,,,,,,
128,128,6.72,-1.85,-9.72,2.05,-0.826,0.522,-0.818,4.83,-6.81,-4.78,90.0,6720000000.0,-1.0433006827871425,-9.52232887313426,1.077413733139874,-0.9408931328546,0.4537260923399513,-0.8718403580390229,5.423685223996945,-6.606137942292022,-4.6688301926587235,,,,,,,,,
129,129,6.77,-2.22,-11.4,0.306,-0.399,0.574,-0.406,5.54,-8.16,-2.37,90.0,6770000000.0,-1.5053710049095896,-10.326093907906555,0.713729595534303,-0.5139258942495197,0.5339329858821875,-0.5339581548857409,5.474964821590471,-7.253830724165561,-3.45704187307724,,,,,,,,,
130,130,6.82,-1.62,-12.8,2.47,0.122,0.731,0.008020000000000001,2.72,-9.23,-2.14,90.0,6820000000.0,-1.5503839124779808,-11.385086478524425,1.5417258648225671,-0.012868579341366648,0.6653507946273126,-0.14085187899904844,4.260385409107437,-8.077552751850567,-2.762786265717228,,,,,,,,,
131,131,6.87,-4.72,-13.5,2.59,1.36,0.7559999999999999,0.871,10.0,-9.57,0.335,90.0,6870000000.0,-2.7950395119039495,-12.29040683050695,2.0359362015135134,1.0688389843726696,0.7258018919079215,0.5930620572413976,6.790805302475323,-8.699646072439798,-1.1298422368018648,,,,,,,,,
132,132,6.92,2.38,-12.8,5.54,3.05,-0.918,1.5,7.95,-17.1,-10.2,90.0,6920000000.0,-0.7628872585439677,-12.508545887052207,3.68793219613258,2.6298309204380885,-0.3703979696545673,1.2508800784785057,7.30185857858172,-12.2011469672175,-5.911017675950161,,,,,,,,,
133,133,6.97,0.752,-19.1,-3.84,2.27,-2.09,0.723,7.26,-13.2,-6.6,90.0,6970000000.0,-0.16801616073858272,-15.330116529240653,0.13887757140222678,2.3463137282397017,-1.517146517934303,0.8679993775056059,7.283404517057762,-12.617496562903176,-6.274202646384071,,,,,,,,,
134,134,7.02,0.204,-14.1,0.153,2.3,-0.873,1.23,6.28,-10.1,-7.41,90.0,7020000000.0,-0.021931584355705275,-14.803546921277507,0.1455356097106268,2.3098222810958404,-1.0875854458798104,1.130564801770945,6.841034357886484,-11.568134261313947,-6.872918339912407,,,,,,,,,
135,135,7.07,-0.63,-9.86,-0.46,1.73,-0.348,1.33,7.38,-5.1,-7.68,90.0,7070000000.0,-0.260709966856961,-12.687387605927524,-0.13994504476512798,1.852970016179896,-0.5943791253241053,1.2752186854705416,7.078647816182702,-8.87203628683724,-7.298357276229222,,,,,,,,,
136,136,7.12,0.831,-3.97,-0.469,1.11,-1.43,0.969,7.25,-3.98,-8.29,90.0,7120000000.0,0.1679864237545467,-8.955779523740445,-0.295078491110966,1.2675707475536575,-1.1516284165650958,1.0531128806908925,7.154191734304197,-6.832899752983364,-7.821084430089238,,,,,,,,,
137,137,7.17,1.37,-2.33,-0.625,0.594,-1.6,0.5329999999999999,7.49,-5.57,-9.28,90.0,7170000000.0,0.6399972262982572,-6.119515506913574,-0.4506204699391578,0.7368523705017126,-1.4506333644104954,0.6758658664419422,7.302239189973992,-6.306488145646771,-8.590126197909644,,,,,,,,,
138,138,7.22,2.13,-3.77,-1.26,-0.418,-0.922,0.374,6.36,-8.21,-5.47,90.0,7220000000.0,1.225096654568839,-5.113770259471512,-0.8322036309438992,-0.17307634634321578,-1.0981043645840447,0.4569172602465445,6.886834912384205,-7.0999247495820095,-6.945405957005618,,,,,,,,,
139,139,7.27,1.14,-6.86,2.72,-1.62,0.113,-0.228,-0.598,-18.1,6.86,90.0,7270000000.0,1.1916806036993364,-5.861270064148122,0.8424879897034461,-1.313133211711575,-0.29045688891296995,-0.03986526001555374,3.5870009539184338,-11.68506166770864,0.3318731861765354,,,,,,,,,
140,140,7.32,-5.73,-17.5,15.2,-0.378,-0.762,-0.386,3.19,-11.3,-4.97,90.0,7320000000.0,-1.526348607709943,-10.843402418573413,7.611357976336821,-0.5763251279574534,-0.6049142013756996,-0.29092287252136456,3.4119754446649937,-11.524557353656226,-2.4629167227722366,,,,,,,,,
141,141,7.37,-1.67,-10.2,3.48,0.95,-1.02,0.954,11.6,-8.05,-5.74,90.0,7370000000.0,-1.5827581107104465,-10.567984312437778,5.663623213349703,0.6262935569948228,-0.8817218757504697,0.6120415525797882,7.0218243046144915,-10.076265464128726,-4.190373920469584,,,,,,,,,
142,142,7.42,6.56,-6.59,2.55,-0.269,1.86,-0.18600000000000005,4.65,-14.8,-9.02,90.0,7420000000.0,1.6147679609212402,-8.86514871977319,4.19570096427465,-0.0791241429381857,0.946646373795353,0.033207992824067056,5.976159814846548,-12.045249243077686,-6.7362273519991325,,,,,,,,,
143,143,7.47,-1.16,-14.1,-0.907,-0.311,1.51,-0.21600000000000005,9.88,-7.47,-9.99,90.0,7470000000.0,0.5251626045098089,-11.106005237460431,1.7900251147664563,-0.26182324337624474,1.3223292137355926,-0.14754694604530588,7.697243173004341,-10.138158248607278,-8.451396757886876,,,,,,,,,
144,144,7.52,3.82,-6.75,-2.31,-1.48,1.06,-0.898,3.77,-13.3,-9.05,90.0,7520000000.0,1.8189905914403048,-9.241352070902598,-0.14293770673412265,-1.221646374527134,1.147390059008698,-0.6918637299885999,5.965842197911702,-11.456101752205033,-8.766940121721225,,,,,,,,,
145,145,7.57,-2.97,-13.6,-1.93,-1.93,2.18,-1.12,5.11,-7.84,-5.7,90.0,7570000000.0,-0.061566618269255365,-11.107136644419146,-0.9854508189022956,-1.7797707436521126,1.8360052534157263,-1.0023984907670649,5.588527702132084,-9.948810211768961,-7.150256003711298,,,,,,,,,
146,146,7.62,-2.22,-9.19,0.6729999999999999,-2.22,1.35,-0.677,6.98,-6.0,-5.23,90.0,7620000000.0,-0.9091476292865374,-10.28647746191,-0.203571760400768,-2.126635221076556,1.5119036244032833,-0.7663812394043704,6.2019851348743895,-8.302836484809216,-6.1380265383157555,,,,,,,,,
147,147,7.67,-0.491,-8.3,0.6970000000000001,-1.76,0.184,-0.899,7.01,-5.15,-5.69,90.0,7670000000.0,-0.7449479873071807,-9.436136167060829,0.2210041283147996,-1.8377568069924692,0.6263663883079449,-0.8625719481028346,6.5582141874770326,-6.98864674559178,-5.901857189504859,,,,,,,,,
148,148,7.72,-0.414,-8.18,-0.0503,-1.36,0.401,-0.758,7.24,-5.48,-5.01,90.0,7720000000.0,-0.6149902019557483,-8.898428431462158,0.0930974002225856,-1.4613237392849372,0.4760766149238546,-0.7867240889826929,6.858792523624281,-6.359800905467057,-5.431730340958148,,,,,,,,,
149,149,7.77,-0.184,-9.13,0.261,-1.08,0.484,-0.852,7.24,-6.15,-4.64,90.0,7770000000.0,-0.44574749608447023,-8.997556152484645,0.17225533041430224,-1.1608720219863486,0.4813604699200917,-0.8340698525026952,7.026855097735991,-6.272350103124203,-5.0143834240241185,,,,,,,,,
150,150,7.82,-0.0838,-10.4,0.266,-0.97,0.546,-0.941,4.99,-7.4,-3.84,90.0,7820000000.0,-0.303616717015213,-9.597893045423028,0.21645139349906395,-1.0104805862060866,0.5244665456555638,-0.9116281557597076,6.128868106315966,-6.7423859268026565,-4.3953276304946485,,,,,,,,,
151,151,7.87,-2.3,-12.2,0.6729999999999999,-0.455,0.701,-0.674,4.56,-8.02,-2.71,90.0,7870000000.0,-1.0875633112662393,-10.711763748606224,0.4316918927129436,-0.57280757060085,0.6421911473890046,-0.7392722981740554,5.4372022900461054,-7.274931133679483,-3.5069365714556056,,,,,,,,,
152,152,7.92,-2.8,-13.0,1.46,0.0119,0.855,-0.145,3.02,-8.39,-1.15,90.0,7920000000.0,-1.7600087861048397,-11.691277486399931,0.9164892747464776,-0.11210608401760523,0.7841067025811066,-0.3082361582409758,4.371531988943217,-7.7397229378904004,-2.264518535050354,,,,,,,,,
153,153,7.97,-4.61,-13.0,2.89,1.34,0.535,0.863,9.73,-10.3,-3.2,90.0,7970000000.0,-2.8791531322101496,-12.25149572446445,1.8469038475800428,1.0320341328773073,0.6179852810578425,0.5412819837331841,6.7339158528936816,-8.806917577773289,-2.757641305657881,,,,,,,,,
154,154,8.02,1.92,-13.9,1.5,3.0,-1.28,1.49,8.47,-14.8,-8.59,90.0,8020000000.0,-0.9946052893333934,-12.957162462354978,1.6833555202902886,2.5826294145010587,-0.6477214947709323,1.2294038331155333,7.499302181283076,-11.305000796620872,-5.8320675930137575,,,,,,,,,
155,155,8.07,1.03,-17.2,-2.67,2.43,-1.94,0.991,6.34,-13.1,-7.07,90.0,8070000000.0,-0.19957637365164305,-14.7733728296754,-0.3690403550669668,2.4623700388671925,-1.5095014957700603,1.0564853427124379,6.988201502069027,-12.053206458103226,-6.484622170270578,,,,,,,,,
156,156,8.12,-0.757,-14.3,-0.407,2.6,-1.31,1.45,6.1,-8.72,-8.25,90.0,8120000000.0,-0.41846740043771796,-14.570738594396813,-0.38693648776905,2.570811056077679,-1.3764601736192006,1.3419084707431623,6.5966206814612045,-10.663833577964144,-7.415210316384442,,,,,,,,,
157,157,8.17,-0.613,-8.68,-1.09,1.98,-1.05,1.27,7.33,-4.74,-7.96,90.0,8170000000.0,-0.4948571171696824,-12.049119999933579,-0.7183968266063554,2.10530054005976,-1.1587541015573644,1.2897519799280823,6.919945077998924,-8.19461518405798,-7.7023867205848875,,,,,,,,,
158,158,8.22,1.11,-3.76,-0.443,1.3,-1.43,0.988,7.45,-4.62,-9.13,90.0,8220000000.0,0.13534366804649045,-8.50083825299798,-0.5885605838571233,1.4707898950811713,-1.339639440230522,1.0708859506447754,7.1536299387730375,-6.704616285710873,-8.454928232766122,,,,,,,,,
159,159,8.27,1.81,-3.13,-1.24,0.373,-1.3,0.682,7.24,-5.18,-10.6,90.0,8270000000.0,0.7929534194728485,-6.201770690818317,-0.8956826557041849,0.6058217235037758,-1.3132051102594473,0.7888201259477061,7.191707746697588,-6.069113818399083,-9.585665619701883,,,,,,,,,
160,160,8.32,2.12,-3.59,-2.38,-0.465,-1.03,0.435,5.52,-10.1,-2.65,90.0,8320000000.0,1.314062562800368,-5.083763162470847,-1.5954662967240756,-0.23789774603060646,-1.1243444946384242,0.5321881750906514,6.4547031065050335,-7.7492992472645446,-5.929650451920216,,,,,,,,,
161,161,8.37,0.486,-9.08,5.71,-1.92,0.219,-0.327,-3.89,-19.5,3.0,90.0,8370000000.0,0.988896125147538,-6.7944120540448045,1.8487065121811088,-1.5632559726358017,-0.22851022887181136,-0.09099609517347174,1.8940409953813264,-12.647317555342275,-1.222540891826263,,,,,,,,,
162,162,8.42,-8.66,-19.0,11.6,0.25,-1.11,-0.18600000000000005,4.88,-7.18,-5.24,90.0,8420000000.0,-2.8000653338630266,-12.019196454532384,6.445968296269599,-0.1345593664004714,-0.8163480915780602,-0.1599040993905654,3.2104587157698745,-10.368387737756043,-3.3402743014170877,,,,,,,,,
163,163,8.47,0.244,-6.26,3.36,0.418,0.128,0.855,6.01,-13.0,-4.4,90.0,8470000000.0,-1.6047113501630574,-9.553886407006356,4.991083971400428,0.3008119884919211,-0.18659199394505266,0.5762236856293554,4.4446906358588,-11.465316790028279,-3.898890278900188,,,,,,,,,
164,164,8.52,0.919,-12.1,3.93,-0.484,1.83,-0.123,5.94,-9.24,-12.9,90.0,8520000000.0,-0.6136917372823961,-10.643788559573133,4.4908344096585715,-0.31755532294420746,1.158209922637281,0.06906446135136024,5.103926660618705,-10.537742875139726,-8.643668145867279,,,,,,,,,
165,165,8.57,0.462,-8.26,-4.79,-0.0828,0.179,0.0996,9.62,-8.82,-10.1,90.0,8570000000.0,-0.19128542334712795,-9.623372325680231,0.11537144520195496,-0.13258743261146874,0.5052055718634998,0.09121242549692013,7.094924722827983,-9.821739827934016,-9.411348294803362,,,,,,,,,
166,166,8.62,3.76,-8.53,-2.28,-1.6,1.46,-1.04,3.25,-14.2,-8.35,90.0,8620000000.0,1.3603188419548016,-9.155337840852322,-1.0139299192946536,-1.2887878922687634,1.1419280247594643,-0.7292757900275583,5.399815434029387,-11.646720141647794,-8.851877245366682,,,,,,,,,
167,167,8.67,-3.44,-15.0,-1.22,-1.77,2.29,-1.13,4.91,-6.63,-6.88,90.0,8670000000.0,-0.5246867951315866,-11.65723285897429,-1.1110819743037954,-1.6679434490792913,1.9075411548110623,-1.0199280952198628,5.1838707769744135,-9.555611955266711,-7.812436592646022,,,,,,,,,
168,168,8.72,-2.3,-8.38,-0.467,-2.17,1.3,-0.7929999999999999,5.85,-5.36,-6.33,90.0,8720000000.0,-1.2218228352937817,-10.254364386253203,-0.8074285872862639,-2.0635227882703617,1.5023910011936137,-0.8553331490664592,5.477546662259921,-7.8067644653205255,-7.030995946769383,,,,,,,,,
169,169,8.77,-1.42,-8.03,-0.311,-1.76,0.153,-0.802,7.64,-5.05,-5.09,90.0,8770000000.0,-1.2996437050242355,-9.302191840946596,-0.573386597404785,-1.8243717816357559,0.6025245059867502,-0.8166496691637222,6.430905902640352,-6.657668579712862,-6.007833852341692,,,,,,,,,
170,170,8.82,0.414,-8.5,0.5770000000000001,-1.53,0.403,-0.894,6.88,-5.69,-4.94,90.0,8820000000.0,-0.6267242343985948,-8.958801630222242,-0.031035139956491545,-1.5924310007329692,0.4694678752954086,-0.8727532183660541,6.628897755497463,-6.2543174741870935,-5.4449438833927175,,,,,,,,,
171,171,8.87,-0.285,-9.81,0.34700000000000003,-0.942,0.5539999999999999,-1.06,4.68,-5.97,-4.23,90.0,8870000000.0,-0.4925347923133287,-9.32316999791041,0.14719008209234208,-1.0799448335534327,0.5258397086509844,-1.0085665567761275,5.7696884816114835,-6.135805969994823,-4.804507406118877,,,,,,,,,
172,172,8.92,-2.43,-10.7,0.606,-0.8340000000000001,0.713,-0.71,4.76,-7.2,-3.11,90.0,8920000000.0,-1.2533452802609728,-9.912542583020194,0.3634966931461445,-0.8861605214738056,0.6506510305606309,-0.7920109729355161,5.32454792376618,-6.579391507382975,-3.9112773129888128,,,,,,,,,
173,173,8.97,-2.36,-12.2,1.4,-0.316,0.546,-0.4270000000000001,3.4,-7.89,-3.13,90.0,8970000000.0,-1.6879101979437887,-10.89172284745209,0.852157684799854,-0.4369209251047453,0.5808625464409828,-0.5272620924195836,4.476073860987543,-7.1256894578358425,-3.4994406582206072,,,,,,,,,
174,174,9.02,-3.81,-12.9,1.18,0.415,0.6990000000000001,0.0874,4.96,-7.69,-2.01,90.0,9020000000.0,-2.521219654135516,-11.75139574414922,1.0067193999879842,0.23432270564793545,0.659644705819223,-0.08143688188610965,4.689422058190321,-7.360909782596877,-2.714307976472049,,,,,,,,,
175,175,9.07,-2.58,-12.1,2.41,1.92,0.141,1.23,11.3,-13.0,-8.37,90.0,9070000000.0,-2.5443016913537013,-11.900621170984426,1.668298135676809,1.56249777010667,0.31377683659467903,0.8697713391996252,7.603823042499643,-9.711439143095888,-5.695607367478429,,,,,,,,,
176,176,9.12,3.64,-16.3,-3.15,2.9,-1.23,1.33,7.27,-14.5,-6.42,90.0,9120000000.0,-0.11582891855678755,-13.783840725278734,-0.6032956260171796,2.616339622426172,-0.7157194801269758,1.2035833024238554,7.456650701483928,-11.707444252918869,-6.077458355183624,,,,,,,,,
177,177,9.17,-0.0814,-16.6,-0.287,2.64,-1.12,1.11,7.54,-13.0,-6.91,90.0,9170000000.0,-0.1023092529360492,-14.989339969239788,-0.4541775898609111,2.6349821370674307,-0.9853214692437751,1.1357056996587922,7.493396831941909,-12.246217373487074,-6.51631808864619,,,,,,,,,
178,178,9.22,0.517,-13.9,-0.12,2.34,-1.27,1.4,7.11,-6.97,-8.1,90.0,9220000000.0,0.14088322953365776,-14.523031545884006,-0.2966290741571937,2.4025604011877038,-1.1751646309359065,1.3274029810210417,7.324368996119634,-10.046943401305748,-7.351128600080953,,,,,,,,,
179,179,9.27,0.414,-6.71,-0.948,1.79,-0.882,1.11,7.26,-4.24,-8.25,90.0,9270000000.0,0.2481316584951843,-11.178546599899066,-0.6037188581751726,1.919913144540694,-0.9796623621407684,1.1697167903417165,7.295990782469443,-7.6264480782491235,-7.824952988015886,,,,,,,,,
180,180,9.32,1.0,-3.12,-0.797,1.12,-1.17,0.732,7.07,-4.9,-8.94,90.0,9320000000.0,0.5433778893918175,-7.728965199140991,-0.6948415314487173,1.2896473655649277,-1.1065925283813938,0.8522331084919488,7.196358459036006,-6.489988864693933,-8.412730359945844,,,,,,,,,
181,181,9.37,1.26,-3.46,-1.17,0.24,-1.15,0.544,7.48,-5.01,-9.44,90.0,9370000000.0,0.8247835060920832,-5.901570838611399,-0.9188556675054242,0.462611547554804,-1.1355395924861398,0.6286662418951718,7.321407316365838,-5.873088512409231,-8.954237420535389,,,,,,,,,
182,182,9.42,2.08,-3.62,-1.37,-0.918,-0.688,0.241,4.48,-11.1,0.231,90.0,9420000000.0,1.3176861804065405,-4.924910281422613,-1.131548326408769,-0.6251968136267706,-0.8370895047641197,0.3474851044471724,6.068718057118704,-8.051810494024437,-4.11239964246018,,,,,,,,,
183,183,9.47,-0.8759999999999999,-10.4,8.42,-1.69,-0.221,-0.469,-2.58,-18.2,0.127,90.0,9470000000.0,0.4562619961702417,-7.268604127754347,3.371543164753528,-1.4641742130610578,-0.4262387573016992,-0.24472589273341014,2.2557637752173125,-12.281857941997346,-1.8776740266472447,,,,,,,,,
184,184,9.52,-7.56,-17.8,8.57,0.6940000000000001,-0.929,-0.0396,5.19,-6.14,-4.85,90.0,9520000000.0,-2.6915911487276025,-11.776725254414913,5.8223631136022975,0.23628960924083156,-0.7615144587515509,-0.09594447931816504,3.5493784844007648,-9.721760979910336,-3.4444837949927414,,,,,,,,,
185,185,9.57,0.424,-5.26,3.68,0.637,-0.19,0.8290000000000001,8.66,-12.2,0.3720000000000001,90.0,9570000000.0,-1.468150166550527,-8.98714367862892,4.812342915777734,0.5520164667526811,-0.3803894078530857,0.5749339964231835,5.802494570793554,-10.75475972725255,-1.4326908927280604,,,,,,,,,
186,186,9.62,4.44,-9.67,6.17,-0.999,1.85,-0.546,3.58,-12.4,-11.9,90.0,9620000000.0,0.8518824626306171,-9.279450568726393,5.452412373595295,-0.6700569823905346,1.1069872789745163,-0.2380991243778311,4.822664901251354,-11.440541390680766,-6.950350205034439,,,,,,,,,
187,187,9.67,-2.17,-11.7,-4.03,0.141,0.743,0.152,8.72,-5.25,-10.4,90.0,9670000000.0,-0.3347607042357341,-10.315602859675222,0.9819150657522266,-0.031010769699818086,0.8642555709514388,0.044846619505019,6.5408804337608055,-8.860151871237953,-8.768772753673728,,,,,,,,,
188,188,9.72,2.56,-4.97,-2.73,-1.41,1.55,-0.851,2.75,-16.7,-8.28,90.0,9720000000.0,0.8019638035000196,-8.027337546090564,-0.7680727403783405,-1.1175408655103771,1.3215569692951294,-0.6049266780998153,4.869597613100944,-12.128018546778788,-8.511124576866296,,,,,,,,,
189,189,9.77,-4.19,-17.4,-1.39,-1.87,2.15,-1.09,6.46,-6.34,-5.97,90.0,9770000000.0,-1.1582976322988263,-12.039445672627211,-1.0612812515464858,-1.7104167941228998,1.8740196803231892,-0.956758903526144,5.570757224267652,-9.715411787506321,-7.17161494643325,,,,,,,,,
190,190,9.82,-0.946,-7.99,0.242,-1.94,1.26,-0.855,5.88,-4.94,-5.89,90.0,9820000000.0,-1.0749318643613155,-10.30601981305326,-0.4468473963126289,-1.8913095272978624,1.4645492268801108,-0.8829513971268228,5.707092922211323,-7.7248875987166175,-6.496033900157814,,,,,,,,,
191,191,9.87,-1.63,-7.52,-0.134,-1.71,0.459,-0.875,6.94,-5.9,-5.41,90.0,9870000000.0,-1.2928979157078857,-9.113422371389772,-0.2993550344523928,-1.7484525585425934,0.7939800119118192,-0.8771841091157739,6.250643833461129,-6.96422382302598,-5.923549982697463,,,,,,,,,
192,192,9.92,-0.517,-9.2,0.0503,-1.46,0.0672,-0.728,8.17,-5.67,-4.57,90.0,9920000000.0,-0.988215677135828,-9.150483138052412,-0.13450965684726662,-1.521175691311215,0.30931323831060226,-0.7689782434708803,7.096829085521533,-6.424755433894654,-5.210049797007523,,,,,,,,,
193,193,9.97,0.826,-9.66,0.56,-1.2,0.331,-1.03,4.72,-5.83,-4.35,90.0,9970000000.0,-0.2758032721726137,-9.36858938304756,0.19291793972233634,-1.2681156937262958,0.32377545896401605,-0.9583018878618366,6.048958006932784,-6.176844825069412,-4.7566894899772105,,,,,,,,,
194,194,10.0,-2.51,-10.5,0.35700000000000004,-0.997,0.555,-0.924,4.81,-7.06,-3.45,90.0,10000000000.0,-1.1531352779819242,-9.85290661284214,0.2702746643365648,-1.0544988038086016,0.4779718506392257,-0.9334221440302032,5.502739426759025,-6.544968397138914,-4.067890930726675,,,,,,,,,
195,195,10.1,-2.36,-12.1,0.929,-0.419,0.507,-0.473,5.09,-7.16,-1.68,90.0,10100000000.0,-1.6270510019665672,-10.81480869578514,0.580831698564003,-0.5537780019414565,0.4973298314791813,-0.599469867884862,5.320775349973436,-6.8013305807117055,-2.809155828395109,,,,,,,,,
196,196,10.1,-2.16,-12.3,2.44,0.187,0.8340000000000001,-0.0372,3.6,-7.52,-1.75,90.0,10100000000.0,-1.836331270312176,-11.450567119624253,1.4573393456524175,0.029894156052902576,0.7218445910659811,-0.1916456559238271,4.5621382760105345,-7.100891939117326,-2.25084029831792,,,,,,,,,
197,197,10.2,-3.97,-12.3,2.31,1.74,0.721,0.97,11.4,-9.72,-6.06,90.0,10200000000.0,-2.6741876130976427,-11.814179645202564,1.8593274336451515,1.3773169502125135,0.7212813702944026,0.6509163646423486,7.576741451049236,-8.192609004413447,-4.2587723976660765,,,,,,,,,
198,198,10.2,3.63,-13.4,-1.33,3.16,-1.32,1.29,8.62,-15.9,-5.71,90.0,10200000000.0,-0.198637622928719,-12.493013593662212,0.3557143212239389,2.781924674817648,-0.6399851225889223,1.11445492389978,8.036682071591326,-11.405263392421976,-5.023761748275122,,,,,,,,,
199,199,10.3,1.0,-18.5,-0.12,2.18,-0.649,1.03,6.37,-11.9,-6.43,90.0,10300000000.0,0.2720474968521057,-15.064393932630262,0.13143810864219874,2.3076575786528317,-0.6459968539901141,1.053198263300902,7.3018930552434504,-11.611483186810293,-5.765035636438536,,,,,,,,,
200,200,10.3,-1.11,-13.3,-0.268,1.83,-1.16,1.59,7.11,-9.02,-7.32,90.0,10300000000.0,-0.2706596448963656,-14.30911881275962,-0.0568775761555731,1.9313027172601058,-0.9887693921937296,1.442550016646916,7.217293356282799,-10.53128123808968,-6.584708082606968,1.2228868759308946,0.42739156303452996,0.9412578490628729,2.3864794770803006,2.3227135211460856,2.519008881731878,0.6019332108239805,0.3565428218955182,1.8615980546098605
201,201,10.4,-0.0215,-9.45,-0.603,1.5,-1.39,1.36,8.47,-4.54,-7.89,90.0,10400000000.0,-0.1728187839759723,-12.229100276824694,-0.3143477861883693,1.5914716411689227,-1.2563374779885534,1.382675049867567,7.769573380892986,-8.0339488663995,-7.272769890590276,1.2347803733876033,0.3993586478902516,1.00464377571392,2.2933677507872083,2.1333930294728294,1.9170277380336667,0.5992090576988609,0.33332271819872683,2.0280058885075904
202,202,10.4,1.92,-4.12,-0.608,1.12,-1.76,0.959,7.31,-4.41,-8.18,90.0,10400000000.0,0.648996434379022,-8.757878618853459,-0.4527905434867629,1.21999075980029,-1.5922141946005928,1.0753760876587553,7.566961558818553,-6.52338630370225,-7.75100058737921,1.2434361416024768,0.395300734844155,1.0731991297647416,2.473855552526591,2.153881127539479,1.6639132579945068,0.5528761142859528,0.33161182180485543,1.9392497028528817
203,203,10.5,1.33,-3.5,-0.426,0.447,-1.32,0.42,6.75,-4.99,-9.35,90.0,10500000000.0,0.91641525965492,-6.507165067889581,-0.44016010205182216,0.6109376000300444,-1.4106831296202602,0.6000202893728614,7.206788284495995,-5.884228225558844,-8.593885452568218,1.1998507035056571,0.4211880427698644,1.0255123982741101,2.623641119113119,2.3317525652267075,1.8204217612884328,0.5061195146194668,0.33257904092590923,1.9017669836302602
204,204,10.5,1.21,-4.02,-1.31,-0.289,-0.7859999999999999,0.276,6.66,-7.69,-4.52,90.0,10500000000.0,1.0317011342069955,-5.442496867935449,-0.8502473696142845,-0.09813923239832767,-0.9941015718933764,0.3650026767059399,6.965726046474638,-6.6369240585823075,-6.446407748536824,1.1330161462706327,0.4431539528506719,1.0115610908539439,2.7575250290696123,2.482829864203575,2.005884302611035,0.48760151005369623,0.33714387707089477,1.9085285379778631
205,205,10.6,0.903,-7.64,4.24,-1.37,0.106,-0.39,-3.39,-17.5,3.25,90.0,10600000000.0,0.9811623316882038,-6.38317088033764,1.5495571040624143,-1.1002609386059368,-0.2604783731538578,-0.18261401677873468,2.4002042594718658,-11.164955702202908,-1.3351154468440996,1.1139963299915392,0.4416916518426147,1.0022436411927198,2.8599554530794595,2.846251693898495,2.2201930442637168,0.5138834461308853,0.33819682038653387,1.941431315569011
206,206,10.6,-8.55,-17.4,11.6,0.0119,-1.31,-0.28300000000000003,4.51,-9.31,-4.59,90.0,10600000000.0,-2.7615671536051116,-11.099089129341538,6.287853314977906,-0.22396956940901455,-0.9603713572224176,-0.2554257282646854,3.330348541356855,-10.391758841355463,-3.050871175234965,1.144359890772665,0.4216423048099604,1.0936220808102723,2.9004548343525465,3.1025749227305717,2.6271656136895043,0.5544395697819996,0.3219123721864855,1.9795899119588751
207,207,10.7,-0.376,-8.88,3.9,0.521,-0.636,0.7809999999999999,5.5,-11.0,-7.55,90.0,10700000000.0,-1.8247944826821323,-10.149174899917767,5.162096415465171,0.3630052158050838,-0.7440582680885941,0.4963120715368058,4.286881271156662,-10.645290642858775,-5.422508599900518,1.1810938566425133,0.39978178748424065,1.1621315009785196,3.111261092811644,3.0995269697771133,3.0917715555978225,0.5495662743881882,0.3474676686701256,1.9249840065932282
208,208,10.7,0.414,-10.3,0.8140000000000001,0.0345,1.07,-0.149,7.7,-9.09,-11.3,90.0,10700000000.0,-0.9456570092534878,-10.213737920572687,3.1121799936989523,0.10417011735846687,0.4656802718162532,0.02825588758735686,5.7916204675753065,-9.99700238703262,-8.52072582638097,1.1282640247213895,0.43285033026811287,1.1316600085997188,2.7579025975489486,3.2146825874222644,3.2845834934107785,0.5296144856538092,0.3528482871278321,1.920623216969674
209,209,10.8,2.09,-8.36,-3.29,0.498,0.746,-0.0769,8.33,-9.54,-9.24,90.0,10800000000.0,0.2463951300107245,-9.420217542310413,0.0938628719872221,0.4144756778885888,0.6526166922352149,-0.04801552332720406,6.910714053214606,-9.806511088473725,-8.89987854684058,1.0572085703050533,0.43760629014812624,1.1284670020477063,2.487958532928558,3.1421929161475144,3.223106852290528,0.5468827132702972,0.33472958709482886,1.9236037993144282
210,210,10.8,2.3,-9.3,-1.51,-1.39,1.23,-0.853,4.53,-13.3,-8.42,90.0,10800000000.0,1.0528116926809368,-9.368756707653283,-0.6622806247937101,-1.0073027667997412,1.037655505412153,-0.6318848939668198,5.861130396616735,-11.262694335924882,-8.646918977084116,1.0460503849816423,0.4086528912920511,1.150162616429247,2.4075061135073184,2.7143883663405206,2.6882780831584716,0.5749436799747915,0.3298148099797576,1.9091219747884562
211,211,10.9,-2.07,-13.9,-1.2,-1.54,1.7,-0.92,5.65,-8.2,-6.58,90.0,10900000000.0,-0.1734646531336106,-11.308422980216221,-0.9157892346818748,-1.4270243539385976,1.479352285724446,-0.8408598535338547,5.768049527524633,-9.986078227720718,-7.557378631862197,1.062926604445304,0.39298318830871626,1.2067791355038155,2.3084910318615943,2.34810822925553,2.23200554089738,0.6084186837807967,0.30397388399751885,1.885719497259115
212,212,10.9,-1.43,-9.78,0.0168,-2.12,1.38,-0.767,6.59,-5.4,-6.42,90.0,10900000000.0,-0.6668852284991154,-10.65415855846874,-0.4761186736700358,-1.9730320909439485,1.4130973624532026,-0.7872880185170458,6.130422328013106,-8.074473539012072,-6.957829354856634,1.13746495264058,0.3573677651009843,1.2390339746229684,2.3873485406061623,2.079404804958668,1.8325544005319225,0.6192048273314937,0.2724181612772523,1.9470751025758086
213,213,11.0,-0.685,-7.94,-0.359,-1.94,0.47,-0.772,7.72,-5.27,-5.76,90.0,11000000000.0,-0.6739985998407089,-9.492322433854016,-0.42090290210776776,-1.9470055645240745,0.7841753400651219,-0.7761993608575198,6.831218238374103,-6.905491099490305,-6.326414613530169,1.2097094260925696,0.341141369558339,1.434985174840465,2.2045752743699656,2.034714671582777,1.5871183857654203,0.5702781573279544,0.28417600891370354,1.7464329127133786
214,214,11.0,0.464,-8.61,-0.079,-1.54,0.382,-0.866,6.48,-5.09,-5.2,90.0,11000000000.0,-0.227125424207072,-9.114630977874976,-0.259712279603377,-1.626318616828751,0.5159772319710124,-0.8413333394527372,6.676376906267636,-6.148744069402985,-5.732644686886834,1.1844157436046632,0.3748888836593014,1.2889950865851143,2.4465647701876403,2.25089611461414,1.6681225585360882,0.5297756874730842,0.298239614242362,1.6088878627777086
215,215,11.1,-0.735,-9.17,0.0455,-1.19,0.61,-1.1,5.67,-5.36,-3.48,90.0,11100000000.0,-0.426559354613702,-9.138332548251547,-0.11581950356603485,-1.2825354694092996,0.5786780735761197,-1.028948829402643,6.232696253069992,-5.819973699051395,-4.5452023218748066,1.1817824519879716,0.3959207992263818,1.2126911098702056,2.6339677115399334,2.40605491771443,1.8222213371222094,0.5159071977593713,0.3006559927388149,1.57134065538386
216,216,11.1,-1.42,-10.1,1.33,-1.14,0.337,-0.947,5.04,-6.64,-3.58,90.0,11100000000.0,-0.8166670068553026,-9.549988841721136,0.5658142403067563,-1.170229228633554,0.4175105622858567,-0.9695099232843928,5.706873068560285,-6.161783371998816,-4.036412704598268,1.2177438034556176,0.38188340940782833,1.2146617658475791,2.7077067279461318,2.709605334853379,2.0629458329276393,0.5256562059438604,0.2993516480598995,1.5625466921838171
217,217,11.2,-1.96,-11.9,0.8740000000000001,-0.478,0.618,-0.58,3.89,-6.86,-2.29,90.0,11200000000.0,-1.2656349305118222,-10.55594608868186,0.7111088743950744,-0.6248095053680267,0.5512106543460815,-0.6869915216544823,4.905869548523804,-6.452819502768634,-3.1158216734590503,1.2549804654549739,0.3636172565905935,1.2798875965729744,2.7178804974802167,2.982786379516959,2.498747155653958,0.5727482623980047,0.28393031272825003,1.581901004260826
218,218,11.2,-3.17,-12.3,1.87,-0.000916,0.7120000000000001,-0.14300000000000002,2.71,-9.01,-1.6,90.0,11200000000.0,-2.0134475467708994,-11.302514521629215,1.2574697960327423,-0.13323272457286206,0.6584360290979295,-0.29242492003601506,3.937778084488159,-7.518723424341159,-2.316782717037621,1.3551494051962412,0.34439016396804856,1.3808270314234161,2.883293483756171,3.0406996619470466,2.9433332384235964,0.5476800337993414,0.3073550026814844,1.4592894750425927
219,219,11.3,-4.58,-14.1,2.52,1.25,0.503,0.882,10.4,-9.0,0.153,90.0,11300000000.0,-3.0212901089038957,-12.50002016787897,1.8526915017953376,0.9566409220906072,0.5547806353440135,0.5594061256183032,6.786773198382662,-8.13616062571102,-1.0148798163753092,1.288141128440576,0.38343441892916286,1.3484886178927935,2.5896832350203374,3.108818074808193,3.4007501621675535,0.5234953999451594,0.3265695630185522,1.3216278189447346
220,220,11.3,2.83,-13.1,4.83,2.8,-0.6990000000000001,1.47,6.85,-14.2,-9.4,90.0,11300000000.0,-0.723585533986558,-12.756850668339133,3.256347920212096,2.409056262396033,-0.2813263073829809,1.2198758790335704,6.814647912399306,-10.663737147594029,-5.4349495375556325,1.220523673933893,0.4096960934719633,1.2343393334661552,2.1977658798030952,2.8507630018855354,3.029893597566313,0.52880438111777,0.3163040024009317,1.3274600919993522
221,221,11.4,-0.402,-17.1,-4.47,2.28,-1.35,1.02,6.68,-12.6,-6.36,90.0,11400000000.0,-0.5973042309675873,-14.61600083551045,-0.38625002994177693,2.3073705171088177,-0.9939912568749708,1.0749023790983383,6.755285705213537,-11.470825419889042,-5.922573832286206,1.2197719810925158,0.3944855508891571,1.2569745867258733,2.0735985738297233,2.620519412846638,2.4811375537468523,0.5401118745389475,0.3028893164173545,1.350684141384188
222,222,11.4,-0.551,-14.4,0.00718,2.24,-1.33,1.49,7.02,-10.1,-7.6,90.0,11400000000.0,-0.5791213268677098,-14.523538285245644,-0.2007668657093228,2.254288096876301,-1.2180649669740646,1.3759799820979992,6.871990103865229,-10.899427485703189,-6.806799742808215,1.1907517121308777,0.36830479893554674,1.3631563335587153,1.9797208034166909,2.2584371311654725,2.168894667454889,0.5881373952501965,0.2554318063107681,1.3024917443777329
223,223,11.5,0.0575,-10.8,-0.73,1.78,-0.86,1.25,7.63,-4.68,-7.71,90.0,11500000000.0,-0.3291306872859436,-12.929622134957429,-0.4502746113938663,1.8805880537018544,-0.9792826918244276,1.2846044881065102,7.206173450108769,-8.306997368338049,-7.2829060324955694,1.2433502142957291,0.3106642492144025,1.342992986104731,1.9205492956477372,1.855813772572431,1.7874915974976564,0.6223577465504605,0.21355940176631416,1.4330251614481342
224,224,11.5,1.02,-4.49,-0.464,1.24,-1.27,0.955,7.44,-3.47,-8.45,90.0,11500000000.0,0.20065055603594056,-9.316915605141617,-0.4567454596706682,1.3758573490990993,-1.1731529245844363,1.0455365509154344,7.3092604237834475,-6.290802587733589,-7.8981191703151845,1.326429339104477,0.28351462143239026,1.537838078881854,1.9256834110201462,1.7851669596592,1.5644373227591546,0.55682817812458,0.22130192651813835,1.3550280941872714
225,225,11.6,1.25,-2.6,-0.735,0.495,-1.34,0.49,7.16,-5.01,-9.55,90.0,11600000000.0,0.612712683301186,-6.4416394179719765,-0.5879289772034882,0.6818141928019682,-1.2844180231176738,0.642596138848116,7.243456017274183,-5.756928605688336,-8.768879452055348,1.2395366242536408,0.31118093991658224,1.5119095804786924,2.211651247026907,2.00514146667426,1.7407879520086285,0.5240229242208196,0.2428796595756075,1.3070246037938609
226,226,11.6,1.6,-4.19,-1.51,-0.281,-1.2,0.32,5.7,-7.65,-5.2,90.0,11600000000.0,1.0004040516106831,-5.477791526361238,-1.0226407075950297,-0.07680421174741836,-1.2281223256823446,0.40861148740062064,6.562993552166244,-6.546013359871161,-6.887606766651404,1.2248426645715151,0.34490141598093566,1.4725630984409874,2.3526527303467173,2.1805871657013616,1.852153705440847,0.5069671873546068,0.24266857997184554,1.2875152554683185
227,227,11.7,0.393,-7.21,3.03,-1.42,-0.0861,-0.132,-0.568,-17.5,5.71,90.0,11700000000.0,0.7618865545985171,-6.219289277296632,0.8879826791964542,-1.1351320109292975,-0.4665434896556323,0.01649647967723844,3.4191573755056703,-11.111939106665455,-0.24699796069084545,1.2175769523479838,0.3408532476745872,1.445671287361764,2.7375756488990355,2.4611162118292156,2.0699709976281158,0.5174225505909373,0.2168804622507336,1.3731624377409968
228,228,11.7,-5.72,-17.6,14.1,-0.198,-0.816,-0.203,2.76,-8.91,-6.02,90.0,11700000000.0,-1.783442736124644,-11.090972813299036,7.116807785642827,-0.3967490438539033,-0.6995850547135253,-0.14270816849099982,3.1285551175390256,-10.194109691037852,-3.2901353316558573,1.2274734737071087,0.3138389938391549,1.5887707481703326,2.9178061213861954,3.0986863904671194,2.514423605532796,0.5756767249384807,0.17547556807792455,1.5240338057004748
229,229,11.8,-2.06,-8.49,2.51,0.905,-0.906,0.82,8.74,-7.35,-7.69,90.0,11800000000.0,-1.8920421655523247,-9.977587416622693,4.944921499852423,0.6289221400911599,-0.8372367132176509,0.555560971946792,5.602468819772715,-9.008605771133057,-5.609447316412406,1.3089947117337848,0.28831294150881454,1.8008360635549225,2.972215169483387,3.2327407982124883,2.9548685161747574,0.555373551381004,0.17156372193447222,1.4480068095094272
230,230,11.8,3.9,-6.7,0.8140000000000001,-0.215,0.868,-0.152,4.69,-19.5,-7.61,90.0,11800000000.0,0.3823967918161428,-8.574567039564322,2.9973925102969794,-0.036019115186693214,0.2999320939227226,0.04235457345852034,5.200189350955636,-13.381710157974739,-6.664003857181449,1.256582999963618,0.31097308888515823,1.738697391172046,2.4973050060786615,3.2413330308930863,3.3690051687418014,0.5116501457770276,0.17252154419743346,1.337265253512796
231,231,11.9,-0.7090000000000001,-18.9,0.565,0.514,1.29,-0.2,9.89,-5.2,-10.1,90.0,11900000000.0,-0.046176628388451664,-12.994522825860171,1.8506374957987977,0.39735071954532414,0.9601772709354052,-0.13342945805501338,7.267783061873372,-9.971346136063985,-8.475229523293496,1.1710280441956966,0.32664828030197257,1.6204970040401219,2.1061626068462016,2.817786611514712,2.9576236347147935,0.5100572199020471,0.15087784486329997,1.2817767692417121
232,232,11.9,4.13,-4.89,-2.16,-1.19,0.875,-0.35,6.25,-13.9,-8.89,90.0,11900000000.0,1.5937387328711796,-9.525260606045011,-0.04018346919376037,-0.8533511680506602,0.9033752231689558,-0.2905118721022968,6.8190737511499915,-11.608917978639731,-8.693868730138137,1.1805643030977067,0.30159299436505926,1.5984071680244203,1.9552615454622657,2.350043799916082,2.389471865450303,0.5188090296829106,0.12742161004254018,1.285089659796498
233,233,12.0,-0.0862,-14.5,-1.43,-1.58,1.96,-1.14,4.7,-8.46,-6.8,90.0,12000000000.0,0.9340546481723928,-11.654772178704688,-0.6954144845318421,-1.4258907306446795,1.6080051385499314,-0.9066605230763763,5.884839095991888,-10.296361557732023,-7.695548946470756,1.1628481401622166,0.2655349335165373,1.675573974204233,1.905508589739838,1.8257869685107684,2.165602838882556,0.5537673002907656,0.09343709161042757,1.2617507281909985
234,234,12.0,-2.21,-9.95,-0.00239,-1.91,1.47,-0.735,5.63,-5.8,-6.98,90.0,12000000000.0,-0.30056349522597997,-10.925018878685927,-0.36868707576856896,-1.8073290013162613,1.5159738635311089,-0.7821521406604888,5.772488411410137,-8.422153307627564,-7.318359803961557,1.1925251902237808,0.21964747100311924,1.6487272222636193,1.8831774348219157,1.4934412377132549,1.7196233960200873,0.5815667966101924,0.06618564896935754,1.3282884405982809
235,235,12.1,-1.55,-8.25,-0.7609999999999999,-1.94,0.6990000000000001,-0.836,6.09,-5.46,-5.78,90.0,12100000000.0,-0.7911964748809593,-9.779937054667805,-0.5536435682215965,-1.9118628841085807,0.9711596442394832,-0.8212089572663187,5.912469591946009,-7.187445586739451,-6.507440362994673,1.2568436175441546,0.19703787678265644,1.7977273120950343,1.845102289911331,1.509813593420858,1.4608395324700516,0.5068814015631665,0.09540332801525728,1.2733086789253143
236,236,12.1,-1.09,-8.72,0.0455,-1.63,0.256,-0.713,7.55,-5.4,-4.85,90.0,12100000000.0,-0.9085316778080604,-9.326215266083718,-0.2711764554423135,-1.6897781046624576,0.4942421387131721,-0.7427230994068258,6.6344065682978615,-6.442388681142304,-5.6337495204639785,1.1509356591537951,0.2312790064248481,1.8439241564905098,2.2269617028838757,1.763023250199074,1.6150046900225161,0.4659214242599141,0.12673447060261026,1.1497285755083766
237,237,12.2,0.227,-9.42,0.725,-1.27,0.341,-0.979,5.89,-5.34,-3.86,90.0,12200000000.0,-0.4626272170584317,-9.366361256228457,0.1984724054995669,-1.3590274606253754,0.3920497613853821,-0.9140988658087702,6.306220503329133,-5.982882536862574,-4.698748328229393,1.1246037309279686,0.2568009093752177,1.7781188566406891,2.4323079272882904,1.982925658960255,1.7036973570139329,0.4449957325880065,0.12163022505735455,1.0840793597862315
238,238,12.2,-1.07,-10.0,1.24,-1.04,0.374,-0.98,4.02,-5.47,-4.71,90.0,12200000000.0,-0.7011324586012152,-9.637599793745958,0.689502120663168,-1.1076600245489097,0.3800129507923405,-0.9618981298973138,5.298296051451628,-5.769098768902474,-4.704679470955036,1.1161067909600575,0.2289295377414848,1.70513811443135,2.845378877689313,2.139550875811379,1.8951179402377998,0.46284021073688436,0.11709324563118877,1.2050694461410494
239,239,12.3,-2.85,-10.6,0.012,-0.498,0.473,-0.635,4.13,-7.46,-3.43,90.0,12300000000.0,-1.5449570740484235,-10.049569753736748,0.3700927531233728,-0.6272980530645917,0.4420230878154944,-0.7247931670433778,4.7832302341328665,-6.473913362362651,-4.032754445237568,1.1258155384180113,0.2144323499865273,1.8958617955997912,3.0493644888833615,2.5239071320671873,2.243830016852756,0.5463359050031259,0.09412088924818056,1.2958827494319192
240,240,12.3,-2.7,-12.9,1.07,-0.204,0.282,-0.281,2.72,-9.3,-2.1,90.0,12300000000.0,-1.9985232978994316,-11.269738872848494,0.7000650750264579,-0.2937739911472074,0.3353087181242533,-0.4029021788021971,3.8736153681911274,-7.651904812988441,-3.0139365839583014,1.2616973488041858,0.19122326893370642,2.059074549495533,3.1154132753527035,2.953067786736479,3.1435651395257023,0.5490979772425592,0.10534411021138361,1.2081016117793786
241,241,12.4,-4.24,-14.6,2.3,0.7879999999999999,0.773,0.35700000000000004,5.57,-8.31,1.23,90.0,12400000000.0,-2.8787139427625785,-12.695307100846444,1.4543567174473848,0.5585749521221723,0.6271912935505077,0.1482682151517256,4.621499356833744,-7.926217332518848,-0.7768193906119674,1.2581371545703803,0.21404145082738346,1.9602276463939985,2.6028712177444735,2.975686691085122,3.4948370254514654,0.5063321901310619,0.12497212703362677,1.1376703974377285
242,242,12.4,-1.77,-12.9,5.85,2.29,0.0641,1.34,9.46,-12.2,-12.3,90.0,12400000000.0,-2.443340353658648,-12.782928793306198,3.526689139361113,1.922795488375325,0.2516833868488489,1.0126522369810604,6.7546457875185775,-9.707648521715976,-6.851063259282738,1.197508547529057,0.23754966341003783,1.911317893379998,2.2179412505516902,2.6948539794891913,2.763012950631081,0.4876488887779124,0.11928034247597008,1.0891927934139143
243,243,12.5,2.14,-15.6,-6.77,2.49,-1.57,1.29,5.78,-12.9,-5.11,90.0,12500000000.0,-0.6435385524571899,-13.988818403381979,-1.3277000350255848,2.3697060110229837,-0.9631401053594516,1.213817413746029,6.324954469440463,-11.038309088011859,-5.9332921854700045,1.2047520875660986,0.22672034320934342,1.858052930240811,1.8522132728284875,2.29234404601943,2.1019800950427485,0.4814772446506342,0.1149435344032487,1.0379966356816548
244,244,12.5,-1.33,-15.2,1.24,2.4,-1.08,1.03,6.58,-11.2,-7.93,90.0,12500000000.0,-0.9131005974660462,-14.507282711995316,-0.11715408634422643,2.393575258467957,-1.0410703287880465,1.0804913938511431,6.4373961815043295,-11.105706269644664,-6.985821809677013,1.2046850630747372,0.20525647524012436,1.802348863065742,1.6739834157991997,1.80765751601448,1.931778359341137,0.49988172268539466,0.08452059127471957,0.9883292203923281
245,245,12.6,-0.215,-12.4,-0.955,1.94,-1.26,1.45,7.26,-6.45,-8.0,90.0,12600000000.0,-0.6389680695288595,-13.605228678801774,-0.5121577622369629,2.0361952964139376,-1.1870676466570185,1.3485025112984894,6.8000570558340945,-9.165078560725588,-7.520428161965031,1.2574895329183673,0.16051219577643325,1.6347961148587857,1.566033833197639,1.3416296237435517,1.4566988170949666,0.5248036176526132,0.04531478067669813,1.0406827135144887
246,246,12.6,0.843,-6.53,-0.5820000000000001,1.55,-1.15,1.25,7.23,-4.0,-8.11,90.0,12600000000.0,-0.05702378336140568,-10.576571354110358,-0.5450849956692053,1.653113344079316,-1.1623483809756263,1.2770569095496331,6.9896057110557885,-7.012130418700577,-7.831210497069982,1.37400027289113,0.12922548435728062,1.832914582169037,1.4253933713119733,1.0674057466937732,1.1424666005682351,0.4578672736811248,0.0818824577862141,0.9569668295522303
247,247,12.7,1.32,-3.34,-0.311,0.879,-1.28,0.785,7.12,-5.19,-9.28,90.0,12700000000.0,0.4837106443777015,-7.478848758539073,-0.4347252764902918,1.0431756890340766,-1.2408065328407047,0.9201594085591204,7.047092500093153,-6.252615896287412,-8.594914485214929,1.292503750740336,0.17260280201376793,1.9323273656420268,1.877448899497724,1.3806387927540942,1.3913173016402987,0.4367785956507027,0.1218801674973161,0.8174415074271131
248,248,12.7,1.71,-4.22,-1.15,-0.00153,-1.18,0.546,6.75,-5.2,-8.31,90.0,12700000000.0,0.9652541560705338,-6.083849736061901,-0.7719425818024401,0.2200335100065696,-1.2002565301887629,0.6487750197798959,6.91611353617474,-5.813856287469015,-8.44472700260252,1.335697646674252,0.20588044784360937,1.902824719526386,2.102031506642771,1.486516832547359,1.5264955261551536,0.412085689017461,0.11942330362635246,0.7334207767644829
249,249,12.8,1.69,-4.41,0.0455,-1.13,-0.469,-0.00298,2.7,-11.6,2.68,90.0,12800000000.0,1.2498498543599914,-5.367333266253212,-0.38655807917808616,-0.8436818817227391,-0.7126045164817332,0.17604565506831935,5.057358514382361,-8.22568178638608,-2.5805210716347986,1.3515218480741615,0.1883809329523671,1.7372293075079523,2.4506057588881576,1.7460801611416947,1.7462578853393746,0.411701924181499,0.11169663333067156,0.8385202885392434
250,250,12.8,-2.25,-11.6,11.1,-1.46,-0.652,-0.7190000000000001,-0.266,-15.1,-2.47,90.0,12800000000.0,-0.1244831520488172,-8.035319606706942,5.0287967393396436,-1.3292899104471951,-0.6721892738534888,-0.4731466678634022,2.710453146845485,-11.091088628309159,-2.522261830580113,1.378780208695513,0.1719366450751192,1.8529612563798517,2.8847933176950424,2.3785033877116577,2.2606539241942984,0.4936158999690805,0.08751211817518806,0.9292963536773329
251,251,12.9,-4.85,-15.2,6.2,0.335,-0.275,0.328,8.52,-7.28,-6.93,90.0,12900000000.0,-1.9801152264714037,-11.102268083303144,5.580962142920941,-0.017966305477515432,-0.4073162212255168,0.1079390899243804,5.271704229859965,-9.50252116834942,-4.845724073514484,1.570224628113287,0.153337406579298,2.0060056720573884,2.9721613648582212,3.003335094219215,3.0686329095558005,0.48911559955898565,0.08945125366305219,0.8740574389065691
252,252,12.9,3.92,-7.14,1.73,0.581,0.6459999999999999,0.52,3.67,-14.6,-3.05,90.0,12900000000.0,0.3367622224587425,-9.4061599350155,3.7654204064859487,0.4539698682129874,0.2951073153016115,0.4068140924672728,4.565562033499852,-11.627292025533974,-3.899139408896877,1.5903594082942623,0.1785190626722566,1.9351409964115882,2.313305059295113,2.9633364433634206,3.2803103556096422,0.4427223924553212,0.11802981934978041,0.7629844427651096
253,253,13.0,-1.55,-14.5,5.26,0.028999999999999998,1.23,-0.541,7.52,-7.28,-10.6,90.0,13000000000.0,-0.404137998962661,-11.586654330529589,4.4700422538912745,0.11912855577666735,0.918557907613106,-0.2806521244131435,5.868083036870363,-9.815220103012779,-7.431381450697678,1.532950307649804,0.21090640097815666,1.7549988111380808,1.8028948518520436,2.4169393707314364,2.620968787989018,0.4470790248648988,0.11845026887262157,0.7109543044122094
254,254,13.0,1.83,-7.26,-2.6,-0.677,0.6679999999999999,0.0801,8.15,-10.8,-10.4,90.0,13000000000.0,0.4731709655923265,-9.734565356471924,1.1368605179123414,-0.5081552713133107,0.7514686940790622,-0.018992271640872138,6.874110013385582,-10.225703783994131,-8.996236764274768,1.6762886335177172,0.20663317004133008,1.7844800509014793,1.5239054549283866,1.9127121075478857,2.0275860675600046,0.3792733216205991,0.12004718091137903,0.7193236372209673
255,255,13.1,2.13,-11.6,-2.66,-1.56,1.49,-1.12,5.35,-10.5,-7.89,90.0,13100000000.0,1.1237803002774076,-10.533092708197046,-0.6531749775897937,-1.3369223814671258,1.2439720414739208,-0.8175725208801089,6.202176649603403,-10.340038062102645,-8.413103269257352,1.5426283439209416,0.18834495130083104,1.8782144076575782,1.472494068281875,1.271278095004463,1.7821521610571618,0.3746992695372415,0.09081584383844743,0.7090028099191137
256,256,13.1,-1.23,-12.2,-0.826,-1.86,1.58,-0.825,6.79,-6.28,-6.68,90.0,13100000000.0,0.19948979716068085,-11.246637213982911,-0.7346535759706143,-1.7490645445765736,1.4680585657206893,-0.8229597933110797,6.461329904503492,-8.647701566562434,-7.499528004547408,1.5446064068852379,0.14597228904285364,1.6658319196063058,1.355203896499582,1.070005953355579,1.4371314345325024,0.39452257467920726,0.040508073127595516,0.7889709941672222
257,257,13.2,-0.165,-8.89,-0.275,-1.78,0.95,-0.878,5.24,-4.71,-6.15,90.0,13200000000.0,0.05636069488677525,-10.237843568485527,-0.5179492268192883,-1.7734391171506867,1.1225815652268132,-0.8628814372815926,5.922882937908947,-7.0063582472344565,-6.788147894304832,1.723701258435347,0.10764045437141685,1.9079555136605666,1.091016624644268,0.8335790214826158,1.0366422027121227,0.34970151889029455,0.07692254141520481,0.6942794096412782
258,258,13.2,-1.81,-8.12,-0.256,-1.5,0.7290000000000001,-0.664,6.03,-4.81,-5.05,90.0,13200000000.0,-0.6765281811921857,-9.331268917086438,-0.3944528857110707,-1.5579915771559367,0.8601143577964374,-0.7186292189213653,5.970107655082054,-6.0908551285107135,-5.871913634477767,1.6843780565255237,0.14429875355089927,1.9460400275654324,1.7936144548621737,1.2534316577633866,1.350750071839925,0.29948256219086583,0.12113367716961618,0.5986426720460338
259,259,13.3,-1.05,-8.86,0.4,-1.35,0.409,-0.728,7.79,-5.22,-4.05,90.0,13300000000.0,-0.8231843531357864,-9.129535064434855,-0.019906905752147874,-1.3941113358497503,0.5592803619414541,-0.7254260003240814,6.7724423108179375,-5.7278584459698,-4.911523725053959,1.6614883030891738,0.18544909506625823,2.0338316727425516,2.1440282589682393,1.2629337059123582,1.5089276695185296,0.3032277447333822,0.12883001880399036,0.5161511591722046
260,260,13.3,0.85,-9.93,1.02,-1.19,0.241,-0.988,4.19,-5.09,-4.13,90.0,13300000000.0,-0.16615259155227668,-9.472186178127554,0.4703587198378045,-1.2332884319284,0.3470291790475002,-0.9158755170489804,5.633922790300682,-5.461981400448365,-4.499557178461452,1.8096479258902802,0.15890334455090058,1.770358903366937,2.391385107941546,1.523269656415489,1.6826737623080543,0.26719924484209046,0.1213430143455971,0.597392184991967
261,261,13.4,-2.61,-10.4,0.524,-0.7829999999999999,0.546,-0.8109999999999999,4.38,-7.28,-2.91,90.0,13400000000.0,-1.125810905950811,-9.869350592610784,0.49564797480494,-0.878498167822408,0.479716575208937,-0.8398074546716109,5.081106772170235,-6.219782113788968,-3.6616498687270096,1.7519859931231232,0.1472621584692613,1.9015774207331575,2.827669170747966,2.063805298677369,2.154017592347194,0.31485409922564983,0.09141465968748685,0.7079916066375284
262,262,13.4,-2.37,-12.9,1.43,-0.366,0.42,-0.28800000000000003,3.79,-7.18,-0.901,90.0,13400000000.0,-1.6143832882076017,-11.166665218017616,0.9361495815411878,-0.4746917505882572,0.4398934573153658,-0.43957180570609616,4.511897410539325,-6.620027515707649,-2.2064214304598115,1.982483529159188,0.12334866851323432,2.076496641713292,3.222363357156575,2.9299151622693302,2.793906398403621,0.2937168369091719,0.08378132824027762,0.6621444007755252
263,263,13.5,-3.08,-12.8,3.27,0.5870000000000001,0.904,0.155,2.13,-6.87,-3.46,90.0,13500000000.0,-2.1899066394159616,-11.865838672341207,2.0364467723237842,0.3618340579776563,0.7493915290776136,-0.00831842986046566,3.4617920059760365,-6.724222939436816,-2.8672235391587724,1.968238152066887,0.1368204754793843,2.0500066762410594,2.3559783562814713,2.8889136165596523,3.225933059218141,0.26191564762746977,0.11620234790096858,0.5447619990461869
264,264,13.5,-5.11,-11.9,0.8,2.19,0.574,1.13,13.0,-12.3,-8.36,90.0,13500000000.0,-3.33657893615453,-11.880461776082285,1.4535221352597236,1.8022785391593656,0.6324284255534146,0.8173239196636961,7.666895131446612,-9.048361697907332,-5.762644710842722,1.9518831841692352,0.16683531045179045,1.8667729653559353,1.7698418790318133,2.4793401941803928,2.691795550325546,0.23739448304514824,0.12285248610532741,0.5068003750307418
265,265,13.6,5.67,-16.1,-3.17,3.13,-2.08,1.5,7.0,-14.2,-5.12,90.0,13600000000.0,0.20015530294908807,-13.686698360530418,-0.7262441866233262,2.8484139647456246,-1.1764048813336885,1.3124808726816624,7.372881538603566,-11.195707487489074,-5.423885694784368,2.027373138425573,0.16220343149641292,1.9013423560838145,1.4299755151881537,1.9068436347781386,1.886670331585714,0.19166805267630446,0.12571363468761346,0.5412605345060495
266,266,13.6,-0.0359,-16.9,1.14,2.53,-0.491,1.05,5.7,-10.7,-7.42,90.0,13600000000.0,0.10746029935053726,-15.06220000463011,0.15359936318472334,2.597529920490104,-0.71932988267594,1.122098850376961,6.6353593339094425,-10.989082764888565,-6.47610259160862,1.9556963316091036,0.14504447494583844,2.0985960409615423,1.296267362916773,1.2834386797517083,1.792368585831842,0.21013276839991232,0.091386248803822,0.47841701936550074
267,267,13.7,-1.28,-12.2,-0.69,1.99,-0.632,1.43,6.48,-6.43,-7.51,90.0,13700000000.0,-0.4373723433366459,-13.836992419544368,-0.2441167916636299,2.118846306557867,-0.6610923451202456,1.3454249247736965,6.566866180814338,-9.08873042325753,-7.021103706576202,2.126057481206154,0.08703687961532114,1.7693236616139225,1.1767925515888165,1.0058840988078666,1.3842767843404042,0.2386510369022626,0.032212793797828876,0.5094564990786516
268,268,13.7,-0.268,-6.88,-0.412,1.41,-1.12,1.38,7.49,-3.47,-8.32,90.0,13700000000.0,-0.37086263511138784,-10.85894785250143,-0.3232655764723694,1.5603336776225056,-0.967123455502854,1.3705028307256633,6.973847444825945,-6.746687602132269,-7.705794082394347,2.4032262649712197,0.036226531793351044,1.8885742011791569,0.914948495690731,0.769465355896989,0.8991173464267419,0.15574466596333564,0.07249077295273412,0.3961857495834045
269,269,13.8,1.34,-3.2,-0.682,0.6920000000000001,-1.92,0.858,7.19,-4.47,-9.44,90.0,13800000000.0,0.30096476680109185,-7.580420739186812,-0.4923914373615603,0.8761581187300411,-1.6025668779555762,0.9987755107488636,7.069142496740129,-5.79770091450288,-8.619950277276077,2.221176601274773,0.08578082544000619,1.8715785062630639,1.4604277232796543,1.1240719227695382,1.1563934161791276,0.1301746191403219,0.12862809261039226,0.2510034750033573
270,270,13.8,1.69,-3.94,-1.34,-0.133,-1.38,0.495,6.76,-5.55,-8.4,90.0,13800000000.0,0.8464158936006656,-6.022084239989057,-0.8919977520278123,0.08102450107423997,-1.4541440115631703,0.6333782868949092,6.9328511600864875,-5.694452375928923,-8.50400712204219,2.2368834554576282,0.13714169842861054,1.9166752075335167,1.7463149913580098,1.1558340556910547,1.3489166675062527,0.12451348489103119,0.13170388616911988,0.19427444606606303
271,271,13.9,1.64,-5.22,-0.0431,-1.07,-0.486,0.114,2.52,-10.5,0.5670000000000001,90.0,13900000000.0,1.1580432080602734,-5.678739999651669,-0.4917836626014038,-0.8258882007910999,-0.8085191669956434,0.2566640920070932,4.987360529419967,-7.69753804191018,-3.722383872474072,2.274915724619102,0.13014425835082877,1.8126523438619,1.9370355184257217,1.427646383170629,1.483508804279472,0.10839578957711038,0.12236559103239986,0.2647701541957155
272,272,13.9,-2.53,-10.7,8.97,-1.22,-0.316,-0.327,-2.97,-14.1,-2.57,90.0,13900000000.0,-0.2901901966570162,-7.8281653317396405,3.9689882361912328,-1.1364159141309345,-0.4800736073264239,-0.16667772091545174,1.4792045137371552,-10.366262096400348,-3.114924769067868,2.124987558640146,0.11357933513054837,1.831724334248693,2.327669101921546,1.4997755687059355,1.9545823797657174,0.19411516704852055,0.0928216016155868,0.39390909391604556
273,273,14.0,-7.6,-14.5,6.07,0.516,-0.942,0.349,5.02,-7.19,-4.93,90.0,14000000000.0,-3.1606312642140253,-10.684143909069117,4.959513391962722,0.16555193012484182,-0.7881177972264721,0.2073523935211642,3.040232549093353,-9.04230789600649,-4.071709943334598,2.5227819859071277,0.09580702299085875,2.0275036023714494,3.221744333739923,2.8201750342939755,2.794269738130536,0.19462476457827116,0.07784163614811358,0.36158148900338494
274,274,14.0,0.6559999999999999,-7.16,3.85,0.624,-0.395,0.722,4.1,-10.6,-5.06,90.0,14000000000.0,-1.6619034436278568,-9.175581355593902,4.436431632495067,0.5267713221159105,-0.5259598877131044,0.5806353449220227,3.5074514461693824,-9.691597370115336,-4.592669787124697,2.5126005072956326,0.10637341434100711,2.007447004377221,1.939163203344106,2.659650246070639,3.201735862728889,0.1550233480380234,0.1094266783331308,0.2220146847342289
275,275,14.1,-0.505,-10.6,3.6,-0.414,1.36,-0.285,7.66,-9.44,-11.8,90.0,14100000000.0,-1.2076066421869671,-9.785325215464253,4.042094668698702,-0.21447912564556304,0.731727559461472,-0.047225173985090296,5.338182572149666,-9.586724426253454,-8.391888359929402,2.4467766816382004,0.13879384167112538,1.7784610022439893,1.5526195599019514,2.5254153778413087,2.643056966225096,0.15723694893867013,0.13329153759138024,0.19458243909379244
276,276,14.1,2.62,-9.34,-3.41,0.126,0.637,0.0941,8.86,-8.2,-9.76,90.0,14100000000.0,0.2954309752908162,-9.594697164446552,0.5287936764783163,0.053790430081872176,0.6685567403346355,0.055280456130393854,6.890843621139304,-9.008699106300538,-9.113064680581369,2.5860108656406893,0.14195604812645002,1.9443818809119546,1.2882981709876644,1.6298243365428797,1.7654278113487598,0.11344211592754355,0.13219898214061393,0.22367160842361514
277,277,14.2,3.43,-8.67,-1.61,-1.58,1.44,-0.917,4.24,-12.6,-8.86,90.0,14200000000.0,1.5263242828721235,-9.198866751135157,-0.4795437432004894,-1.2335021195065292,1.1830080681787452,-0.6499316347550749,5.7221679363731095,-10.50565318297607,-8.97966586505569,2.346866561413414,0.12670887288575874,2.091458973483254,1.1725704074610206,1.1457091873191678,1.65072201383938,0.12463185132155533,0.0996728909250977,0.2329424455421144
278,278,14.2,-1.9,-14.1,-1.35,-1.63,2.08,-1.02,4.4,-6.97,-7.48,90.0,14200000000.0,0.18086355861325232,-11.296870276230655,-0.8899216322635646,-1.5459098423965976,1.7811837747286452,-0.9183487068874072,5.139264719742363,-9.03189468862893,-8.189143158867202,2.3175722606257203,0.07986295854453379,1.755476025793296,1.017536638920908,0.9144850989989182,1.25310388522141,0.17236479679769848,0.03489021122495042,0.31751790947650094
279,279,14.3,-2.3,-9.4,-0.74,-2.15,1.54,-0.924,5.0,-5.27,-6.18,90.0,14300000000.0,-0.7933304066559219,-10.484886431947276,-0.8192408635359137,-2.0218832886744007,1.6203458621140872,-0.9224477070377339,5.077867179594014,-7.463832533093416,-7.130058278708607,2.645348998372095,0.029015317821089598,1.8246214744894247,0.5265775824419686,0.6120436993331426,0.8276508351369343,0.09625533268730276,0.06255125601734574,0.2674172463735193
280,280,14.3,-1.9,-8.65,-0.0814,-1.87,0.574,-0.715,6.05,-4.45,-5.69,90.0,14300000000.0,-1.2279011967886482,-9.699435698901802,-0.4713847069920745,-1.9022117499974918,0.922570658316668,-0.7719822220557879,5.50645078419592,-6.207583380858112,-6.370956692598805,2.310434694591538,0.07489512235281223,1.9029570454704146,1.0857026806885068,0.9725854735157722,1.0855501838431656,0.07532013724284967,0.1265516694363131,0.17176674270494907
281,281,14.4,-0.457,-8.4,-0.0527,-1.41,0.219,-0.778,6.73,-4.76,-5.03,90.0,14400000000.0,-0.9251810742459168,-9.14319265741802,-0.2739951891691809,-1.514389338230531,0.4533814734000871,-0.7763470200324087,6.045876084522187,-5.604190533908612,-5.664094860346951,2.318366235985088,0.12866272718990976,2.052484049522679,1.5042128312629002,1.1207224076961824,1.3143068965161115,0.07110719890208149,0.12901736122569335,0.13819681593594482
282,282,14.4,-0.0383,-9.51,0.239,-1.05,0.585,-0.867,5.46,-5.26,-3.98,90.0,14400000000.0,-0.5769175819144323,-9.300210122357099,-0.03214285898373859,-1.1484886878866352,0.5411537221929352,-0.8420992070621998,5.787581319374024,-5.460722459028776,-4.776353624545433,2.2130017078048465,0.11557001889564673,2.030023242529682,1.7156013148466902,1.262432454422526,1.5778855016394735,0.05731672606012395,0.11902947786401254,0.19891743867536482
283,283,14.5,-1.2,-10.6,0.879,-0.882,0.5379999999999999,-0.848,3.85,-5.97,-4.3,90.0,14500000000.0,-0.8215917348226023,-9.856604775346174,0.397416780882096,-0.9385175375510836,0.5390505956088543,-0.8463791485708254,4.933361148448013,-5.673003389708081,-4.525252216450434,1.886294206877821,0.10026299557569578,1.8935778093817395,2.176548686524807,1.2955411178394374,2.152831280652054,0.12501502924489033,0.09702778167451279,0.34354971505124376
284,284,14.5,-2.76,-11.7,0.16,-0.49,0.6759999999999999,-0.574,5.53,-6.5,-1.48,90.0,14500000000.0,-1.5827725158505466,-10.645697579380066,0.2854862899418937,-0.5851226061230244,0.630377853106236,-0.6488177681672543,5.196400996528085,-6.017718536758788,-2.920000610203325,2.347191794648825,0.09172565330754108,2.0951211434464057,3.320691939518952,2.558812203209593,3.1783459207194813,0.11900046165076822,0.06877157210500835,0.3258469026643914
285,285,14.6,-1.13,-12.4,2.67,-0.0816,0.715,-0.103,2.48,-6.82,-1.57,90.0,14600000000.0,-1.4049762544748472,-11.39665279501415,1.4096688087513856,-0.18838819841650128,0.68680968858863,-0.25292655311750883,3.998823186578624,-6.352131795906132,-2.2083713515063583,2.212774429828019,0.08660114307968272,2.004379279855388,2.0722992287702033,2.5295532155658216,3.465245274208349,0.08384497389050789,0.09847558983760936,0.2099044227771176
286,286,14.6,-5.04,-13.2,3.02,1.37,0.962,0.693,11.1,-8.34,-0.77,90.0,14600000000.0,-2.8323897916312597,-12.168602445489347,2.168861799630576,1.039493562728865,0.8703254756784204,0.4331706055788616,7.129514238342862,-7.180730516098121,-1.4501589594450437,2.2045878910938486,0.11860293449902076,1.7863681300851395,1.586977180896173,2.444711684505453,2.372487687598624,0.09726580140825013,0.12250238531581041,0.18127187278452353
287,287,14.7,1.15,-12.4,6.02,2.73,-0.454,1.49,8.21,-14.4,-9.67,90.0,14700000000.0,-1.2685713622665111,-12.267655464923925,3.9844865386076482,2.371473643559725,-0.012825603066233593,1.199707536630831,7.6058672615343825,-10.189922306334207,-5.783104903062871,2.3067473240211065,0.13446434010611588,1.880227922005992,1.1177437239068277,1.5134144766394384,1.219049771648086,0.08733600763162123,0.1286943291806602,0.21785886382363204
288,288,14.7,1.11,-17.9,-3.88,2.48,-1.91,1.02,7.27,-12.5,-5.65,90.0,14700000000.0,-0.3345458220424704,-14.678664586503515,0.27676278151696154,2.456983503570358,-1.2779916225512529,1.0693624897192406,7.457793687094368,-11.15282682366889,-5.712941024177451,2.296321636189085,0.12249173644592916,2.09624693686649,1.0275648151867374,1.1427398742955424,1.1641388697567487,0.09675354486433768,0.1054450639281375,0.23319460542864587
289,289,14.8,0.17,-14.9,0.6940000000000001,2.51,-0.461,1.24,6.14,-9.2,-7.29,90.0,14800000000.0,-0.13641904295441895,-14.773410356042463,0.4734698822821577,2.4987561358084314,-0.7331655566697954,1.19312888027705,6.876818841794321,-10.338834307790064,-6.544260149414655,2.056695847723399,0.08590606319780847,1.7503055572928161,0.9487249154144637,0.8322503466853148,0.8947725549605647,0.1457133946231457,0.03988139161341294,0.29909436753858193
290,290,14.8,-0.965,-10.4,-0.639,1.79,-0.225,1.32,7.14,-3.77,-7.62,90.0,14800000000.0,-0.4617890356949971,-12.901306504965724,-0.051005673243465284,1.9403145502519905,-0.3942858972865018,1.2851507700861406,6.9928472771342935,-7.600761790011306,-7.111317597345273,2.3113470255967163,0.03155972431437695,1.6678434218304212,0.4989079932840216,0.6110476150453962,0.48316402081776527,0.09769381568432724,0.05405922224471886,0.2746322372060451
291,291,14.9,0.227,-4.07,-0.6629999999999999,1.24,-1.15,1.01,7.78,-2.46,-8.35,90.0,14900000000.0,-0.1913130030139024,-9.120933796130622,-0.33953128955598616,1.388524277551155,-0.8982478901331441,1.085579076302072,7.339878843177399,-5.457949569026471,-7.764267632340451,2.3029724073301963,0.06048577761691005,1.8219933908048984,0.9342807692888906,0.776873296505553,0.7491456312622682,0.07550312368573395,0.12489794790287177,0.19531104505080388
292,292,14.9,1.41,-2.26,-0.898,0.396,-1.51,0.5760000000000001,7.63,-3.66,-9.3,90.0,14900000000.0,0.4374960486140408,-6.1840085058984515,-0.6028221823664319,0.6064967583212643,-1.3062061593118872,0.7159724029631971,7.467784406289472,-4.708514308015184,-8.573802277205683,2.2871417727444663,0.1222579807629776,2.0821895833892388,1.4137736963210374,1.0541205256036477,1.021008368189208,0.07420623141770967,0.13418707424342527,0.13877020340612298
293,293,15.0,1.75,-3.4,-1.46,-0.524,-1.03,0.255,5.72,-7.47,-4.47,90.0,15000000000.0,0.9528945875498106,-4.992272083320871,-1.0069399385708482,-0.28424172023835304,-1.1220129243391574,0.381621018152299,6.6972398179970885,-5.859578124021432,-6.410554340080979,2.1278614606485267,0.11869591907042361,1.9474423136639947,1.6309471311248946,1.1988990625111526,1.259739364671141,0.0617023781171397,0.12416824549964779,0.1906659814691379
294,294,15.0,0.00479,-7.75,3.5,-1.71,-0.0464,-0.268,-1.12,-17.7,6.05,90.0,15000000000.0,0.5805896367058806,-6.1727587475973795,1.117863499876386,-1.407622037660846,-0.4047204345812437,-0.08956052245740043,3.250858733430701,-10.794995005205976,0.1578097489593242,2.0546024306064314,0.10171659391036915,1.8455535606777533,1.9798209400893085,1.239248113026782,1.7554238319679654,0.12421718319096936,0.10786007003033293,0.34749016547413625
295,295,15.1,-6.63,-18.6,14.1,-0.306,-0.959,-0.181,3.63,-7.98,-5.92,90.0,15100000000.0,-2.2508893989815792,-11.492425323041868,7.238310956549003,-0.5396344515246625,-0.7743520689080041,-0.15588317760291684,3.4180105304223583,-9.62162694236817,-3.0460017425342323,2.343996860078735,0.09252956819854224,2.0297387555431863,3.053028814226663,2.4866903683517543,2.4916784431189205,0.12634783532437854,0.07572142308748944,0.3549298543580741
296,296,15.1,-1.6,-8.35,2.36,0.8170000000000001,-0.961,0.883,9.44,-3.47,-10.6,90.0,15100000000.0,-1.9952959338330845,-10.147263345828787,4.938424058016741,0.5292819209297353,-0.8988217310196127,0.5976370519879386,6.0729206551969686,-7.057458057288196,-7.0279604319276965,2.1911030688651914,0.08395792864651004,2.023717473964981,2.020537459014192,2.591756264222861,2.943448542071865,0.0862538896857405,0.09794367276287425,0.2158384803322748
297,297,15.2,4.7,-2.82,-1.88,-0.458,1.01,0.0141,0.789,-31.7,-0.248,90.0,15200000000.0,0.633835689040761,-7.010718695472198,1.7238680464876524,-0.24861505404105644,0.3741115457876578,0.1743873779064421,3.743402219228544,-17.32915400714628,-3.454022486976972,2.1933073436934585,0.11371536618866765,1.749502560402872,1.5464045508441517,2.687730339517205,2.0683897422420103,0.09364679190092536,0.14032507638311784,0.19532102390545397
298,298,15.2,-5.21,-32.7,4.95,0.774,1.24,0.0642,12.8,0.918,-12.7,90.0,15200000000.0,-1.6609417037379364,-18.007399953281464,3.2448325935783604,0.5571215124300167,0.95154537688084,0.09446653640581386,7.736178268982613,-9.723233628956867,-8.327878242080537,2.1726727099648464,0.14005793771984557,2.032089894951651,1.1480152756851931,1.5061945853148786,1.20449220009761,0.09550972767137081,0.14659887027603902,0.216934419113886
299,299,15.3,6.84,0.596,-4.96,-0.478,0.00428,-0.34700000000000003,8.9,-13.0,-8.8,90.0,15300000000.0,1.677237208182048,-10.043936465530162,-0.6233477738978195,-0.25846911186628,0.3198438373204889,-0.22573689936575675,8.249271378038163,-11.08908082516995,-8.576749096545294,2.387127868852716,0.12934292232304376,2.0784362168300254,1.048286789316234,1.2482883406425775,1.1487079268771132,0.09408515089597656,0.12083953698223618,0.23513462826131976
300,300,15.3,2.23,-14.2,-1.72,-1.6,2.6,-1.24,3.3,-8.09,-7.19,90.0,15300000000.0,1.89429799859768,-11.823001515238047,-1.1403660864011669,-1.3154851592548962,1.8404083309709205,-0.9613997498107074,6.0672895262956885,-9.838980737454806,-7.845748516443822,2.081272036937261,0.09217319912566045,1.7948048051128298,0.9757442338568815,0.8492235108053416,0.895472791540927,0.14295036388443016,0.056500788135984366,0.2940766981240793
301,301,15.4,-3.96,-10.2,-0.939,-1.69,1.39,-0.596,6.32,-4.2,-6.24,90.0,15400000000.0,-0.4045877696673048,-11.128251370232363,-1.045431754833957,-1.6105721032841938,1.5400451464991067,-0.6963689040411274,6.178701892783476,-7.488496931734157,-6.999306059269487,2.231057318574117,0.038782049933974556,1.6738265157684198,0.5294648892775049,0.6962367932075383,0.46133147535354013,0.10730720562817166,0.05813964958951364,0.28179196265694867
302,302,15.4,-1.07,-7.21,-0.536,-1.84,0.358,-0.995,6.35,-5.25,-5.6,90.0,15400000000.0,-0.6658841398420735,-9.450985307530845,-0.8052594137977334,-1.7913424468253771,0.7517763565524858,-0.9129712871796422,6.254221928147018,-6.555429263267036,-6.261686214746529,2.2829509652854747,0.06269886583969297,1.8971723154650544,0.8518799738893822,0.7475588372631304,0.6348180679389799,0.08023231371654448,0.13088035384886038,0.19504939994539244
303,303,15.5,-0.912,-9.07,-0.23,-1.63,0.0599,-0.7709999999999999,7.94,-4.46,-4.01,90.0,15500000000.0,-0.7625297574389804,-9.2878987200683,-0.5340525221525811,-1.6642178618178882,0.29038573693635666,-0.809997038767505,6.997429759624177,-5.681996186900934,-5.07474920221049,2.4004317202417864,0.12604291348874513,2.068470995827893,1.3288413326632038,1.0372400909548303,0.9194486224362199,0.07683020009361213,0.14858836577827148,0.1407038159579283
304,304,15.5,0.848,-8.98,1.04,-1.24,0.0977,-0.955,6.54,-4.69,-4.37,90.0,15500000000.0,-0.1301014299972797,-9.156097873736064,0.2080368280267969,-1.329969076756671,0.16188966839588026,-0.9151702215795806,6.795763002776769,-5.26850465929258,-4.7032528862302625,2.1768067796843757,0.1274331281925432,2.0300176086193527,1.5523180869396178,1.2350784506764199,1.1567278204469007,0.07007018075854753,0.13884928231080634,0.17730489075512929
305,305,15.6,-0.395,-9.82,0.294,-0.994,0.515,-0.941,4.21,-5.09,-3.72,90.0,15600000000.0,-0.2341227103378333,-9.440290973948512,0.2485642913104146,-1.0652530841998806,0.3973678527727293,-0.9339050025286773,5.6557794826959125,-5.194099025083028,-4.18494828393783,2.1627190000102354,0.10688203131656722,1.8052913950420462,2.0010881631823603,1.2674525817237934,1.662521240958444,0.1217775625531889,0.1228253975635082,0.3303182920361109
306,306,15.6,-2.64,-10.7,0.484,-0.723,0.589,-0.6729999999999999,4.8,-5.62,-3.54,90.0,15600000000.0,-1.1788708710642881,-9.97952817424248,0.3595607999399493,-0.7955857887073844,0.5251613063838025,-0.7446660052041664,5.278492661356612,-5.371626328001718,-3.844975019698903,2.36141171101706,0.09863659093916545,2.055009537743923,3.0757846166242757,2.400887066180913,2.3847581731183918,0.12985068471224803,0.08417262175142187,0.33724961667463504
307,307,15.7,-1.98,-11.5,0.371,-0.355,0.303,-0.327,4.48,-7.23,-1.86,90.0,15700000000.0,-1.4934610038762994,-10.630388871144131,0.3649538237494123,-0.4484404071896269,0.37700890818610977,-0.4417255091639311,4.926461765423772,-6.146248076411111,-2.79863005079506,2.2318587679391304,0.08442567507688326,2.0003411857571742,2.0422563318564486,2.725028051090936,2.936290564370676,0.09008003062624431,0.109999951692983,0.23885268924884415
308,308,15.7,-2.17,-12.9,1.97,0.317,0.644,0.0795,3.87,-6.59,-1.06,90.0,15700000000.0,-1.7591266798453613,-11.601929683485887,1.1216552090437522,0.1546636944458092,0.5550568807470149,-0.06367149350460494,4.460700151109748,-6.331216261636609,-1.8821414998745505,2.1938211970235204,0.11459259790178324,1.881051287892456,1.5760874287748108,2.629224109948102,2.149329947410971,0.0888168721149053,0.14344118052091107,0.20041910444516026
309,309,15.8,-3.26,-12.1,2.77,1.69,0.516,0.81,9.27,-9.26,-2.99,90.0,15800000000.0,-2.3484947427782883,-11.815136292187463,1.8987697672097144,1.3643825008519777,0.5290110550789617,0.5700177894564007,6.580973032924428,-7.552014730922128,-2.4661297993203553,2.2092080805071515,0.14070586839092802,2.071402989453735,1.148479344280361,1.6211218168493906,1.2047242531109223,0.08922032035918442,0.1467036262219417,0.21815315505871816
310,310,15.8,1.89,-13.8,1.58,2.88,-0.628,1.4,9.35,-12.7,-8.02,90.0,15800000000.0,-0.6841081418577624,-12.664786958762527,1.7484853135703493,2.558564554330826,-0.2425633060965592,1.1720184490136654,7.8017521945003505,-9.697837834924265,-5.393755893157227,2.2142169589835863,0.12946329439041696,2.035674158689799,1.0002163276357998,1.4094164756423297,1.0781186972914054,0.08922037904738152,0.1260510535440268,0.2416164056384576
311,311,15.9,1.87,-16.1,-2.68,2.37,-0.799,1.07,4.57,-12.6,-4.85,90.0,15900000000.0,0.31884777737204284,-14.13528142267354,-0.3393306084268481,2.409991100612392,-0.6136334839438233,1.0980227139231309,6.376971927546582,-10.907539756972449,-5.107124403411469,2.0764587920173834,0.09717661273098477,1.8917325956643092,0.9483071737189661,0.8852645247708422,0.8879738976598277,0.13173851058558195,0.0656117166399607,0.28546078563114724
312,312,15.9,-2.78,-14.9,1.21,2.17,-1.15,1.39,6.74,-8.1,-7.46,90.0,15900000000.0,-0.8980183512287216,-14.462630479365673,0.3911035952682719,2.220897907403552,-0.9713194578720707,1.309798958038465,6.537019760492997,-9.737279399635016,-6.347401775253501,2.1184603859861184,0.046961951099990865,1.6568626245527058,0.5414318910725393,0.7057726580980487,0.4673060165675835,0.1149652594652244,0.0533115605496955,0.29595114759450614
313,313,16.0,-0.419,-9.27,-0.857,1.73,-1.13,1.38,7.69,-4.31,-7.97,90.0,16000000000.0,-0.7099157872639559,-12.239847565957527,-0.19731667052757704,1.8341107368940512,-1.0771385263127444,1.3607170034724632,7.045333382130558,-7.475038644627787,-7.202726031161236,2.353915855027508,0.05565313391398188,1.8850973230570314,0.7725022298726901,0.682226700236407,0.5797716272235369,0.08108078489572122,0.12491114716306655,0.19363593976406565
314,314,16.0,0.939,-4.69,-0.8640000000000001,1.06,-1.39,0.861,7.58,-4.03,-8.25,90.0,16000000000.0,-0.06241389434142264,-9.008022465489383,-0.5116255137218255,1.2241750846243566,-1.2857760109955103,0.9982634838171808,7.281051448508678,-6.039050980500695,-7.7547782461164605,2.341740625283975,0.1189750221388019,1.91048033443062,1.2435902764699536,1.014630225228907,0.8754065120996805,0.07917439736046387,0.1477459779881691,0.15410758155718646
315,315,16.1,1.29,-3.95,-0.723,0.34,-1.19,0.5539999999999999,7.93,-3.72,-9.47,90.0,16100000000.0,0.4686566024620862,-6.842860349343624,-0.6112783203020286,0.5275178246044233,-1.2219060343988972,0.6760313895579151,7.567152869446628,-5.072406160013681,-8.658927632006927,2.169514187918804,0.12721162118744145,2.077555414387016,1.4985249806710115,1.1407908347832632,1.0934825408256763,0.07292364793704559,0.14022195687581343,0.18447309672106313
316,316,16.1,2.11,-3.61,-1.58,-0.509,-1.14,0.13699999999999998,5.35,-6.34,-4.39,90.0,16100000000.0,1.1131848981842931,-5.458986098869309,-1.06798359597961,-0.28917299314643263,-1.1672854620354716,0.28506245005983066,6.589678183653723,-5.6007745282909935,-6.4086367830392685,2.295503439945568,0.1098763920475003,1.967728048252365,1.8402388462813286,1.2490696589246693,1.5955056737683335,0.1163474034209883,0.12962642659442497,0.31540081549221544
317,317,16.2,-0.196,-6.74,3.69,-1.52,-0.381,-0.454,-0.28300000000000003,-17.3,4.28,90.0,16200000000.0,0.5990896984201236,-6.007343153131092,1.1751747696055888,-1.258963451218428,-0.6429363816828275,-0.2509925246398356,3.5597253354394227,-10.477336192115935,-0.7743081333004911,2.3902397931375203,0.10363809467940917,2.0052545178205263,2.7783305025453986,2.2988882963138386,2.2311546674665554,0.13305389910634954,0.08755534000838847,0.34042276535272814
318,318,16.2,-5.55,-18.3,12.5,-0.129,-0.7120000000000001,-0.398,4.88,-9.12,-4.38,90.0,16200000000.0,-1.81555594231002,-11.269398371794876,6.514280219718692,-0.3686451608079905,-0.6889927486891074,-0.3576196302486634,4.141793959140816,-9.9115607358576,-2.6749858010954823,2.1339547321226577,0.08080778023650108,1.8523607029198546,2.132854724538694,2.6242925436470905,3.0287281323543134,0.09819230866907422,0.11076809421494145,0.25868366456298414
319,319,16.3,-0.292,-9.74,3.93,0.682,-0.434,0.78,6.34,-5.69,-5.17,90.0,16300000000.0,-1.2172807843296116,-10.614716435428896,5.2959175546362856,0.4591768189277246,-0.5189460806264091,0.4675158503489624,5.1109155950167136,-8.151897041944514,-3.9901890792744283,2.1877215055175894,0.11039360444684478,1.822747770789451,1.5262594697177905,2.668539919699825,2.213199455700829,0.0903429713854493,0.13691027910263429,0.20523979716526716
320,320,16.3,1.15,-6.03,3.15,-0.0761,0.5,0.108,5.74,-18.5,-5.46,90.0,16300000000.0,-0.2876888818307508,-8.652160111034652,4.284221623865955,0.03742270088456395,0.1605570697747115,0.20675269083469036,5.3882594982704175,-12.465273648920913,-4.764974302200153,2.1857110662219297,0.13305708645363126,2.0135592959343676,1.1198577536730587,1.6462726396220178,1.2739177598654292,0.09445334395174258,0.14914901297220468,0.21133847172527842
321,321,16.4,0.0742,-19.0,2.52,0.0284,1.17,0.0251,9.01,-4.34,-10.1,90.0,16400000000.0,-0.14558111967725695,-13.081707681377294,3.4524767450359426,0.030313554650715807,0.8337228389147561,0.07499680339160977,6.9849738156222925,-9.078434073935284,-7.577240291366639,2.1711799593979255,0.12624630262245917,1.9372611215513125,1.003317622902715,1.3924112576369185,1.0719144467009685,0.0862916930830018,0.1300135955186965,0.24001146568581233
322,322,16.4,3.1,-4.97,-2.31,-0.98,0.773,-0.337,6.41,-12.0,-8.35,90.0,16400000000.0,1.1289047332305058,-9.60936984408174,0.7357486663109829,-0.7657304654966667,0.7932286853649811,-0.22383172427391865,6.731485442093457,-10.296223863262512,-7.984587300901722,2.0764810375313996,0.09947529503076018,1.8153853886106255,0.9089098266789237,0.8943065766663174,0.89511249053112,0.12773220830892545,0.07530957241851755,0.27237883343637537
323,323,16.5,-0.0168,-13.4,-1.08,-1.47,1.71,-0.872,4.86,-7.72,-6.6,90.0,16500000000.0,0.679005481783286,-11.232005591024656,-0.12028872342703835,-1.320636970634252,1.404594717638146,-0.6939595452230917,5.906405015528137,-9.222382145978187,-7.254726193251911,2.0730397065968136,0.050327496238090956,1.5155509706884887,0.5328112591994406,0.6693679306143652,0.5103173087456011,0.11438486266097488,0.052015560900055845,0.28925885494858644
324,324,16.5,-2.04,-9.95,-0.00239,-1.8,1.29,-0.731,5.24,-5.37,-6.12,90.0,16500000000.0,-0.38870287180205776,-10.68322384945425,-0.06470519751803183,-1.6983355831960678,1.3281750728149724,-0.7208256422249356,5.612607398842266,-7.61660226626726,-6.656575002475742,2.149183787546637,0.05181728211073893,1.7035244226922868,0.673786452305673,0.6430442520738293,0.5039856203015708,0.07752288991570898,0.11699328692999675,0.20924290314675376
325,325,16.6,-1.77,-8.52,-0.0239,-1.8,0.321,-0.866,5.64,-5.06,-5.33,90.0,16600000000.0,-0.9311153431147616,-9.757223735267187,-0.045467527531218035,-1.7784387464168532,0.6565216444802083,-0.8261231516441383,5.624683897003503,-6.550939438967209,-5.957294076634303,2.200455423937831,0.11013733293059506,1.8364944634531413,1.1633153829680165,0.9032761274244062,0.8042716331313182,0.0734062270243964,0.14629782114963183,0.16616293432090792
326,326,16.6,-1.19,-8.99,0.51,-1.52,-0.241,-0.731,7.08,-4.96,-5.55,90.0,16600000000.0,-1.0327750777479294,-9.428802046994935,0.216408447801764,-1.5748102500832817,0.05799264053675567,-0.7571286633108802,6.266288061671392,-5.887791727504492,-5.742596205266584,1.9993357208795994,0.12453214314046158,2.077631794310941,1.373010549387183,1.131371156238275,0.9932908327238168,0.07032994166764177,0.14128455201194176,0.17031153539411142
327,327,16.7,0.474,-9.57,0.0311,-1.24,-0.0165,-0.879,6.77,-4.08,-4.53,90.0,16700000000.0,-0.4410894860058256,-9.48924381113039,0.12904450821822014,-1.3110073112702127,0.008315837388787939,-0.8455240904940627,6.488359185232924,-5.1342539140139785,-5.103397366131095,2.139215770352031,0.10745080174325504,1.8696341928178568,1.7287987563992273,1.191573524773145,1.450544384938412,0.10582758683206522,0.13182388366233294,0.29594235116250306
328,328,16.7,0.316,-9.34,0.649,-1.16,0.392,-0.913,4.29,-4.75,-4.98,90.0,16700000000.0,-0.14379299252501704,-9.425357831816877,0.3741782815838625,-1.1920259407013585,0.26418275247304,-0.8944655439543577,5.51917008315696,-4.9740862146235525,-5.038350605885267,2.265243596215652,0.10119172563158413,1.9212920293863243,2.536383912627793,2.082075400979941,2.092667930792237,0.12394187732355047,0.09536003363910218,0.3359924689350244
329,329,16.8,-1.99,-10.5,-0.254,-0.841,0.522,-0.8009999999999999,3.91,-5.39,-3.86,90.0,16800000000.0,-0.8687678759423385,-9.885374478396367,0.07802270638561254,-0.915446379704466,0.4361129902919039,-0.8266733424083094,4.809736425450001,-5.147450571717363,-4.417203571545558,2.0557074520254033,0.08410304592106857,1.8354330271924977,2.0586291240136245,2.51187101651143,2.911682672525993,0.09388871740004541,0.10230077311371652,0.2569899204385105
330,330,16.8,-2.34,-11.5,0.563,-0.333,0.535,-0.376,3.51,-5.95,-2.17,90.0,16800000000.0,-1.4464963026925735,-10.57653907245424,0.30666597315466704,-0.4565265292120378,0.5020576499050686,-0.4997920412525124,4.236722527192058,-5.481975375076663,-3.232629425790416,2.122799311971969,0.10300076606949822,1.777796688248402,1.6083611599291547,2.6327093584883827,2.436229645535333,0.08852746293285556,0.13060320626977973,0.19286691903405198
331,331,16.9,-2.82,-12.1,2.05,0.223,0.672,-0.0225,2.59,-6.21,-1.11,90.0,16900000000.0,-1.9858484041937088,-11.228679462358867,1.128563332288128,0.07888450362947774,0.6153868616420144,-0.1536037402251933,3.510733073917024,-5.785436266770327,-2.1137223365223794,2.2459979839904265,0.12566661647096788,1.918112049597756,1.1296498290722718,1.8073994534505264,1.3726228594509262,0.09230713816755601,0.14312205474292783,0.20754233803434452
332,332,16.9,-4.0,-12.0,3.26,1.69,0.329,0.88,10.5,-9.04,-3.75,90.0,16900000000.0,-2.77677233899598,-11.558854750160437,2.1334322681628546,1.3483110812364076,0.4244044524533905,0.5960872054787545,6.5920863232940485,-7.142028771230903,-2.976257580672664,2.029351595316012,0.12652034107328897,1.9445419077340034,0.8876223116263661,1.3269215599464366,1.0855559937246606,0.08864206043322893,0.13218103108474674,0.2306448503697333
333,333,17.0,3.58,-13.8,1.39,2.83,-0.8740000000000001,1.52,9.07,-12.9,-7.67,90.0,17000000000.0,-0.28057327377836616,-12.51821056234952,1.7829400291778543,2.5157600529643074,-0.4414607208469165,1.2662173710467608,7.6845222682635095,-9.542110878749881,-5.450482108577575,2.1655052855837034,0.10329511088184333,1.928553975298263,0.8712421320618934,0.9644823177919055,0.8789617651757836,0.11861285014544094,0.08252560682469602,0.2550643281642608
334,334,17.0,2.2,-16.4,-1.66,2.41,-0.6679999999999999,1.05,5.48,-10.9,-5.31,90.0,17000000000.0,0.6935067388986025,-14.179868402719073,0.15976092292122024,2.4324298952813197,-0.5925326422532402,1.1093910791467263,6.712616077284394,-10.108116604512974,-5.3764293839820185,2.004239786217229,0.05824335467245927,1.5859598471971672,0.5809230166530021,0.6890000618022524,0.568834584727828,0.11754349127051932,0.04947122976336969,0.26563749915706564
335,335,17.1,-1.45,-13.4,1.18,2.05,-0.513,1.37,6.27,-8.08,-7.1,90.0,17100000000.0,-0.1482128344686584,-13.846033910181816,0.6407541061257562,2.131106546629839,-0.5394948277682164,1.298415310780168,6.5174802266776295,-9.262741265412656,-6.2849795359653715,2.0213036991801174,0.048310334966055336,1.5541185633362367,0.6479234011318785,0.6209419752279607,0.46611639973979996,0.08221484673906419,0.1091328261486875,0.23681439577151875
336,336,17.1,-0.51,-9.46,-0.146,1.63,-0.962,1.31,6.9,-4.61,-7.52,90.0,17100000000.0,-0.290280651794803,-11.968526537649883,0.2698377309057108,1.7362757890594018,-0.8212502704508086,1.3068178478660113,6.68612149518319,-7.3233495877308945,-6.935999032718233,2.1613991245731614,0.1017236988749661,1.906076778846573,1.1105314166063767,0.8641413326155714,0.7165127445591697,0.07218531696214182,0.14735599403196276,0.16850114230249152
337,337,17.2,0.479,-5.16,-0.134,1.16,-1.34,0.899,7.25,-3.81,-8.49,90.0,17200000000.0,0.01180310547986857,-9.054034896692414,0.07944783931829907,1.2822178269197038,-1.1671882007116234,1.011020391088687,6.934718219481557,-5.85888791469883,-7.755163430193883,2.0273203023073134,0.12332452494930256,2.0644961302818516,1.3332384590344672,1.1131509134649629,0.9917027405551126,0.07052308782498479,0.14279764599895753,0.15845439964615549
338,338,17.2,1.3,-3.91,-0.6970000000000001,0.263,-1.14,0.505,7.47,-4.3,-9.12,90.0,17200000000.0,0.5176566474978272,-6.852053889766648,-0.28660964491344604,0.4791579964491677,-1.1490572337164913,0.6439949091733193,7.170707433326558,-5.20910023199951,-8.474613173675474,2.109282053624993,0.10650566031957441,1.8891525490690289,1.6101408265707462,1.2589700655140743,1.3592753459976614,0.0989007116866676,0.13524294255924846,0.2758533070156101
339,339,17.3,1.88,-4.45,-1.06,-0.743,-0.8220000000000001,0.155,5.98,-5.8,-5.86,90.0,17300000000.0,1.0526262909868396,-5.823818728584524,-0.6512256341579579,-0.4838019863686643,-0.93095305062712,0.2893183126855593,6.645761083620862,-5.455403739937483,-7.096365491579256,2.308392959089022,0.09969276384275307,1.961450469694065,2.1840924245246525,1.9504947874332255,1.8975253766122329,0.12202076664693133,0.10151172030831623,0.34093401214261043
340,340,17.3,0.563,-6.51,2.29,-1.72,-0.0953,-0.242,-0.0631,-14.6,5.05,90.0,17300000000.0,0.8603581742391652,-6.1175489785758534,0.7354194831130929,-1.4578243937058666,-0.3736822648988428,-0.0960561917399147,3.688030161823316,-9.267125501278759,-0.6936205765951273,2.0727349636778447,0.07971205146869366,1.8431110129460113,2.2975345690339384,2.630510778662558,3.0108821469118197,0.10229034954385911,0.1006153179040753,0.2652497381535338
341,341,17.4,-5.37,-16.0,13.2,-0.816,-0.511,-0.308,1.52,-9.91,-4.82,90.0,17400000000.0,-1.5862001295860415,-10.34787988634915,6.611864143302628,-0.9521195353047318,-0.4652551362731949,-0.24978275768464026,2.7322122036161045,-9.535093376847511,-2.868769642630092,2.1702745152117893,0.0956179424582837,1.748024511187757,1.6759688804414847,2.737411693353287,2.5640415597183384,0.09099846205304589,0.13606445871984696,0.20143483369633977
342,342,17.4,-3.57,-11.1,3.47,0.586,-0.8859999999999999,0.8390000000000001,9.38,-6.4,-5.34,90.0,17400000000.0,-2.36520541887762,-10.669836308898644,5.130627702386289,0.25979220211330256,-0.7458366612672505,0.5399304924368273,5.663017837000228,-8.228299457629863,-4.171435723598223,2.337387523181531,0.12479048861836434,1.9043952756624478,1.1653751705977402,1.8555977770047216,1.4791780673173263,0.09305849960490711,0.14707143287571534,0.1913144347394792
343,343,17.5,5.27,-6.99,3.51,-0.0455,0.659,0.17600000000000002,3.73,-15.8,-5.46,90.0,17500000000.0,0.6330131414384397,-9.094627263331027,4.366580392754541,0.01924705110772021,0.19100478829278067,0.27596531274458824,4.810809615828402,-11.384394536078734,-4.850679937743697,1.9903863415580398,0.12635146292012858,1.8374309895128702,0.8810838870920821,1.4250996212990543,1.0623654268783067,0.08954675844736126,0.13760572367784266,0.22974095459609453
344,344,17.5,-1.71,-16.8,2.64,0.4270000000000001,1.01,0.008020000000000001,7.54,-4.06,-10.4,90.0,17500000000.0,-0.2870492844235205,-12.393026936215087,3.5525815859403993,0.3405228352771311,0.7371669754971519,0.08161987036979296,6.014025865805624,-8.33138352265355,-7.77590706304858,2.086637962598474,0.1065486730612019,1.9607630205122974,0.8776974845909736,0.9491326005839918,0.8979979713691528,0.11169982316412928,0.09311701090933266,0.2528496736704015
345,345,17.6,1.84,-5.09,-2.49,-0.831,0.7140000000000001,-0.16899999999999998,6.68,-11.7,-9.9,90.0,17600000000.0,0.5482077138368711,-9.266857137235176,0.7037976380364586,-0.582540803783584,0.7217176379833862,-0.1001591238478992,6.3076333435503065,-9.7355163137019,-8.8955854231665,1.8606971544997732,0.06414886223314148,1.6846211096337484,0.6878861660876734,0.7096324827159511,0.6750342597891775,0.1262388071286019,0.04515864959343886,0.269411780421066
346,346,17.6,0.615,-13.4,-2.39,-1.33,1.4,-0.979,5.43,-7.97,-7.66,90.0,17600000000.0,0.5744359408677525,-11.036110569096232,-0.7547778414817077,-1.1714772222278418,1.1740428340014564,-0.7375978290599017,5.920711666003891,-8.999600010722787,-8.24426802756822,1.9174411101584534,0.04187256725283958,1.5729577798566716,0.6432660537858667,0.529409453000237,0.4459859543141009,0.09441556237497103,0.09807809349114753,0.2473239704174437
347,347,17.7,-1.13,-10.5,-0.826,-1.79,1.49,-0.747,4.96,-6.13,-6.67,90.0,17700000000.0,-0.09486778979729747,-10.806620424848099,-0.7883556207932414,-1.6588222812364364,1.384744754593841,-0.7444173735843758,5.49716339870796,-7.803471105340308,-7.41442012215562,2.172711505208801,0.09171974546196388,1.8533807807212073,1.093158834250992,0.8570662369453874,0.6747299855298076,0.07648894384685717,0.14866926255397683,0.1762771668377998
348,348,17.7,-1.82,-9.58,-0.491,-1.85,0.713,-0.8140000000000001,6.34,-4.34,-5.86,90.0,17700000000.0,-0.7722986247325719,-10.281547180686273,-0.6481668760557779,-1.8094546222682768,0.9367792674943222,-0.7948868824272489,5.8687442522836575,-6.359800255997331,-6.5950347242243055,2.061002607320497,0.12439862174007761,2.017508902732566,1.2810154156035833,1.0933569746934215,0.9960801173445684,0.07515551032284778,0.14891073964193488,0.14736142902997065
349,349,17.8,-0.369,-8.57,-0.0982,-1.52,0.22,-0.807,6.1,-3.93,-5.22,90.0,17800000000.0,-0.6139299371645153,-9.548893690791159,-0.3888841868131495,-1.581388166133623,0.4587816771652949,-0.8036727258944126,5.970697770919907,-5.346992078655363,-5.870209030508999,2.0613517200388505,0.1108391866654961,1.8542171947498276,1.500998590768335,1.2395393441539033,1.3241316102816374,0.09290355958759303,0.13802015020932384,0.25324762892234187
