,Unnamed: 0,Time (s),Acceleration x (m/s^2),Acceleration y (m/s^2),Acceleration z (m/s^2),Gyroscope x (rad/s),Gyroscope y (rad/s),Gyroscope z (rad/s),Linear Acceleration x (m/s^2),Linear Acceleration y (m/s^2),Linear Acceleration z (m/s^2),Still,Walk,Run,Cycle,SPM/RPM,Timestamps,Acceleration x (m/s^2)_kalman,Acceleration y (m/s^2)_kalman,Acceleration z (m/s^2)_kalman,Gyroscope x (rad/s)_kalman,Gyroscope y (rad/s)_kalman,Gyroscope z (rad/s)_kalman,Linear Acceleration x (m/s^2)_kalman,Linear Acceleration y (m/s^2)_kalman,Linear Acceleration z (m/s^2)_kalman,Acceleration x (m/s^2)_kalman_max_freq,Acceleration y (m/s^2)_kalman_max_freq,Acceleration z (m/s^2)_kalman_max_freq,Gyroscope x (rad/s)_kalman_max_freq,Gyroscope y (rad/s)_kalman_max_freq,Gyroscope z (rad/s)_kalman_max_freq,Linear Acceleration x (m/s^2)_kalman_max_freq,Linear Acceleration y (m/s^2)_kalman_max_freq,Linear Acceleration z (m/s^2)_kalman_max_freq
0,0,0.0481,2.33,4.13,9.51,-0.542,0.687,0.106,0.537,1.55,0.227,,,,,160,48100000.0,1.463419736700115,2.6484537738988654,6.092889287550026,-0.3187510235565466,0.3145161461482566,0.03330267414380804,0.3877622363809398,1.033243588940277,-0.013169637769090844,,,,,,,,,
1,1,0.0982,2.42,4.35,9.29,0.0589,-0.055,-0.0525,0.847,1.87,-0.0648,,,,,160,98200000.0,1.6602537775924904,3.394926273954203,6.779927689281071,-0.08911621004342163,0.25650043551558466,-0.006259237643385658,0.5012641249495172,1.4085110271714023,-0.02696445673141645,,,,,,,,,
2,2,0.14800000000000002,2.19,4.28,8.2,0.142,0.18600000000000005,-0.0231,0.643,1.69,-1.13,,,,,160,148000000.0,1.8275763887474807,3.8808051418069263,7.241242301112036,0.0662071802422998,0.2398657520319153,-0.01569812932973936,0.5528653347536601,1.5653579152739998,-0.4509916883185031,,,,,,,,,
3,3,0.198,1.97,4.4,8.49,-0.117,0.191,-0.16399999999999998,0.515,1.73,-0.831,,,,,160,198000000.0,1.8793860668141382,4.176922036259316,7.7051696696326575,-0.0581536042633876,0.22621184894538265,-0.10154665091248984,0.5374134311991194,1.6604457630034144,-0.6128193793044563,,,,,,,,,
4,4,0.248,1.59,3.95,9.46,-0.0547,0.306,-0.17600000000000002,0.237,1.29,0.113,,,,,160,248000000.0,1.7686686783032963,4.046612647942329,8.388528798215804,-0.05580690451702141,0.25025202163385696,-0.14488702741656692,0.410307538592752,1.4451642974127332,-0.2940435918950315,,,,,,,,,
5,5,0.298,1.73,4.04,8.31,0.116,0.0745,-0.0616,0.478,1.29,-1.02,,,,,160,298000000.0,1.7536000193019678,4.042810651677739,8.357430065178868,0.06094686290224805,0.19544862856056294,-0.09635741128122507,0.4392840876355468,1.3548940243840704,-0.6159029604575265,,,,,,,,,
6,6,0.348,1.14,3.91,8.3,-0.187,0.458,-0.0781,-0.0111,1.12,-1.03,,,,,160,348000000.0,1.5128742523778669,3.9664335983170464,8.33454895845933,-0.10755069255893053,0.2786169333732889,-0.08571740506818849,0.2457634147218828,1.218213353957578,-0.8000297664488614,,,,,,,,,
7,7,0.398,1.09,3.78,11.7,0.0932,0.373,-0.0665,0.157,1.08,2.27,,,,,160,398000000.0,1.3465633664864545,3.8592145520534142,9.67832365819932,0.028873849241497218,0.30873186103686856,-0.07451760569104132,0.20757696963047248,1.1377868120841923,0.5662665122557853,,,,,,,,,
8,8,0.448,1.61,4.92,7.18,0.0272,-0.234,-0.145,0.68,2.06,-2.15,,,,,160,448000000.0,1.4502635353521405,4.469282797904186,8.679998708014091,0.027736348335539198,0.1349833962012882,-0.11559457148294365,0.4108962227767735,1.6744271821199492,-0.642921698118853,,,,,,,,,
9,9,0.498,1.47,3.81,9.14,-0.318,0.2,-0.0366,0.58,1.02,-0.214,,,,,160,498000000.0,1.4580352694072818,4.090122212172323,8.863866237845377,-0.20721640384059214,0.1558296053205801,-0.06955668679484793,0.483683680729796,1.2936123800605384,-0.4519644213601082,,,,,,,,,
10,10,0.5479999999999999,1.24,3.87,8.54,0.0687,-0.225,-0.0659,0.349,1.1,-0.828,,,,,160,548000000.0,1.3721679663747224,3.9635274898334485,8.73440030221539,-0.019711326359058118,0.03363811878754347,-0.06742557519099428,0.4257092681814568,1.1809482609371509,-0.6193809903260273,,,,,,,,,
11,11,0.598,1.32,3.83,8.54,-0.243,0.069,-0.0354,0.326,1.03,-0.805,,,,,160,598000000.0,1.351622117500315,3.88673434422791,8.65668568667758,-0.1714520692456645,0.044987895295315335,-0.048761127443891314,0.3827889645529664,1.0931105994723846,-0.7020219653453905,,,,,,,,,
12,12,0.648,1.5,3.85,9.27,-0.073,-0.345,-0.118,0.458,1.11,-0.091,,,,,160,648000000.0,1.4100603352759975,3.8656079710594815,8.901871214834516,-0.10454679367750973,-0.08020175348616368,-0.08911341804884397,0.4151640391174674,1.1029386453209522,-0.4299831604955664,,,,,,,,,
13,13,0.698,1.63,4.09,8.38,0.0119,-0.478,-0.16899999999999998,0.419,1.29,-0.942,,,,,160,698000000.0,1.4966834865583007,3.9946583396468496,8.693241233526228,-0.02541280682311306,-0.20790744577572529,-0.13567117398901732,0.4168152553368158,1.2117906816594188,-0.6579431267397189,,,,,,,,,
14,14,0.748,1.83,3.61,7.62,-0.18,-0.21600000000000005,-0.259,0.469,0.779,-1.67,,,,,160,748000000.0,1.6279603780683438,3.773437111153593,8.264187573706561,-0.13046594794956484,-0.21050549399384014,-0.2075469936188267,0.43927856084739497,0.9599473310354056,-1.1085308605527195,,,,,,,,,
15,15,0.7979999999999999,1.87,2.91,5.26,-0.773,0.648,0.243,0.552,0.206,-4.07,,,,,160,798000000.0,1.7232878835451606,3.2768651466407936,7.063191756431053,-0.5671141342491286,0.06511453030744424,0.0550309832523547,0.4878003202898831,0.5212211219687858,-2.427035712712841,,,,,,,,,
16,16,0.848,5.3,1.23,4.79,0.11,-1.3,0.7979999999999999,3.7,-1.23,-4.57,,,,,160,848000000.0,3.1319793831661924,2.0996908910927097,6.154428709973492,-0.10696629219118092,-0.3731534179828344,0.4880319753580317,1.870515181987936,-0.4978243485397548,-3.381125997889774,,,,,,,,,
17,17,0.898,1.63,-0.405,2.79,-0.275,5.43,0.39,0.608,-2.91,-6.63,,,,,160,898000000.0,2.5404233258948987,0.6592160904828571,4.809417360419337,-0.22115730806433886,1.489946023065416,0.4308991083358436,1.327056272843422,-1.9014830307871031,-4.827589209403214,,,,,,,,,
18,18,0.948,0.261,0.299,13.6,-2.71,3.77,1.27,1.76,-1.57,4.05,,,,,160,948000000.0,1.6426701764304927,0.4520519210736258,8.323664550232909,-1.9125052722406328,2.2219572598611594,0.9199255856792226,1.5134200658615344,-1.7085912139247947,-0.8751102765666836,,,,,,,,,
19,19,0.998,-4.25,-0.958,11.0,-2.84,0.708,0.47,-1.56,-1.49,1.58,,,,,160,998000000.0,-0.6781638896673852,-0.35888417978300624,9.393594088298572,-2.542804710388903,1.7359010169509737,0.6577097639568328,0.1904439191073808,-1.5813917577828305,0.2179535479039938,,,,,,,,,
20,20,1.05,-2.5,-0.826,9.88,-0.0999,0.282,-0.7490000000000001,0.193,-0.624,0.453,,,,,160,1050000000.0,-1.3956958750510284,-0.6275275218993114,9.588046609882033,-0.8826749404381404,1.269125698536942,-0.16211816052676653,0.19154420443495185,-1.0242800953622997,0.3226008958343872,,,,,,,,,
21,21,1.1,-4.74,1.43,13.9,0.0137,1.26,-0.982,-1.66,1.82,4.56,,,,,160,1100000000.0,-2.712853332573644,0.5557787616950788,11.311853659028532,-0.2735235817197047,1.2661958870437693,-0.6399438160917803,-0.6054665418436538,0.6308225833123329,2.2091750234853262,,,,,,,,,
22,22,1.15,-3.43,0.294,7.96,0.0272,0.057999999999999996,-0.581,-0.633,0.4,-1.44,,,,,160,1150000000.0,-2.995302296281252,0.4052269666365715,9.971869459154158,-0.06916023959946865,0.8783041856162492,-0.6055914490002337,-0.6173185274989841,0.4965056221764107,0.5844898762083506,,,,,,,,,
23,23,1.2,-0.0982,-2.83,4.56,-1.01,2.36,-1.96,3.2,-2.37,-4.66,,,,,160,1200000000.0,-1.854275638380475,-1.4553869814360016,7.808344298086556,-0.7085286408269604,1.3540031119100202,-1.3949383354944955,1.0258742054520549,-1.1715301189351963,-1.7504610018991993,,,,,,,,,
24,24,1.25,-0.316,-11.1,2.94,-3.89,2.25,-2.35,4.11,-9.06,-5.58,,,,,160,1250000000.0,-1.2484242340570102,-7.002108378144578,5.8621064542790675,-2.8705677358698654,1.6416632305175891,-1.9515464979430182,2.353458794664803,-5.761875530351848,-3.4554477097505467,,,,,,,,,
25,25,1.3,-12.8,-4.64,12.2,-4.06,1.88,-3.39,-8.05,-0.219,4.82,,,,,160,1300000000.0,-5.79802406344454,-5.643634245534918,8.395831944400863,-3.6788726228627056,1.7181813338225949,-2.7898746694562706,-2.1247863048235454,-2.5364449586755096,0.2289458758549205,,,,,,,,,
26,26,1.35,-18.4,2.19,9.53,-1.25,2.04,-1.71,-13.7,8.12,3.27,,,,,160,1350000000.0,-10.761324833067544,-1.1384264991122803,8.849242829539609,-2.028278667580534,1.8215013194199263,-2.1605256791599734,-7.107421717197213,3.664600469424898,1.5828834993851144,,,,,,,,,
27,27,1.4,-14.9,1.7,8.03,-0.89,2.71,-0.000535,-9.87,8.19,2.69,,,,,160,1400000000.0,-12.39134606729526,0.4939832831236704,8.521730673663427,-1.2547362866167333,2.106754151142169,-0.9016870014413928,-8.296593718720228,6.297955765447531,2.075793756649776,,,,,,,,,
28,28,1.45,-7.88,-3.02,4.42,-1.44,1.74,1.06,-2.1,3.55,0.00455,,,,,160,1450000000.0,-10.614547918297651,-1.5269464680175044,6.881965094440122,-1.3806363675896407,1.989007602611283,0.2415806166949797,-5.629224536948356,4.698904761035057,1.1536349418163514,,,,,,,,,
29,29,1.5,-7.43,-4.33,4.32,-2.32,1.62,0.905,-0.989,2.3,1.05,,,,,160,1500000000.0,-9.360310444433157,-3.139012803276855,5.857757922412324,-2.0190015946026394,1.870537581114034,0.6282202218072523,-3.631805916667052,3.302968507059908,1.1074945883236915,,,,,,,,,
30,30,1.55,-3.99,-4.43,4.88,-1.75,-0.32299999999999995,2.54,3.09,1.93,2.52,,,,,160,1550000000.0,-7.245208268720387,-3.8814733932221417,5.466875693492316,-1.8361956286442176,1.1663015502532388,1.7424020112321332,-0.7383553764257411,2.504030349603609,1.7363700138858316,,,,,,,,,
31,31,1.6,-8.2,-7.47,3.33,1.34,0.715,0.973,-0.56,-1.69,1.25,,,,,160,1600000000.0,-7.621253878977084,-5.94527370570068,4.6126081468570055,0.3222581787642993,1.0214110174019817,1.2939958989264635,-0.6615809996640623,0.0635003736406472,1.5198284338926416,,,,,,,,,
32,32,1.65,-7.71,-7.67,6.37,0.987,-1.02,1.87,0.257,-2.6,3.75,,,,,160,1650000000.0,-7.65620664318354,-6.937182480727758,5.315167813789996,0.7739981352928397,0.3660152848365282,1.6296900544402408,-0.2661710823661196,-1.4864054781468865,2.5127450627827903,,,,,,,,,
33,33,1.7,-2.35,-6.32,4.85,0.846,-0.897,1.87,5.84,-2.24,1.34,,,,,160,1700000000.0,-5.566351772864685,-6.582234264829697,5.129205740492142,0.8229286010196671,-0.039476229720503235,1.7697422606984734,2.362275038099301,-1.9249263912490449,1.990615707875738,,,,,,,,,
34,34,1.75,-5.0,-1.96,-17.2,-1.94,2.7,-4.54,3.28,2.24,-20.4,,,,,160,1750000000.0,-5.343293556486518,-3.9239374080940888,-3.7974322642563534,-1.0546805001080777,0.8400336108648884,-1.9075641428958168,2.7573164556660803,0.4986677992600352,-7.9781304758431695,,,,,,,,,
35,35,1.8,-16.3,-1.43,18.8,-2.51,-0.8079999999999999,0.28,-8.66,4.55,17.6,,,,,160,1800000000.0,-9.658603128358012,-2.489647022290117,5.236435142467479,-2.0436749542319785,0.31093182047005363,-0.6326556994769028,-2.15735095018149,2.8561609943251782,3.409760864051899,,,,,,,,,
36,36,1.85,-20.4,1.62,5.97,-0.268,0.894,0.27,-12.6,7.34,4.84,,,,,160,1850000000.0,-13.88911295865208,-0.12614460364206706,5.529695275213717,-0.8369758843038395,0.4981260664683458,-0.10658957723233076,-6.652465864078388,5.4653323191995815,4.046531771932373,,,,,,,,,
37,37,1.9,-0.6559999999999999,-2.28,4.3,-0.0473,0.36,2.65,7.76,2.67,3.39,,,,,160,1900000000.0,-8.677238093821018,-1.3648501025747697,5.038095053160401,-0.3003342220700989,0.4537806479219782,1.4999459194006708,-0.4485142992208964,3.8387127027831567,3.754230847872485,,,,,,,,,
38,38,1.95,6.81,-5.44,-0.113,0.422,-2.3,0.466,15.6,-1.17,-1.2,,,,,160,1950000000.0,-2.5775737887291448,-3.7085128820647366,2.9788207639916924,0.19054392216246654,-0.43032160063974295,0.8973640942690615,6.459686360175015,0.9241145235465068,1.5485089588856351,,,,,,,,,
39,39,2.0,8.4,-4.9,1.12,-0.622,-3.79,-4.31,16.6,-0.122,-1.21,,,,,160,2000000000.0,1.7459545583229559,-4.393750054962473,2.2357124036140714,-0.3616382050793729,-1.5089475424944419,-2.137478288173313,10.824658782992103,0.3153745744519275,0.32036602328293506,,,,,,,,,
40,40,2.05,-10.1,-19.0,-2.8,-3.83,4.79,-8.89,-4.03,-11.7,-5.31,,,,,160,2050000000.0,-2.9195867302669622,-12.793962249629582,0.22256512538359585,-2.7186398994497765,0.5133318110913241,-6.07283598076882,4.430362046445176,-6.676439626076133,-2.1863846139330443,,,,,,,,,
41,41,2.1,-14.1,-12.8,8.08,1.3,4.71,-9.35,-12.1,-3.27,8.36,,,,,160,2100000000.0,-7.32300391177059,-12.797434734811892,3.363763899274614,0.0123154356896924,1.860673649321714,-7.9827614913953875,-2.685253504068867,-4.69421316158283,2.5090749085969644,,,,,,,,,
42,42,2.15,0.153,-7.13,-3.47,1.34,-7.0,-7.57,-1.69,2.45,-4.45,,,,,160,2150000000.0,-4.3785722396974185,-9.538031836075827,0.6318022066474578,0.9145727837443042,-0.9840488011381604,-7.742204937628579,-2.256839370139287,-0.5369551542216655,-0.589243227130567,,,,,,,,,
43,43,2.2,-1.02,-5.93,4.53,-0.232,-9.0,-6.16,-6.26,2.33,5.27,,,,,160,2200000000.0,-3.0557951716054643,-7.463013636045604,2.1902007301105715,0.13539396748759247,-3.557572806159916,-6.82009866056743,-3.980029274891464,1.1313421943233657,2.019408099254192,,,,,,,,,
44,44,2.25,6.57,-16.0,-5.66,2.31,-1.44,2.6,0.504,-8.57,-3.49,,,,,160,2250000000.0,0.7353340229408372,-12.372726754063336,-0.9481059898099612,1.6131954150196046,-2.8777253162513707,-1.3300821821618258,-2.0498460357643005,-4.5139234310774805,-0.4334897000433737,,,,,,,,,
45,45,2.3,17.2,-18.7,-7.08,1.51,-1.14,3.41,12.7,-10.1,-5.78,,,,,160,2300000000.0,7.2199596076875805,-16.011610416082227,-3.399478250754011,1.5430666884729127,-2.319827976138264,1.4324292268389796,4.299333113831337,-7.7644931511457775,-2.813862256289137,,,,,,,,,
46,46,2.35,4.16,-7.3,3.41,-1.06,0.86,-0.603,0.0982,1.48,5.02,,,,,160,2350000000.0,6.014791372999128,-11.001469228199003,-0.6772253080653869,-0.22590464674596802,-1.2989430602710004,0.2461847478159547,2.4909246025803498,-2.385070374955257,0.6739286392529138,,,,,,,,,
47,47,2.4,3.56,-9.13,-1.38,0.969,0.6890000000000001,-0.6409999999999999,-0.735,-0.424,0.0408,,,,,160,2400000000.0,5.047969294848743,-9.925167115713613,-0.9581764126319242,0.5861191451087221,-0.6607132249961047,-0.2708649095704277,1.1023017294403756,-1.2439124473724923,0.3920472081411957,,,,,,,,,
48,48,2.45,-1.98,-14.2,1.78,0.951,0.0244,-0.775,-6.66,-5.65,2.72,,,,,160,2450000000.0,2.279996499434668,-12.383669596340642,0.13647553433970228,0.8340819599905228,-0.440757378742464,-0.5646739184414402,-2.239037823693563,-3.8078397293863233,1.4284979914995173,,,,,,,,,
49,49,2.5,1.59,-11.7,3.57,1.16,1.76,0.26,-3.24,-3.13,3.91,,,,,160,2500000000.0,2.008240696063188,-11.990483713302384,1.5091095947918425,1.0555667289317994,0.2657965633129277,-0.08405544955158463,-2.6699093261256284,-3.413401029924876,2.533311958071513,,,,,,,,,
50,50,2.55,5.54,-16.1,7.72,2.85,1.46,0.43,0.8640000000000001,-7.52,6.92,,,,,160,2550000000.0,3.3992276413664677,-14.353911161143332,3.992062513564631,2.2750133664745142,0.6491960168677589,0.21553514481287472,-1.14871217003106,-5.803054148049723,4.486352542272115,,,,,,,,,
51,51,2.6,10.5,-9.0,-5.04,3.65,0.649,0.963,6.23,-0.561,-7.65,,,,,160,2600000000.0,6.1958739892937835,-11.27481899209001,0.3812780397887541,3.2094159209522104,0.6491330820610784,0.6511563159700589,2.027508522317218,-2.7526732331373016,-0.9169924429840676,,,,,,,,,
52,52,2.65,3.24,0.773,4.43,3.07,-0.0806,0.6890000000000001,-0.6729999999999999,8.88,0.541,,,,,160,2650000000.0,5.031700044135554,-4.345988086597888,1.9998520711932433,3.1146727119354987,0.41485201426071294,0.6732115529808518,0.8650548638802571,4.016445073481824,-0.267865276286241,,,,,,,,,
53,53,2.7,1.9,-1.13,1.75,-2.06,1.51,1.19,-1.59,6.81,-2.84,,,,,160,2700000000.0,3.79827681697577,-2.4964385797323434,1.8999676890977142,-0.401890208671555,0.7664496644819904,0.9743949625268208,-0.1917414937604212,5.6420304261595895,-1.4130306494400922,,,,,,,,,
54,54,2.75,1.99,-7.24,0.915,-3.44,-0.635,1.18,-0.866,1.46,-2.59,,,,,160,2750000000.0,3.0860851744120867,-5.224511885061943,1.506203145156,-2.466504756299693,0.31651375053291764,1.094221177507,-0.4819810035857944,3.2084833289029464,-1.937040717724676,,,,,,,,,
55,55,2.8,8.47,-9.92,4.13,-3.42,0.588,-0.971,5.82,-0.654,2.29,,,,,160,2800000000.0,5.206545558275858,-7.924937888473124,2.5551291667395795,-3.1144735286256,0.40367450806209465,-0.1093860144962806,2.230752939495201,0.9608824788700518,-0.0550783406894324,,,,,,,,,
56,56,2.85,4.86,-0.915,-3.6,-2.72,0.4970000000000001,-0.787,1.59,8.31,-4.18,,,,,160,2850000000.0,5.070058293567016,-3.8934468640183417,0.09446810006893848,-2.8464003622868246,0.4336366935253839,-0.5042982251576749,1.9549361591503889,5.23737570650529,-1.8915752273850133,,,,,,,,,
57,57,2.9,1.3,-0.654,-14.4,-5.46,1.19,0.0496,-2.12,8.49,-13.4,,,,,160,2900000000.0,3.585217017291998,-2.0304059544294377,-5.700044408719213,-4.6225296602562125,0.6764674224929786,-0.1814873362642316,0.20085010002565,7.130096016141138,-7.015354098908403,,,,,,,,,
58,58,2.95,-2.35,-22.9,7.46,-6.6,-3.4,-1.41,-6.0,-14.7,11.3,,,,,160,2950000000.0,1.2476258524836972,-14.032734810542744,-0.4389997367770437,-5.966363174370662,-0.6322839349747211,-0.8974622847118191,-2.4683512311949283,-5.572960011626667,1.139005016136414,,,,,,,,,
59,59,3.0,3.08,-29.5,10.3,1.16,-5.42,-0.653,-0.35100000000000003,-21.4,14.7,,,,,160,3000000000.0,1.9693082266679716,-22.92812617735775,3.8541740878811153,-1.1234859427917447,-2.1693819178896714,-0.7549901037856379,-1.5569218941642133,-14.782803728675717,7.176628954590861,,,,,,,,,
60,60,3.05,8.48,-8.96,2.0,2.87,0.69,0.802,5.22,-0.7290000000000001,6.23,,,,,160,3050000000.0,4.533550561239911,-14.894905879692542,3.1129233462680714,1.590375421009171,-1.2513763292175089,0.1524209165361703,1.3602536688098774,-6.6048159659206735,6.7551709709325145,,,,,,,,,
61,61,3.1,1.68,-17.0,1.91,5.7,-2.11,1.05,-1.02,-7.95,4.55,,,,,160,3100000000.0,3.4096767769036926,-16.10556825825444,2.632025757905303,4.3831613044206135,-1.5270377327423934,0.6755283620684684,0.3356560558966524,-7.38758604014845,5.77338518795679,,,,,,,,,
62,62,3.15,4.38,-15.4,-1.44,5.64,0.779,0.71,2.23,-5.86,-1.39,,,,,160,3150000000.0,3.791839601055168,-15.699788108394735,1.0041353806976585,5.237273666585132,-0.7866834972968045,0.6956183580668011,1.151090286161363,-6.498675175331409,2.584103983695621,,,,,,,,,
63,63,3.2,0.136,-19.5,1.37,5.5,1.24,0.902,-1.69,-10.2,-1.2,,,,,160,3200000000.0,2.3519834935997586,-17.885331036545654,1.150398574480238,5.415815140413809,-0.1360160311377795,0.8158972131325105,-0.07187785600374408,-8.652496879911226,0.899345790510981,,,,,,,,,
64,64,3.25,3.96,-15.6,-2.72,2.69,-2.69,1.08,2.56,-7.15,-7.52,,,,,160,3250000000.0,2.9853024298485584,-16.57101267900326,-0.3968864693731224,3.5634273876822258,-0.9559735179671852,0.9698158666864848,1.0610332143821002,-7.778185516908055,-2.8491139907369956,,,,,,,,,
65,65,3.3,3.06,8.34,-14.0,-0.993,-0.0513,-1.98,0.862,16.3,-19.3,,,,,160,3300000000.0,3.014722120578918,-2.244419983625201,-5.835058677003561,0.4670066923411342,-0.6655277609497426,-0.7493315189800727,0.975357904906356,6.233046152567004,-10.17337449574782,,,,,,,,,
66,66,3.35,-1.71,8.8,0.103,-5.28,2.04,0.624,-4.21,17.4,-3.92,,,,,160,3350000000.0,1.1538855379068316,4.107345416857166,-3.4611767276613588,-3.4384985879121146,0.20308288401943156,0.051043624444566005,-1.2567173914140453,12.731159430316087,-7.3892481342994785,,,,,,,,,
67,67,3.4,10.6,-28.3,-17.7,2.98,3.55,2.35,9.7,-19.1,-21.2,,,,,160,3400000000.0,4.87424738660521,-14.530468723185614,-9.153489517939251,0.9233336889039618,1.2776118082102397,1.3908712041677955,3.4596817580734265,-5.791572203658352,-13.538069216437172,,,,,,,,,
68,68,3.45,1.83,-0.594,-6.89,-7.52,2.15,-1.4,1.56,9.06,-8.59,,,,,160,3450000000.0,3.675267503020255,-6.515454937180596,-8.248605023144687,-4.814519908962702,1.5576923804344858,-0.2356434934277698,2.641949810278561,2.8506417674942157,-11.335090697179899,,,,,,,,,
69,69,3.5,1.15,-9.96,10.7,-0.531,-0.414,-0.779,0.373,-0.193,10.4,,,,,160,3500000000.0,2.680688343198064,-8.496450050306757,-0.6734439439565012,-1.903559501815868,0.9246798336583686,-0.5523106777141018,1.6652637483365471,1.0795294344516884,-1.6581972541491723,,,,,,,,,
70,70,3.55,-3.16,-59.0,1.21,-9.71,2.21,-4.41,-4.7,-49.3,2.37,,,,,160,3550000000.0,0.3803273205602435,-37.541587423539795,0.0795081427141966,-7.2085983252808346,1.3373323459217383,-2.8005649781996773,-1.0747105596135782,-28.23660277518986,0.13523603378627191,,,,,,,,,
71,71,3.6,-1.74,-12.2,19.2,1.8,-0.695,-1.35,-4.65,-3.46,22.6,,,,,160,3600000000.0,-0.4547657347630149,-22.96736651737359,7.723385504275856,-1.0866066973124129,0.684851320245441,-1.9551783352359235,-2.6137201203016702,-13.818957737640266,10.136994832929568,,,,,,,,,
72,72,3.65,1.69,-2.33,-0.74,3.31,4.82,1.62,-1.67,6.61,1.48,,,,,160,3650000000.0,0.38995243339754027,-11.0985939591688,4.33994334009385,1.9012043042114184,2.012442340880411,0.12842916250002556,-2.2074888656631915,-1.93123179719052,6.2827289829273845,,,,,,,,,
73,73,3.7,-0.373,3.16,-0.199,1.93,-0.86,1.14,-3.25,12.5,0.485,,,,,160,3700000000.0,0.08946285037717032,-2.8983224297673638,2.525391438154648,1.9207730186768397,1.0902436933685822,0.7179708164409039,-2.6562454172161107,6.466383473744908,3.7014650164106206,,,,,,,,,
74,74,3.75,-11.8,-0.797,1.09,5.03,-1.96,3.19,-13.9,8.75,0.29100000000000004,,,,,160,3750000000.0,-4.5932141477545505,-1.6898291859856784,1.9515591587319985,4.033716924822028,0.11096185026841066,2.1586650058962467,-7.496201745452554,7.7952328251615794,2.1830583296862627,,,,,,,,,
75,75,3.8,-18.1,-51.7,-7.14,0.487,-1.89,6.75,-18.1,-42.4,-10.3,,,,,160,3800000000.0,-9.91287551484894,-30.451219325064407,-1.6830104935505084,1.623467214321391,-0.531447664240003,4.8344867715652935,-12.060684514538504,-21.41365747875148,-3.3746469933930494,,,,,,,,,
76,76,3.85,0.0718,-13.2,-2.2,2.85,-4.42,-0.885,2.4,-4.17,-5.24,,,,,160,3850000000.0,-5.980401002750144,-20.529856545788487,-1.889689517333742,2.4569845529941343,-1.7798688096465545,1.5011801873265118,-5.83597693598211,-11.379475867321267,-4.205139059518035,,,,,,,,,
77,77,3.9,11.5,-0.0168,-14.6,-1.92,-0.0464,-0.773,12.9,8.9,-18.4,,,,,160,3900000000.0,0.9042725447981228,-8.732576039206164,-6.970942359638162,-0.5174917973484772,-1.2233380269075154,0.1757920687901542,2.2290613659138057,0.42126542904551023,-10.524972613140553,,,,,,,,,
78,78,3.95,2.67,7.71,6.4,-3.06,2.75,-4.29,3.21,17.3,4.36,,,,,160,3950000000.0,1.599706112160476,0.7237271595248806,-1.6255861303509658,-2.2453092780189805,0.05230357053187529,-2.4268634838742216,2.6513136002904574,10.243095940272926,-3.897887421427144,,,,,,,,,
79,79,4.0,-18.1,-5.76,10.6,3.8,-3.88,0.472,-19.0,3.82,8.66,,,,,160,4000000000.0,-6.159043139062251,-3.0051345318701514,3.2618864795685796,1.8629139278740772,-1.210163936724148,-0.7374110645951109,-6.6686528804877865,6.505460104791343,1.693133145085694,,,,,,,,,
80,80,4.05,0.998,-3.76,-9.14,-3.84,4.02,1.86,1.13,5.78,-11.4,,,,,160,4050000000.0,-3.3402344774253443,-3.439265815017277,-1.6960664251527682,-2.0126269409909634,0.4689820633393012,0.7763554343069912,-3.3116656445745463,6.083310895480852,-4.136189335225623,,,,,,,,,
81,81,4.1,12.0,-9.61,-22.6,2.0,-0.6659999999999999,-1.99,12.6,0.0536,-24.2,,,,,160,4100000000.0,2.7015323277699403,-6.988121535124147,-10.052917407498892,0.7142421880273591,0.10459566241207352,-0.8358715362190552,3.5376275093559015,2.574588076761508,-13.068996258356414,,,,,,,,,
82,82,4.15,16.2,-35.2,-6.95,-2.53,-1.8,-5.3,14.9,-25.6,-8.11,,,,,160,4150000000.0,8.017917721526409,-23.213078167780274,-8.812451376888284,-1.4904541173285373,-0.5068754422346926,-3.4375576762721014,8.42864378460925,-13.820364039191956,-10.861152582449755,,,,,,,,,
83,83,4.2,-2.86,-30.4,-1.29,-2.53,-1.27,-0.652,-5.86,-21.1,-0.7559999999999999,,,,,160,4200000000.0,3.7336389080263066,-27.34635436392096,-5.805170277131866,-2.196900427769373,-0.7518768488579534,-1.8141396851055032,2.2779923815968304,-18.05642553233972,-6.362138153879293,,,,,,,,,
84,84,4.25,0.6920000000000001,-12.5,26.5,-3.21,2.09,-1.92,-2.7,-3.61,28.7,,,,,160,4250000000.0,2.5356863483752443,-18.808055523120338,7.109599475272856,-2.8853746100906714,0.16050870433786255,-1.8758348609629016,0.13517908911188048,-9.649968880082898,9.248221741315358,,,,,,,,,
85,85,4.3,-5.16,-1.7,4.26,0.901,0.033,-0.8009999999999999,-9.34,6.79,6.85,,,,,160,4300000000.0,-0.4952674137286106,-8.969027930645789,5.970403555918196,-0.3122602265695713,0.11957198905827268,-1.2494230391921672,-3.9434811973856094,-0.08345818017018125,8.18048579776814,,,,,,,,,
86,86,4.35,-6.12,1.29,4.49,1.02,1.68,2.19,-10.2,9.97,6.48,,,,,160,4350000000.0,-2.7105739650345337,-3.0689501192786395,5.378576493647149,0.5931065780363494,0.6205479443323504,0.7550665470708029,-6.636645447165827,5.766706058640598,7.423395790650789,,,,,,,,,
87,87,4.4,1.56,2.14,5.66,2.05,0.0342,1.96,-1.55,11.3,6.97,,,,,160,4400000000.0,-1.0286041285672962,-0.07322655167937064,5.491082256212246,1.5831705996904963,0.43230072716268253,1.4572996156109428,-4.447061646995686,8.986561158695071,7.221534895655192,,,,,,,,,
88,88,4.45,-1.09,-6.05,5.28,3.04,-0.337,1.36,-3.49,3.45,5.36,,,,,160,4450000000.0,-1.0527849675375052,-3.5105336631201416,5.4066971251392015,2.5731911204985893,0.1853164490372218,1.4005935832043752,-4.035087457076955,5.7648049851612475,6.392742685819584,,,,,,,,,
89,89,4.5,-1.85,-58.8,-1.17,1.51,-0.238,4.12,-3.28,-49.2,-2.49,,,,,160,4500000000.0,-1.3667689207078173,-35.30810283375015,2.7775040944385467,1.8506761413155342,0.04941054961198663,2.9854586786250015,-3.7100545197421377,-26.21952584681313,2.437969400028701,,,,,,,,,
90,90,4.55,-0.529,-18.6,-3.65,2.62,-0.319,2.26,-0.197,-9.04,-5.89,,,,,160,4550000000.0,-1.0368127809841123,-25.699092547227025,0.20795451516511188,2.3734870577672966,-0.0688677912030314,2.5626626616996804,-2.1978344760774107,-16.22266272754306,-1.2698077482743722,,,,,,,,,
91,91,4.6,2.83,-4.54,-1.62,-0.622,-2.35,0.938,4.01,4.83,-4.28,,,,,160,4600000000.0,0.4861352988176975,-13.5302697328443,-0.522814322772875,0.3378377818417553,-0.8012260736948824,1.6158122020603722,0.4743734294815356,-3.9719994537122383,-2.61000515579211,,,,,,,,,
92,92,4.65,6.34,1.84,-12.5,-0.713,0.236,-1.83,7.06,11.3,-15.1,,,,,160,4650000000.0,2.7916858696160194,-4.690661482171095,-5.310982717374541,-0.3762822068214404,-0.4682242705715398,-0.3924009684784491,3.3092045853167416,4.914863375065612,-8.170798837679126,,,,,,,,,
93,93,4.7,0.8809999999999999,6.42,4.82,-2.03,0.1,-1.51,0.8009999999999999,16.1,3.03,,,,,160,4700000000.0,2.039160307781584,1.6992000541876342,-1.2608783453796593,-1.50010258350388,-0.2857956643951045,-1.0437356657196255,2.2295295548529577,11.423557757673352,-3.1839809787332447,,,,,,,,,
94,94,4.75,1.26,-9.43,13.4,2.69,0.403,2.05,0.987,0.246,11.8,,,,,160,4750000000.0,1.7322872317522149,-4.7013233469185165,4.600160666262139,1.347374071175512,-0.06465757042011899,0.7592878807210361,1.6946736046297306,4.9192737866534335,3.4871847271905367,,,,,,,,,
95,95,4.8,9.01,-2.94,8.65,-1.31,5.33,0.077,9.72,6.66,6.83,,,,,160,4800000000.0,4.598621828430156,-3.6883672882075285,6.219181310765192,-0.4585030436105389,1.6672991513193454,0.36165173237931103,5.14923423183583,5.9322121106839685,4.975472375714509,,,,,,,,,
96,96,4.85,9.71,-13.3,-15.7,-3.52,-0.259,-2.53,9.8,-3.62,-17.4,,,,,160,4850000000.0,6.611743286365567,-9.216121244376481,-2.5435391732322383,-2.5390108031705063,1.0488601174006584,-1.3235976727753846,7.151190494032411,0.3737260120489463,-4.986531696075343,,,,,,,,,
97,97,4.9,6.23,-32.6,-6.64,-0.918,-0.95,-3.02,4.85,-22.9,-6.78,,,,,160,4900000000.0,6.461393315911974,-22.66444175121788,-4.181197981382634,-1.4374171517335201,0.4071253642171781,-2.312257882782144,6.160626154379544,-13.169386351024759,-5.785019461653231,,,,,,,,,
98,98,4.95,-5.48,-31.4,4.41,-3.53,-2.22,-3.46,-8.45,-22.1,5.49,,,,,160,4950000000.0,1.7582635192151308,-27.68835548679987,-0.7466597664646035,-2.859477954980167,-0.4363141846168447,-2.981159943870068,-0.12862477783779802,-18.366161083414205,-0.7651571975066718,,,,,,,,,
99,99,5.0,6.19,-10.3,17.6,-2.08,-0.581,-1.35,2.12,-1.81,20.2,,,,,160,5000000000.0,3.5037074199647877,-17.68812443825236,6.587859429799103,-2.329766468842253,-0.4827656080042714,-2.0305228801612216,0.8393121740536125,-8.732037428791166,8.568947085138253,,,,,,,,,
100,100,5.05,-6.13,-2.27,2.24,-0.111,1.46,-0.4270000000000001,-10.8,5.87,5.11,,,,,160,5050000000.0,-0.290537999033591,-8.82099443755518,4.84969792664613,-0.8219547850100328,0.140959998909572,-1.0959926254540524,-4.1709150621211535,-0.2350294629411032,7.028955275131077,,,,,,,,,
101,101,5.1,-6.92,1.27,5.08,0.6579999999999999,1.05,2.04,-11.5,9.6,7.57,,,,,160,5100000000.0,-2.9015583177670154,-3.0175544930506657,4.941766695825575,0.18378112169895175,0.4328076017178591,0.7316582065739632,-7.325773340784265,5.488029938516843,7.269839197653128,,,,,,,,,
102,102,5.15,0.22,2.59,7.19,1.65,0.269,2.57,-3.34,11.5,9.09,,,,,160,5150000000.0,-1.6721294296155615,0.2074106479705136,5.84055212128558,1.1801824790655993,0.3802171104934632,1.8030404540630305,-5.610067983510715,8.986429264799321,8.0802109676447,,,,,,,,,
103,103,5.2,2.15,-2.98,2.7,2.34,0.0122,0.7120000000000001,-0.489,6.42,3.62,,,,,160,5200000000.0,-0.16677986516256582,-1.6257036733280763,4.585040802878554,1.9683619947771864,0.2620650852099188,1.1671840496006576,-3.4056667678565358,7.4930096282743985,6.094436501201813,,,,,,,,,
104,104,5.25,-12.7,-47.0,-0.56,2.24,-1.06,3.48,-14.7,-37.4,-0.894,,,,,160,5250000000.0,-5.103001168163111,-27.720951855579358,2.52818684431169,2.1529595981947445,-0.16238436580641746,2.5150890312780847,-8.267395128174694,-18.630487057558454,2.983045919739633,,,,,,,,,
105,105,5.3,-0.979,-26.3,-1.32,2.27,1.3,2.72,-0.742,-16.6,-2.45,,,,,160,5300000000.0,-3.4787591419961945,-26.90374664828512,0.9897814649379282,2.232496971395188,0.3071146435925577,2.6345107914830024,-5.028033683640503,-17.448935395289872,0.5641460608399353,,,,,,,,,
106,106,5.35,3.51,-6.32,-1.23,-0.359,-0.635,1.49,4.84,3.23,-3.03,,,,,160,5350000000.0,-0.7262293160579847,-15.065811598870445,0.10237036260573852,0.4713880554625936,0.0046484027091062705,1.9674919690037875,-0.7802662602542192,-5.415746110910689,-1.0360390622667008,,,,,,,,,
107,107,5.4,7.44,-0.0431,-8.7,-0.306,-2.38,-1.46,8.67,9.52,-10.5,,,,,160,5400000000.0,2.4900483506028968,-6.426087806010145,-3.4165890816544757,-0.05690313763340405,-0.7609438582937448,-0.03004419992500007,3.2876700837962574,3.2754491543707513,-5.2495822412087625,,,,,,,,,
108,108,5.45,3.05,5.72,4.35,-0.691,1.53,-2.64,3.17,15.4,2.93,,,,,160,5450000000.0,2.7105858531245457,0.5592584346088456,-0.3117081087638169,-0.4878176339506493,-0.025435520782389642,-1.5511218008729544,3.237018167429402,10.330793532587661,-1.6078699109188794,,,,,,,,,
109,109,5.5,-10.2,4.58,7.74,1.4,-4.1,0.272,-10.9,14.2,6.21,,,,,160,5500000000.0,-2.374261318243325,2.8716303175638846,2.9071560077305008,0.7950904554197259,-1.3335758763940901,-0.4886096901120753,-2.8483646567121546,12.582306513049351,1.8728009006443167,,,,,,,,,
110,110,5.55,-3.62,-7.87,-2.52,-1.82,5.87,2.74,-3.42,1.7,-4.64,,,,,160,5550000000.0,-2.8648967081414263,-3.305997298177032,0.7375197110444158,-0.9820519703208066,0.9791347034821564,1.3930182281872974,-3.094429308865936,6.249830932250715,-1.0268272179308922,,,,,,,,,
111,111,5.6,5.71,-6.02,-13.3,2.25,0.647,-0.0879,7.26,3.62,-14.3,,,,,160,5600000000.0,0.512335015137781,-4.866849571538077,-4.874316904304137,1.2143602232019948,0.8725027426498881,0.529941753165755,1.362710705867156,4.719517396438953,-6.936307171455652,,,,,,,,,
112,112,5.65,8.75,-30.3,-2.87,-1.94,0.913,-6.19,9.14,-20.6,-4.0,,,,,160,5650000000.0,3.756747669396852,-19.4937288028976,-4.0730429105173815,-0.9292548690999379,0.8855043976545875,-3.386428231458056,4.710501979437632,-10.01405296904299,-5.6290049609999,,,,,,,,,
113,113,5.7,0.124,-28.1,-6.47,-2.86,-2.7,-3.35,-2.01,-18.5,-6.73,,,,,160,5700000000.0,2.325986338782553,-24.443288596614572,-5.031284143789842,-2.2413352306233145,-0.26562308943647017,-3.3651978681907875,1.817612695683496,-14.952073463550393,-6.119189805117187,,,,,,,,,
114,114,5.75,-9.25,-28.1,14.6,-3.54,1.55,-1.68,-12.5,-19.0,16.1,,,,,160,5750000000.0,-2.233227544289,-26.54630306255279,2.816794582083461,-3.123871488444636,0.3172833387719243,-2.38306755504498,-4.3455085297531495,-17.30758477234468,3.7732345051983702,,,,,,,,,
115,115,5.8,-1.96,-4.96,5.6,-1.04,-0.598,-2.26,-6.32,3.35,8.45,,,,,160,5800000000.0,-2.1256166157008827,-14.131786907774815,3.9294479315639728,-1.7077306365119622,0.023431298069595763,-2.3113440000487637,-5.195442915208387,-5.286819602610665,5.855423207805497,,,,,,,,,
116,116,5.85,-8.74,0.0,4.07,0.879,0.451,1.08,-13.5,8.07,6.98,,,,,160,5850000000.0,-4.73069808587344,-6.004443533409329,3.9856370741523226,0.05013921872881233,0.16070238465695216,-0.33487479954625843,-8.770200322395405,2.4855889678829914,6.356107116318072,,,,,,,,,
117,117,5.9,-0.563,-0.28,0.34,1.28,1.42,2.64,-4.57,8.4,2.52,,,,,160,5900000000.0,-3.0892460047337886,-2.7122541933691853,2.5282058653575623,0.8859182155657769,0.5650003215715992,1.3988769370823515,-6.962193411587198,5.927217922115986,4.648196109461002,,,,,,,,,
118,118,5.95,4.06,1.24,-1.02,2.5,-0.688,1.46,1.01,10.4,0.449,,,,,160,5950000000.0,-0.2735082849859416,-0.4392700888520409,1.1097251346946693,1.9828030878478529,0.16272411179966334,1.434499370301435,-3.530504385365945,8.529954847503147,2.7786306879157543,,,,,,,,,
119,119,6.0,-8.42,-19.5,1.41,2.56,-0.489,2.76,-10.8,-9.99,1.82,,,,,160,6000000000.0,-3.4820122851008968,-11.401301852061732,1.2297672296134778,2.37504993965486,-0.04651214547510826,2.2069987445339114,-6.659712085599315,-2.24691132081956,2.351829309321914,,,,,,,,,
120,120,6.05,1.19,-48.6,1.32,2.17,1.2,4.49,-8.42,-9.72,0.865,,,,,160,6050000000.0,-1.6419355167282272,-32.79467428962633,1.2658399734211492,2.2357037830021267,0.3536810408434472,3.537527631191941,-7.4174409408855055,-6.5955439765546675,1.6898634056607045,,,,,,,,,
121,121,6.1,1.38,-15.6,-2.83,0.728,0.55,2.52,2.91,-6.08,-4.42,,,,,160,6100000000.0,-0.4517431705507253,-22.905831500400023,-0.3715706565285529,1.2111104175232636,0.416709316861496,2.9445143491624517,-2.9719183283490658,-6.295545981103975,-1.0303690390880758,,,,,,,,,
122,122,6.15,4.89,-2.69,-3.11,-0.642,-2.32,0.53,7.22,6.7,-4.71,,,,,160,6150000000.0,1.6521077067316785,-11.279488362815476,-1.4663236881937125,-0.04821164700678038,-0.4619121686221647,1.5373397182844957,1.4152674559980634,1.266635495642178,-2.6686137654892597,,,,,,,,,
123,123,6.2,5.75,3.89,-3.76,-1.63,0.8109999999999999,-2.77,7.52,13.4,-5.14,,,,,160,6200000000.0,3.2660667153223684,-2.5553516067760533,-2.3832760235704185,-1.12315080253914,-0.05324326408825908,-0.972970100990418,4.043094273198043,8.327108591640911,-3.768923891122492,,,,,,,,,
124,124,6.25,-1.12,7.03,3.19,0.535,-1.2,-1.78,-0.621,16.8,2.24,,,,,160,6250000000.0,1.5386099183736166,2.9572878128446654,-0.15522470136611674,0.0036821606815264922,-0.4214099404177623,-1.443305656015889,2.035400744004388,13.25753150167925,-1.093631750655486,,,,,,,,,
125,125,6.3,-4.23,-12.0,5.51,1.58,1.28,1.88,-3.98,-2.27,4.06,,,,,160,6300000000.0,-0.7333629177311087,-5.644810053301406,2.1095853876098696,1.0749037404083963,0.12482832149186113,0.4935108923298532,-0.5539725621760541,4.2219732533773975,1.2008673297532009,,,,,,,,,
126,126,6.35,4.15,-5.27,9.9,-1.27,5.92,2.19,5.82,4.34,8.83,,,,,160,6350000000.0,1.18995452527639,-5.4292527300668185,5.223991075773499,-0.51862729605751,1.985370290151161,1.482221722287952,2.1897506744576067,4.290653772484862,4.597508526181658,,,,,,,,,
127,127,6.4,16.3,-18.3,-15.0,-1.6,-1.62,-3.35,18.2,-8.71,-15.9,,,,,160,6400000000.0,7.141060859343072,-12.831358141747147,-2.8610363665115535,-1.2534979809533358,0.827864864932847,-1.3339883391551104,9.081480059945148,-3.2745000900953847,-4.528388780104773,,,,,,,,,
128,128,6.45,7.49,-21.2,-8.74,-0.595,0.28600000000000003,-5.83,6.76,-11.4,-8.73,,,,,160,6450000000.0,7.278490801323825,-17.644254953993908,-5.2112935576043915,-0.8060011754509677,0.6538989601478593,-3.954255793412169,8.082182067650464,-8.002774147563398,-6.399029253351396,,,,,,,,,
129,129,6.5,-4.65,-35.7,-5.66,-3.65,-2.47,-2.81,-7.43,-26.4,-4.55,,,,,160,6500000000.0,2.5804426429491807,-28.028309499058327,-5.39067470215835,-2.738703360759632,-0.3490299296854096,-3.287385544443413,1.4048497827209276,-18.70822353185715,-5.575804829062984,,,,,,,,,
130,130,6.55,-1.22,-11.9,13.1,-3.06,-1.09,-3.06,-5.0,-3.3,15.9,,,,,160,6550000000.0,1.0836344675679466,-18.752744186429158,2.001417932642801,-2.9570475386893214,-0.5869186470130116,-3.1548656253102387,-1.3521647057015245,-9.742091226039024,3.9856494011277768,,,,,,,,,
131,131,6.6,-7.35,-3.42,6.31,-0.32299999999999995,0.355,-0.66,-12.1,4.43,9.79,,,,,160,6600000000.0,-2.2379609273459264,-9.934717346115686,3.723877345266871,-1.1670224539908536,-0.2845153312843833,-1.7008624473627372,-5.97864927325813,-1.4952714166241154,6.569861431824307,,,,,,,,,
132,132,6.65,-8.26,0.898,3.65,0.821,0.904,2.38,-12.9,8.96,6.76,,,,,160,6650000000.0,-4.609747173843222,-3.7047045289544065,3.694343135596801,0.18398203326722795,0.09705793669347547,0.6774569041115763,-8.957995210901098,4.588710080191269,6.654514996718024,,,,,,,,,
133,133,6.7,0.903,2.2,6.97,1.2,-0.621,2.2,-2.71,10.9,9.57,,,,,160,6700000000.0,-2.438546146108699,-0.3088451141677861,5.003865763681233,0.8744394814133034,-0.13347481860546662,1.5647923061182802,-6.268499937905212,8.261285100209218,7.952546628910872,,,,,,,,,
134,134,6.75,0.792,-2.8,-2.74,2.13,0.8340000000000001,0.979,-2.02,6.43,-1.0,,,,,160,6750000000.0,-1.1661922931734263,-1.7415351837587605,1.9080689424079267,1.727683398718053,0.1771333158602268,1.2233935889935783,-4.439702021824125,7.195649859876268,3.9666952469584333,,,,,,,,,
135,135,6.8,-11.8,-57.0,3.21,2.19,1.01,6.17,-13.7,-47.4,3.89,,,,,160,6800000000.0,-5.354328247865375,-33.52127548360753,2.428547249462948,2.0418608795654953,0.4445254602108419,4.1062669410613655,-8.425865012868574,-24.573867964162865,3.932549048047969,,,,,,,,,
136,136,6.85,-1.39,-26.3,-6.25,1.93,0.7390000000000001,3.21,-0.479,-16.5,-6.66,,,,,160,6850000000.0,-3.7929735674968175,-29.368241473128123,-1.0409109998105226,1.9658433163213445,0.5390666239343532,3.5839242042000867,-5.005078778161206,-19.875638605490238,-0.7834638813931671,,,,,,,,,
137,137,6.9,2.18,-7.39,-2.32,-0.0174,-2.12,1.79,4.41,2.11,-3.22,,,,,160,6900000000.0,-1.4405118834952733,-16.728317203984428,-1.5522576024260273,0.6180865836858891,-0.3146276318518394,2.538428386578825,-0.9522892419615251,-7.08207141673989,-1.8682581161642933,,,,,,,,,
138,138,6.95,9.86,-0.268,-10.3,-0.129,-2.23,-0.848,4.67,2.01,-3.59,,,,,160,6950000000.0,3.0102059725853483,-7.26181089543679,-5.049378354681779,0.1103874247092962,-0.9295586231695816,0.5648240276005694,1.4678663642403826,-1.7913437251211681,-2.6348117248081,,,,,,,,,
139,139,7.0,2.95,7.28,3.19,-0.774,0.726,-3.38,4.2,17.0,2.32,,,,,160,7000000000.0,2.986493808401544,1.1013418260684116,-1.755488423757113,-0.490617545872383,-0.3980409303875759,-1.7342123778385932,2.643933211671861,9.143445296713763,-0.4288312688360079,,,,,,,,,
140,140,7.05,-10.3,6.77,15.9,2.07,-6.28,-0.11,-10.2,16.5,14.8,,,,,160,7050000000.0,-2.246405240145568,4.36144839271089,5.302718079301762,1.2495065318719352,-2.2864460649272185,-0.7876243288581083,-2.884831806765072,13.424266018463602,6.351346644187138,,,,,,,,,
141,141,7.1,-3.33,-6.77,-3.69,-2.09,6.4,2.72,-2.45,2.86,-5.34,,,,,160,7100000000.0,-2.673180098056386,-2.0403678656987587,1.70766245244222,-1.0199287203418277,0.5023405877437126,1.2566128295191406,-2.6976552920171755,7.276859908536793,1.1461270884102914,,,,,,,,,
142,142,7.15,9.41,-8.15,-21.6,2.23,-0.1,-0.0396,11.5,1.35,-22.8,,,,,160,7150000000.0,2.085792498038223,-5.5540831141836975,-7.610137032420252,1.1886320258591256,0.30895892571309624,0.5011823270515986,3.413829390624381,3.827986674714972,-9.515163454166544,,,,,,,,,
143,143,7.2,5.15,-34.2,5.23,-2.44,2.52,-4.9,6.08,-24.5,4.47,,,,,160,7200000000.0,3.2926337476302576,-22.028659933421444,-2.476983045402016,-1.2772849291497876,1.0188144488465602,-2.6466170613219577,4.56150201959718,-12.656228729596796,-3.2886913055219558,,,,,,,,,
144,144,7.25,0.393,-25.9,-2.7,-1.87,-3.37,-4.21,-0.931,-16.2,-2.51,,,,,160,7250000000.0,2.1506100771900085,-24.25510922430179,-2.5661394624904137,-1.680077530051013,-0.3902159660067954,-3.5577538445967845,2.197214308932062,-14.718369686247893,-2.942002482453668,,,,,,,,,
145,145,7.3,-8.02,-23.2,19.7,-4.31,0.6409999999999999,-2.38,-10.9,-13.9,21.2,,,,,160,7300000000.0,-1.8550951295380909,-23.648304945504442,6.3352862789409095,-3.4672993038279034,-0.05914371929584295,-2.8713610917708383,-3.4405773303656764,-14.242155522791666,7.806496351163343,,,,,,,,,
146,146,7.35,-3.32,-4.71,6.38,-1.83,0.0287,-2.24,-7.34,3.74,9.31,,,,,160,7350000000.0,-2.432049362461893,-12.756681125034524,6.353161711426659,-2.3546364833853017,-0.030941461840190383,-2.5034049901124065,-5.119112437676911,-3.778237679547322,8.475886192670929,,,,,,,,,
147,147,7.4,-13.0,-0.316,4.54,0.76,0.0611,1.02,-17.4,7.76,7.88,,,,,160,7400000000.0,-6.594247368938277,-5.601910970644791,5.628306639661665,-0.2380165798777445,-0.001391517964539856,-0.4499709185667644,-10.405510251352156,2.935928111786862,8.210585887981173,,,,,,,,,
148,148,7.45,-0.175,0.486,4.33,1.21,1.59,3.08,-3.81,9.16,7.11,,,,,160,7450000000.0,-4.0660203237084165,-2.100687577911506,5.109277265703012,0.7460150463022805,0.5095253098913869,1.6072897309090024,-7.566424543467,6.557750599917057,7.720583273950419,,,,,,,,,
149,149,7.5,4.79,-2.77,0.591,3.22,-0.647,0.935,2.12,6.47,2.51,,,,,160,7500000000.0,-0.5780678112366857,-2.4856163742148185,3.3029871332352303,2.427266100317391,0.13822243994813765,1.2154804879039414,-3.396832219244069,6.506687908239519,5.400728215704026,,,,,,,,,
150,150,7.55,-11.2,-23.2,1.56,2.28,0.805,2.65,-13.4,-13.7,2.11,,,,,160,7550000000.0,-4.761526430931845,-14.398682698696339,2.6061860313366725,2.327188154715105,0.3522916168480961,2.0515159315950013,-7.702768874362787,-5.251697774718979,3.935630677762255,,,,,,,,,
151,151,7.6,-0.395,-45.3,-1.74,2.25,0.621,5.72,0.0963,-35.5,-2.23,,,,,160,7600000000.0,-3.0417656007819707,-32.170363793680394,0.8686935018907331,2.274733241932575,0.4385605369518783,4.189501717525362,-4.345602569449318,-22.853355641259622,1.1905695625004813,,,,,,,,,
152,152,7.65,-1.09,-15.9,-3.41,0.442,-0.0544,2.91,1.33,-6.48,-4.79,,,,,160,7650000000.0,-2.273060765532284,-22.81310152101841,-0.8418172941358968,1.0292589508771417,0.2802953796726926,3.4438104709283595,-1.902497865412032,-13.325607550061006,-1.4720986470709727,,,,,,,,,
153,153,7.7,4.95,-3.79,-3.73,-0.644,-2.61,0.258,8.15,5.35,-5.26,,,,,160,7700000000.0,0.5717489195443313,-11.872710229687446,-1.9964378881603104,-0.10784106569456986,-0.6476349540690971,1.5871258581266434,2.4246732858659703,-2.4581661175103817,-3.1585475850529257,,,,,,,,,
154,154,7.75,8.24,2.45,-4.21,-1.57,1.34,-3.4,10.7,11.8,-5.55,,,,,160,7750000000.0,3.5918972436868377,-3.6355647621382086,-2.881362661949609,-1.1014834504314677,-0.009504029052476937,-1.3193621658641588,5.986848183861108,5.838741368167124,-4.223269732653818,,,,,,,,,
155,155,7.8,0.4,7.8,6.74,0.544,-2.78,-2.25,1.36,17.5,5.89,,,,,160,7800000000.0,2.334765300568951,2.94115222760966,0.9650086607072504,0.016741136577086202,-0.8989727441854715,-1.8617362195399967,3.995187509225018,12.6244936131052,0.2793585449373319,,,,,,,,,
156,156,7.85,-4.99,-11.7,4.44,1.49,1.57,2.3,-4.51,-1.99,2.93,,,,,160,7850000000.0,-0.5501008030814156,-5.479132537263633,2.354220152012223,1.017926693770668,-0.10630814303437364,0.5637161262213719,0.3340671682024472,4.120237251123759,1.4594767404335718,,,,,,,,,
157,157,7.9,4.23,-5.92,14.8,-0.29,5.24,2.51,6.35,3.61,13.9,,,,,160,7900000000.0,1.3325467219797098,-5.7326802234617285,7.3297204267455855,0.12909627071951146,1.6101259287278131,1.6980068570865672,2.9236694662077336,3.823327252518092,6.998244351622779,,,,,,,,,
158,158,7.95,17.5,-21.3,-13.0,-0.6509999999999999,-0.975,-2.18,20.2,-11.9,-14.1,,,,,160,7950000000.0,7.7001144852648356,-14.685613625832719,-0.7975748696371863,-0.4010353692218521,0.7801703152396181,-0.5620885939233242,10.36039277865376,-5.326165437907019,-2.395112802708858,,,,,,,,,
159,159,8.0,0.8190000000000001,-18.3,-8.86,-1.64,-1.36,-5.45,1.16,-8.5,-9.28,,,,,160,8000000000.0,4.989980614336684,-16.764285851894464,-4.02072332783957,-1.2430010974816494,0.09306786397959176,-3.4107544472025766,6.4000163229275655,-7.173037691129602,-5.460401063476162,,,,,,,,,
160,160,8.05,-3.95,-33.9,-8.21,-2.93,-1.26,-2.61,-5.39,-24.2,-7.53,,,,,160,8050000000.0,1.468960223001177,-26.61922112348053,-5.695487573890622,-2.3894384507799744,-0.3413350555798973,-2.9440761363763217,1.3249175219158138,-17.081123647958353,-6.381827665249616,,,,,,,,,
161,161,8.1,-7.31,-12.7,9.67,-2.68,-1.22,-3.27,-9.99,-3.54,11.8,,,,,160,8100000000.0,-1.9886420836519456,-18.614126519189746,0.4472361273995267,-2.5868960047309795,-0.6234307600530526,-3.134023965998407,-3.545671480242471,-9.201467312994538,1.7130828323026843,,,,,,,,,
162,162,8.15,-7.32,-2.73,3.88,-0.508,0.304,-1.16,-11.2,5.8,6.78,,,,,160,8150000000.0,-4.088402838296613,-9.47899370755082,1.8195661948986297,-1.1741363894224164,-0.3256787853186768,-1.983566334335843,-6.840533158215008,-0.472028664501293,3.96897497880656,,,,,,,,,
163,163,8.2,-9.61,-0.14400000000000002,1.57,0.8079999999999999,0.757,2.43,-13.5,8.45,4.32,,,,,160,8200000000.0,-6.263089308575591,-4.110337938516628,1.7197961197049854,0.17286812558018516,0.02191563603924085,0.5886522154839378,-9.707149424142523,4.7197500839772575,4.1252583591714505,,,,,,,,,
164,164,8.25,0.223,1.1,4.33,0.968,-0.192,3.45,-2.32,10.3,6.55,,,,,160,8250000000.0,-3.70853649732086,-1.1138162676950984,2.763287946132146,0.7132175224806112,-0.04676205610660002,2.2562405788646576,-6.527296833454452,7.966929130832398,5.204801530608768,,,,,,,,,
165,165,8.3,2.0,-3.21,-2.19,2.16,-0.0226,1.82,0.8,6.42,-0.765,,,,,160,8300000000.0,-1.4602236461376643,-2.3193542077599654,0.7830917876884063,1.6964105195916293,-0.03900481956727203,2.002000385731127,-3.3732082523027467,7.066762379025749,2.546927451863485,,,,,,,,,
166,166,8.35,-25.2,-48.3,0.464,2.53,0.897,5.64,1.93,6.59,-1.82,,,,,160,8350000000.0,-10.810158782924475,-28.763320081767052,0.6555271562390892,2.2628946148766733,0.2614998679308472,4.122219931156767,-1.0904034499865758,6.789331747350969,0.602684685034147,,,,,,,,,
167,167,8.4,-7.0,-26.1,-8.79,2.11,-0.29100000000000004,3.21,-4.0,-16.8,-9.49,,,,,160,8400000000.0,-9.30952390729251,-27.231616139350557,-3.1205497650024134,2.158991636231632,0.08411958458006878,3.590579820398877,-2.342860590432288,-6.937433153231492,-3.8907786784801672,,,,,,,,,
168,168,8.45,0.254,-8.92,-2.35,-0.4920000000000001,-1.59,2.15,4.52,-0.154,-3.4,,,,,160,8450000000.0,-5.5429203773544815,-16.700407845930172,-2.8125039028678134,0.3574517977441012,-0.4533571187095224,2.7510125511033525,0.6113079957388812,-2.9901150971911297,-3.67227431599906,,,,,,,,,
169,169,8.5,8.34,-2.56,-7.04,-0.86,-1.59,-1.29,12.9,6.04,-8.3,,,,,160,8500000000.0,-0.07511813871180006,-8.568106443956053,-4.502547253905048,-0.4698944298432942,-0.8182767337957669,0.3959177363281583,5.9010652885943005,2.2645598455879115,-5.732629691702559,,,,,,,,,
170,170,8.55,6.98,2.67,-2.15,-1.11,1.56,-4.59,10.2,11.9,-2.94,,,,,160,8550000000.0,2.703547256211926,-2.1049499327637173,-3.5620598760782713,-0.9048922961413512,-0.054730154492865994,-2.509866229802268,7.751573131923271,7.871476657442592,-4.489295571337753,,,,,,,,,
171,171,8.6,-7.81,9.07,8.46,1.35,-7.64,-1.43,-6.45,18.7,7.64,,,,,160,8600000000.0,-1.4372239011779433,4.321884366915498,1.244048075370609,0.6274695074964929,-2.4899837138146275,-1.8805221053201544,1.6384020685090093,14.172655979343295,0.910907408542074,,,,,,,,,
172,172,8.65,-7.68,-7.78,-4.81,-0.7909999999999999,8.08,3.13,-5.95,1.77,-6.22,,,,,160,8650000000.0,-3.895947490083736,-2.638040239495054,-1.1762034061626103,-0.3364827339485277,0.9035133209114724,1.039601220514886,-1.6280810857778034,6.955480420376794,-2.2639139569072326,,,,,,,,,
173,173,8.7,7.31,-5.66,-9.71,1.44,0.8170000000000001,1.22,10.7,3.54,-10.1,,,,,160,8700000000.0,0.5175261970537917,-4.376001868642779,-4.587794110389346,0.8707653239221784,0.8757381791973612,1.1447373209785163,3.678631607745859,4.967993055530744,-5.752695104785028,,,,,,,,,
174,174,8.75,18.3,-34.1,-7.45,-3.08,0.39,-4.38,21.4,-24.8,-7.88,,,,,160,8750000000.0,7.521171120832355,-21.470593546804093,-5.732029762698167,-1.814064327123151,0.7197917581023797,-2.07506970645178,11.30692423253288,-12.35416974903449,-6.6998135018218266,,,,,,,,,
175,175,8.8,-9.06,-28.4,-7.24,-1.58,-4.1,-4.31,-8.98,-18.7,-6.52,,,,,160,8800000000.0,0.9906600030422128,-25.45576986547245,-6.334877086677822,-1.6550007809230616,-0.8276040824577965,-3.377583023122776,2.5742693428814807,-16.046844648727976,-6.619756954733895,,,,,,,,,
176,176,8.85,-15.4,-25.0,17.2,-3.28,2.46,-0.866,-10.2,-18.9,-5.29,,,,,160,8850000000.0,-5.4648178035455235,-25.19365169028648,3.0737570722306344,-2.7593048172382613,0.2278823986208515,-1.913836958608008,-2.924508353121632,-17.707111636430408,-6.027722758495375,,,,,,,,,
177,177,8.9,-6.0,-5.33,10.5,-1.38,0.865,-2.29,-7.94,3.71,13.7,,,,,160,8900000000.0,-5.675599850849202,-13.76985089075682,6.042576512425836,-1.8219678073573649,0.4324292359253217,-2.133064079437805,-5.083463483040187,-5.2443734180079025,2.7554507360221883,,,,,,,,,
178,178,8.95,-12.9,-0.208,3.73,0.745,0.6970000000000001,0.604,-15.5,8.58,7.22,,,,,160,8950000000.0,-8.520936978392363,-5.970283881604838,5.118068370532186,-0.07752822077055388,0.5173697831170656,-0.5379080794526134,-9.567337901752854,2.800107490966933,4.743156553704219,,,,,,,,,
179,179,9.0,-3.93,2.74,5.51,0.7659999999999999,1.3,3.8,-5.76,11.9,8.51,,,,,160,9000000000.0,-6.712791850084102,-0.960905482857192,5.274752568937447,0.4957099656807845,0.7686334794048393,1.9902169089841344,-7.928441521272452,8.095386103924142,6.420230093854219,,,,,,,,,
180,180,9.05,4.69,0.606,3.74,2.0,-1.93,2.03,4.49,10.1,6.21,,,,,160,9050000000.0,-2.2217907683545546,-0.059761202388982186,4.661198275258185,1.517983432912689,-0.09776374941102006,2.0134024061057074,-2.5828325330473523,9.261882471388024,6.326631501989571,,,,,,,,,
181,181,9.1,-15.0,-15.3,3.27,2.15,-0.133,2.3,-14.4,-5.58,4.6,,,,,160,9100000000.0,-7.25450134909614,-8.824587347448851,4.105033255940823,1.9474842938742143,-0.10907636071100472,2.1804309398812745,-7.669618636084504,0.6253072987313146,5.557900857658327,,,,,,,,,
182,182,9.15,-7.68,-47.4,-1.85,2.84,-0.516,5.55,-4.43,-38.1,-1.71,,,,,160,9150000000.0,-7.422084353862556,-31.00972493001334,1.7243653004234276,2.554012966471994,-0.23971933220540256,4.144209830757696,-6.275100998213084,-21.90916679883389,2.3220871802529817,,,,,,,,,
183,183,9.2,-7.02,-15.4,-4.94,0.6970000000000001,0.7979999999999999,2.98,-2.22,-6.91,-5.93,,,,,160,9200000000.0,-7.263723018456132,-22.03240320743981,-0.9398752344979852,1.2920388701725296,0.09344082423816027,3.4657104492247277,-4.529553092410133,-13.18106685471887,-1.3519056812830057,,,,,,,,,
184,184,9.25,2.19,-5.65,-3.74,-0.733,-1.92,1.04,8.0,2.16,-4.93,,,,,160,9250000000.0,-3.540364659873997,-12.610706131337281,-2.059292542545069,-0.08412093935631604,-0.5529750601499301,2.052010745836413,0.8638847837484427,-4.254013376339985,-2.9449441866331405,,,,,,,,,
185,185,9.3,16.2,-2.2,-8.0,-1.15,1.1,-3.86,21.8,5.78,-9.21,,,,,160,9300000000.0,4.234398151574006,-6.6233965530349055,-4.434233405609783,-0.8084625448594899,-0.022286817067843082,-1.3934984082961126,9.87598855467106,1.5848357880270465,-5.734271353399715,,,,,,,,,
186,186,9.35,-1.39,7.97,8.78,0.84,-2.93,-4.17,2.15,17.1,8.03,,,,,160,9350000000.0,2.019223278272025,1.76942339632049,0.8484745007520464,0.3117865135529051,-0.9558091978999416,-3.0116385799860383,6.550280248888477,10.613197673693376,0.3938552239039961,,,,,,,,,
187,187,9.4,-9.08,-8.45,2.85,0.584,3.66,2.54,-6.72,0.875,0.936,,,,,160,9400000000.0,-2.352216962999922,-4.107877331590877,1.648632479272405,0.4967751856139087,0.5260980267809865,0.22384636381731135,0.8379910345699404,4.9464854591535286,0.6352288299602868,,,,,,,,,
188,188,9.45,11.8,-6.87,27.5,2.02,4.63,2.09,15.9,1.99,26.6,,,,,160,9450000000.0,3.2216480222568675,-5.6964038629263065,11.983339167115686,1.531916187250958,1.8436572627143808,1.3114372920604371,7.321542920947001,3.226089881775738,12.19526027804598,,,,,,,,,
189,189,9.5,7.66,-21.5,-17.4,-2.21,-0.304,-2.1,11.9,-12.7,-18.5,,,,,160,9500000000.0,4.9696973605158385,-14.785222792479367,0.2366419134520505,-1.0109855049483325,1.154151132015512,-0.6767421622479357,9.292373132126349,-6.041391638534187,-1.4708786062285064,,,,,,,,,
190,190,9.55,5.8,-25.2,-7.99,0.298,0.0757,-5.62,8.23,-15.7,-7.7,,,,,160,9550000000.0,5.296712966780481,-20.77487415688948,-3.0521562040111436,-0.12143553239368145,0.8079140095810633,-3.5576638606938564,8.835066641137916,-11.661790271885936,-4.2442069545326016,,,,,,,,,
191,191,9.6,-8.73,-30.1,-5.87,-2.72,-0.91,-3.57,-8.82,-20.3,-5.28,,,,,160,9600000000.0,-0.2277218877002269,-26.137855026263324,-4.178657071620593,-1.887347342462424,0.256377092746895,-3.5648533015583808,1.2353140577715136,-16.688412845684788,-4.705362662409669,,,,,,,,,
192,192,9.65,-10.1,-12.9,7.26,-2.39,0.905,-2.69,-11.5,-3.36,9.28,,,,,160,9650000000.0,-4.115928719419442,-18.524621318383392,0.3942216361949607,-2.228936112282049,0.4646177003781855,-3.054990406349935,-4.246695132609536,-8.932534088821539,1.5211981522214613,,,,,,,,,
193,193,9.7,-12.2,-2.02,4.13,-0.746,0.436,-1.24,-14.8,7.05,6.82,,,,,160,9700000000.0,-7.2998482633706425,-9.03263522003705,1.887689043382356,-1.2211741681840649,0.4554299740482674,-1.9972172718454984,-8.789442571353211,0.3677928562685437,3.8803299420154844,,,,,,,,,
194,194,9.75,-10.5,3.79,4.57,0.579,1.08,3.5,-12.7,13.0,7.24,,,,,160,9750000000.0,-8.560231249198402,-1.6581991513679697,2.9600075090911844,0.002173884815571902,0.6559484184813801,1.2065510538171254,-10.472770569429732,7.718545522889189,5.3761216073711475,,,,,,,,,
195,195,9.8,3.08,1.35,2.39,1.33,-2.0,3.46,2.7,10.9,4.63,,,,,160,9800000000.0,-3.975714473477184,0.07184870421938783,2.7321333230370657,0.9045274333692463,-0.1967447730679812,2.519857063471874,-4.802454999808547,9.569851625708274,5.043933515315137,,,,,,,,,
196,196,9.85,1.3,-3.34,-1.05,2.53,-0.188,1.52,2.24,6.35,0.188,,,,,160,9850000000.0,-1.8978690312608,-1.8903423084220328,1.2201344694457126,2.00915314345347,-0.1939372584739973,1.9371421564853315,-1.7709786727275687,7.696201727830738,2.8819755674121312,,,,,,,,,
197,197,9.9,-32.9,-60.9,1.75,3.01,1.69,6.76,-30.8,-51.3,1.8,,,,,160,9900000000.0,-14.108090150885227,-35.827435047961494,1.4319609748669968,2.68930069021552,0.4109014918647472,4.747895155215357,-14.266733139365392,-26.63402074468172,2.400258556663283,,,,,,,,,
198,198,9.95,-9.03,-20.4,-9.42,1.61,-0.541,2.69,-4.55,-11.7,-10.5,,,,,160,9950000000.0,-12.108079123290908,-26.95495020658186,-2.9063717791633086,1.955838113866008,0.1052931740188845,3.5485575983283137,-10.084094290944886,-17.943829635137032,-3.3431924999971687,,,,,,,,,
199,199,10.0,-0.16,-8.07,-3.37,-0.955,-1.75,2.04,5.41,-0.109,-4.72,,,,,160,10000000000.0,-7.4023161207250885,-16.094011075627954,-3.0917182792275213,-0.02228610836765688,-0.4903493643698925,2.669372924670061,-3.414548013735513,-7.565641561840381,-3.956174422099872,,,,,,,,,
200,200,10.0,9.45,-2.63,-6.13,-1.36,-0.954,-1.38,15.2,5.22,-7.54,,,,,160,10000000000.0,-0.7650145119189489,-8.350712864869834,-4.306344607090307,-0.9313590940209197,-0.6392045658698577,0.30940567978405165,4.5982204015204715,-0.12560466301998385,-5.551764657192494,3.0883433436397802,1.0627775113848397,2.5756878450406133,3.30944325688646,3.407516659765115,2.8690076705636973,3.0609355489554977,3.0486758401867915,3.17265699980062
201,201,10.1,5.7,3.04,3.46,-0.698,1.37,-4.82,10.1,11.8,2.71,,,,,160,10100000000.0,1.7812378923922698,-1.7997908175925854,-1.201561315418218,-0.7727747847613413,0.005851281559841493,-2.6800028124897923,6.9665018806200125,6.813972141125728,-1.8734630975064752,2.992809730715654,1.0860050702919706,2.5675174908197866,3.527128883707479,3.5285066834201175,2.8508893991719857,2.4066432669076177,2.3983519488189855,2.822136530729983
202,202,10.1,-11.5,7.89,6.41,0.715,-6.58,-1.2,-8.94,17.3,5.11,,,,,160,10100000000.0,-3.449591033217802,3.772912523405607,1.8413435518526773,0.2382753625969072,-2.1085386080218016,-1.8174598666136517,0.11943185152892255,12.915850519200704,1.2357132881589856,2.6862038781584796,1.1913410323275753,2.588289916161027,3.383356590676785,3.4335689910645257,3.1384416185864197,2.2978078067567047,2.9093682875770437,2.8288427247074845
203,203,10.2,-3.44,-5.69,-3.58,-0.541,6.34,3.67,-0.16899999999999998,3.43,-5.09,,,,,160,10200000000.0,-3.4458136176577305,-1.6693107684017994,-0.3259690527524435,-0.29129840140473284,0.6038677887228601,1.3806219053167008,-0.00472575089850015,7.395980577623212,-1.5806198408094132,2.712176835652073,1.1047041297849856,2.691236476336073,3.396639782992332,3.382504275285824,2.971533848062232,2.42397910640616,3.1418046670096196,3.0001721360042395
204,204,10.2,4.17,-5.2,-14.1,1.38,1.09,0.483,8.84,3.36,-15.1,,,,,160,10200000000.0,-0.4463177208784797,-3.6998481923293016,-5.832469766005652,0.8444692815087473,0.7599407200818109,0.8574894814705334,3.802551279676605,5.047420628680349,-7.599716288418463,2.81161063163141,1.1080764273738384,2.883455092375742,3.212076530385433,3.4319642000264063,2.8408980554023,2.6233204545802096,2.8503074521384018,3.2811262248184523
205,205,10.3,5.88,-39.0,4.01,-3.7,0.908,-3.47,10.2,-30.3,3.2,,,,,160,10300000000.0,2.045308932729406,-24.001346989365924,-1.8977053710659144,-2.243825071238918,0.8074752025092201,-1.6645636112899007,6.5563798444926125,-15.521442585788968,-2.7914683041034136,2.9199729440700635,1.1495644212284,2.7330942656508284,3.0211689518871796,3.4135526455079432,2.5574796433508027,2.999836366442506,2.4695644638064373,3.286819444052061
206,206,10.3,-10.3,-24.1,-5.86,-1.56,-2.69,-5.58,-8.57,-14.4,-5.72,,,,,160,10300000000.0,-2.8169035042306474,-24.05808362132239,-3.4817281175550434,-1.779116624661436,-0.3153904829957105,-3.9464728425502615,0.045119009026651995,-14.868868590742464,-4.095308625160314,3.1149995518869242,1.02676369237232,2.6270602936670637,2.882249792579392,3.2797236518114747,2.685944323119793,3.326250480759733,2.7234105654556213,3.3493485785542254
207,207,10.4,-17.8,-24.9,9.16,-2.52,2.05,-1.62,-17.8,-15.2,10.3,,,,,160,10400000000.0,-8.718010855027027,-24.54227860999118,1.5721070592760311,-2.2826002482608403,0.4440189639316405,-2.5906086626180365,-7.636442810706347,-15.061555716583712,2.313768469414753,2.900391198367672,1.0216057077096876,2.799848102870893,3.007721775555252,3.1978761056819685,2.8841033766839663,3.091552292545404,3.1765382673041205,3.3707418873585246
208,208,10.4,-10.1,-5.98,8.77,-1.7,0.745,-2.7,-11.3,3.5,11.0,,,,,160,10400000000.0,-9.262308822458778,-13.86691158786164,4.449638276303096,-1.8866814337594098,0.5406490349529991,-2.6543617648228053,-9.213447911302898,-4.260481634449741,6.181051085775057,2.9825718995423385,1.002683561634416,2.8592973945223235,3.3389978414930197,3.3781789266093045,2.9042663686161454,2.7889866237835803,2.6382602908669677,3.125257992606666
209,209,10.5,-11.3,0.836,7.13,-0.304,0.221,-0.454,-13.4,10.0,9.89,,,,,160,10500000000.0,-10.064855620957891,-5.411108223239451,5.521177466337528,-0.8111353556137173,0.4380255979985836,-1.3719948888646325,-11.015579749663072,4.037773152620003,7.832348882543576,2.865755100754218,1.0625996964610782,2.8484689259071065,3.4926697663040507,3.564693041367603,2.8228583189710013,2.3849531407509827,2.415148364388328,2.929816262065449
210,210,10.5,-7.22,4.56,3.97,0.653,0.431,2.94,-8.84,13.9,6.48,,,,,160,10500000000.0,-8.944406285637529,0.3233838418504513,4.9010569320231125,0.18385011222039926,0.43577002540635307,1.1410279999044977,-10.079085581441623,9.776658421698343,7.230256337285332,2.5892377610025537,1.073661159025174,2.8103556690586653,3.396358314966988,3.4190755205969667,2.955705452084196,2.2418450432401857,3.0298541203067315,2.9199953017521594
211,211,10.6,1.92,-0.481,4.05,1.86,-1.22,2.01,1.75,9.11,6.07,,,,,160,10600000000.0,-4.665448940361529,-0.13922600222338374,4.560826505571838,1.3229147426525327,-0.09581554380381048,1.6474633110024577,-4.987169074545978,9.388725921942225,6.7136872723182055,2.6581735678323377,0.9446942383741608,2.7865215472239586,3.4480726198173723,3.3753341110098245,2.9074844729511824,2.5362791492475254,3.1981194153081076,3.1534594830858906
212,212,10.6,-8.17,-10.2,7.02,2.09,-0.28800000000000003,2.08,-7.39,-0.475,8.06,,,,,160,10600000000.0,-6.0457199363065435,-5.925285746491469,5.543940321192507,1.8442043876401253,-0.15751642835725246,1.8995448698970672,-6.021485183641486,3.6489681144004114,7.313092596985391,2.751872499352408,1.0932186290274963,2.8912496719788114,3.0889583522620683,3.4891689189401855,2.6710588858916307,2.820897445576022,2.617432744022726,3.325318209040055
213,213,10.7,-7.79,-59.3,0.7879999999999999,2.67,0.5,6.94,-4.61,-50.0,0.546,,,,,160,10700000000.0,-6.732706381841023,-36.621660301047925,3.642638646024663,2.405392059303021,0.05357945659696548,4.837113075318802,-5.413901108228736,-27.569669368445982,4.300248712186671,2.9244991426475346,1.031092620939198,2.837924691590411,2.878962343912111,3.4253487769379927,2.5580668719006496,3.1687279129051316,2.3513518456840905,3.1710727356837265
214,214,10.7,-7.55,-16.7,-6.04,1.0,0.643,3.2,-2.59,-8.4,-7.41,,,,,160,10700000000.0,-7.054598371949325,-25.16449860521641,-0.2282293030913487,1.45032689201028,0.2428131354267703,3.883006551218087,-4.198332161256833,-16.414730296507535,-0.9133862834192286,2.8692081888663044,0.9373259581866503,3.046041477679662,3.0159892529839194,3.3090411511121762,2.6664408956019208,3.1634238296007124,3.1021230787257132,3.446377018442158
215,215,10.8,1.7,-6.11,-4.02,-1.11,-2.87,1.02,7.65,1.51,-5.68,,,,,160,10800000000.0,-3.606590963562472,-14.206050610175906,-1.7440809404011026,-0.2895997205798833,-0.756556600480412,2.21445147826482,0.901869217904772,-5.984228527797191,-3.0355772054855583,2.6711255859240555,0.8944746130925244,3.067538520344764,3.132768742493918,3.2692841827871306,2.8613289230303627,2.8460872212759996,3.1581977738782987,3.29346428494685
216,216,10.8,15.2,-2.23,-7.28,-1.31,1.42,-3.96,20.7,5.71,-8.97,,,,,160,10800000000.0,3.800403761151295,-7.318494488797325,-3.957197977673152,-0.9830351946667204,-0.05777233767494816,-1.3840077454468729,9.424119913090596,0.8207091079700026,-5.6777000942462275,2.8421496684059955,1.0150157640491941,2.886182530023483,3.3405531063406895,3.4577484101776887,3.1135605660051406,2.5056869656663356,2.584316967085452,2.8517320953317036
217,217,10.9,0.7090000000000001,7.93,12.3,0.451,-0.584,-4.57,4.17,17.1,11.5,,,,,160,10900000000.0,2.5828512716556182,1.4510793850659158,2.542008476373308,-0.0085049496622851,-0.2267179144897825,-3.2407983935415112,7.162445556100083,10.293720623519311,1.9701528014102734,2.7384841609508186,0.9499843688534774,2.9069431188051356,3.5070206374772646,3.6375780197504404,3.001747376760482,2.2042057250149987,2.3190428803703282,2.736048101105763
218,218,10.9,-15.6,-9.88,6.86,0.5660000000000001,-1.19,2.18,-13.6,-0.458,4.98,,,,,160,10900000000.0,-4.578483172306601,-5.06554689126577,4.268229621979131,0.3819125481843251,-0.5359799916189684,-0.08156681361973339,-1.774901330535246,4.037233678966645,3.3101964995069446,2.5858526805091437,0.9764600171960749,2.9889870773119487,3.398762614253975,3.4119462730343457,2.8077428874703343,2.1518516754246564,3.2243222666605047,2.9219108197182515
219,219,11.0,2.76,-5.21,12.9,-0.563,5.06,3.05,6.57,3.75,11.7,,,,,160,11000000000.0,-1.6882141846614482,-5.148623457157467,7.7189875379677595,-0.26022362815877004,1.2606113717166156,1.7435046576840354,1.8172226265453628,3.8700907792672004,7.045503390678878,2.732765084676602,0.9264754511530283,3.1302312670884542,3.162525185251338,3.4270518013194904,2.6804408570529206,2.5387725767276788,3.1840367225440147,3.230128156122066
220,220,11.0,5.15,-10.2,-11.9,-0.246,0.111,-0.872,7.25,3.45,11.8,,,,,160,11000000000.0,1.005023399463473,-8.053724588008949,-0.1241750186127284,-0.2505576525845933,0.8915282293070994,0.21919326588046428,4.155801428408379,3.625637610452416,9.162299697530068,2.7919901237552094,1.0013229471893634,3.017705886021714,2.9282140469307167,3.539387962424706,2.623997265616989,2.7281634736911795,2.338185032296618,3.1542520223861987
221,221,11.1,11.8,-35.2,13.3,-1.53,2.49,-6.21,15.2,-26.0,13.4,,,,,160,11100000000.0,5.256635885330993,-23.665841388867,5.242462286109624,-1.120030896127099,1.4047181671843358,-3.5277290128691967,8.909857492483379,-13.613688200748793,11.049007780331003,2.9924152745530934,0.8795507363181632,3.042514935239566,2.818790870895086,3.320395346000782,2.5435526177478973,3.1762177884883545,2.266971350602358,3.1658988135838904
222,222,11.1,-7.67,-28.7,-10.5,-2.49,-2.24,-2.73,-7.09,-18.9,-10.0,,,,,160,11100000000.0,0.16546728743761907,-26.561040849584746,-1.0509661037397755,-2.0510236193486557,0.23458009041277705,-3.062813991977652,2.022601610360488,-16.68982266471911,1.6775718942532285,2.9396837912390623,0.8743133065928097,3.0855562155854868,2.955454720079468,3.3510558935019286,2.8449472780389646,3.08049266466007,3.3413258479032484,3.456140107290676
223,223,11.2,-8.28,-14.8,9.15,-2.53,1.01,-1.07,-8.47,-5.18,11.0,,,,,160,11200000000.0,-3.1607884078952355,-19.7971392638795,3.0271155910825764,-2.3765225623398947,0.4835289272064482,-1.9014056170367832,-2.494015699736912,-9.992191764260083,5.828101848316531,2.941948148011018,0.8792686953619319,3.2768923490023756,3.2875000708491506,3.3713169036567705,2.9007378230643295,2.8784021116344807,3.1750317287344494,3.407736797198674
224,224,11.2,-8.34,-2.69,6.05,-1.01,0.767,-1.62,-9.59,6.62,8.86,,,,,160,11200000000.0,-5.200626171927478,-9.95863862748115,4.235586503252165,-1.4478720124243658,0.5745374229892428,-1.73740293301215,-5.548534167743743,-0.3254636399577695,7.177962906885885,2.785763572862888,0.9632327109653446,3.0106552744222723,3.5986538616597747,3.4979250226525087,3.1345692227097,2.3782756846990956,2.3099497434633505,2.9742773725362888
225,225,11.3,-10.6,2.74,2.7,1.11,0.364,1.43,-12.2,12.0,5.53,,,,,160,11300000000.0,-7.327175144568411,-2.655514311811736,3.621698839498965,0.2903863326052369,0.5069443055166684,0.10855376135444783,-8.411706258429081,6.846793249743012,6.444257217787269,2.5728313473226794,0.8792935583220423,2.977505163352277,3.535482149419157,3.501702576929824,3.1204865398436077,2.12785726053279,2.366033181061795,2.9106825739585633
226,226,11.3,2.0,2.53,3.64,1.13,-0.451,2.66,1.53,12.0,5.98,,,,,160,11300000000.0,-3.6536578161583178,0.32673099285450924,3.6290152110536833,0.8609643132117495,0.19939594133049596,1.5955320841597762,-4.1322260137564015,9.845473356085034,6.237560701837389,2.5041003225752787,0.7735418836120063,3.1084481560025155,3.2123480005904406,3.4006386591794255,2.7381041016253813,2.1055600447436853,3.302063532040354,2.975339305810737
227,227,11.4,-0.132,-3.84,-2.03,2.25,-0.415,1.8,0.505,5.82,-0.461,,,,,160,11400000000.0,-2.266649336688562,-2.069600982073085,1.3666876182981973,1.80491414685171,0.002143906868095069,1.7146955894791986,-2.136098122145163,7.503027779620923,3.2552285767822338,2.787638814728605,0.938055647226409,3.2639476913159826,3.077760462014808,3.6217942599183863,2.47636019254935,2.6582508852804416,3.028422196502782,3.1805669135880197
228,228,11.4,-32.7,-42.8,-1.68,2.77,0.114,6.42,-30.8,-33.2,-1.23,,,,,160,11400000000.0,-14.252855459453485,-25.494093196204812,0.14870089719832458,2.4607595086289904,0.038055345672409986,4.456938570243628,-14.474684248197565,-16.18229436515046,1.2583158168495878,2.820360730320349,0.9414120573967959,3.055881451189727,2.7795513470435753,3.4899741938502915,2.455700064934734,2.919847033565243,2.1937576823491285,3.0458441487079235
229,229,11.5,-11.4,-23.5,-6.68,1.68,-1.6,2.97,-6.91,-14.9,-7.34,,,,,160,11500000000.0,-13.12925531207228,-24.347268648692978,-2.581236658364332,1.9301771306489188,-0.4878429177299828,3.590353466123708,-11.21841045555153,-15.436119811419413,-2.569825047401395,3.0142277370900348,0.8174499210957227,3.228711869124743,2.770545577618536,3.2518016851046787,2.6556781881552247,3.2581772857956053,2.452668362947867,3.237106470851811
230,230,11.5,-1.84,-9.76,-1.98,-0.833,-0.8690000000000001,3.08,4.04,-1.98,-2.95,,,,,160,11500000000.0,-8.6829707459165,-15.9579729343189,-2.340877833552706,0.05239917169976027,-0.6102135412499766,3.2929203407383465,-4.650315961817888,-7.605927722221638,-2.7390865003789826,2.8255401186270626,0.7288088383844579,3.169319094727656,2.7935456245077255,3.08730047619798,2.9797696471967092,2.9602157649078658,3.2217993390812927,3.2743975004426935
231,231,11.6,3.96,-4.02,-6.03,-1.22,-2.4,-0.264,10.4,3.28,-7.22,,,,,160,11600000000.0,-3.7035239640164064,-9.092315673896387,-3.815693340453535,-0.8122877653460341,-1.1848251558441951,1.2199535729260318,1.828202585532409,-1.2713449282589693,-4.734078000443548,2.9796332245156187,0.8112216845046477,3.2363516737793985,3.2137657985541406,3.3418235813772394,3.1068156586544697,2.765002871951681,2.712981231974172,3.0373211763324885
232,232,11.6,12.6,-0.381,-3.83,-1.27,2.78,-5.67,18.1,7.69,-4.73,,,,,160,11600000000.0,2.7176355262903904,-4.082343892728839,-3.8214127416226007,-1.123336195463176,0.08808337210428707,-2.7954990051824664,8.8325170968747,3.943312320392052,-4.732262402228517,2.8907170143656704,0.9260089988457302,2.909294654714038,3.4736457697989427,3.6897403055989577,3.330299288935124,2.267980235328086,2.066219662718632,2.7243855653322013
233,233,11.7,-4.37,7.76,11.8,0.828,-6.68,-4.35,-1.37,17.1,11.1,,,,,160,11700000000.0,-0.07383682190971541,2.7283161930651922,2.42362325409993,0.2027373555297516,-2.0848121648342963,-3.701459329759623,4.440768902640211,11.599263394377914,2.3165751086591406,2.477522434855566,0.8881872493396569,3.060566816166301,3.281800949772113,3.223148947035124,3.0535358993708854,1.8211359566474628,2.6165119154675387,2.876253270037268
234,234,11.7,-8.27,-10.2,-3.09,0.716,6.15,3.82,-5.97,-0.7829999999999999,-4.78,,,,,160,11700000000.0,-3.3019041280466346,-4.706898057542795,0.21941962016559646,0.5515363185976461,0.5589772623625362,0.6820335827333861,-0.04062271394174388,4.3939544112911655,-0.8429610225348889,2.581060997034336,0.6595739063878401,3.3362513713407846,3.0250316107658333,3.323333396751377,2.5727985523031673,2.0814419444326004,3.1848410977506405,2.955656725114722
235,235,11.8,10.0,-8.25,-6.16,2.83,5.35,2.41,14.4,0.5,-6.67,,,,,160,11800000000.0,1.937064215298455,-6.744574275324461,-2.33090693347884,2.099916508864605,2.097136798592674,1.6890893487083454,6.17544891038739,2.1280403515536523,-3.437274420480508,2.685055228512764,0.8848886706456554,3.4068490300726095,2.922317470467071,3.4982500787648623,2.392954211799557,2.589015960648896,2.5248442326945777,3.2420114491595773
236,236,11.8,11.1,-31.0,-5.48,-2.56,-0.0727,-2.78,15.8,-22.4,-5.78,,,,,160,11800000000.0,5.5458958565856245,-20.694131740516685,-3.5898327271043233,-1.0668324819236816,1.4005099163962489,-0.9154878583120184,10.318407484696085,-12.144964608354966,-4.480302422677463,3.0010825149017974,0.9106851874815782,3.05476077072667,2.7469084656754394,3.117446126038678,2.42084731486453,3.2692466646140255,2.0681387496320727,3.0318184174758818
237,237,11.9,-8.1,-22.0,-2.96,-2.17,-1.86,-5.05,-5.61,-12.5,-2.54,,,,,160,11900000000.0,0.17144587411968534,-21.445150689200865,-3.3380419428229566,-1.8165143490545368,0.353722034695668,-3.3250741994811244,3.461907789827544,-12.351561707514673,-3.6164412705994815,3.012717120791375,0.7270307603264937,3.314753251152472,2.661153132809338,3.0072993797875562,2.770851936057356,3.204345206481671,2.5755252484026516,3.2246627308228244
238,238,11.9,-22.1,-25.3,3.66,-2.58,1.55,-1.73,-21.3,-15.6,5.07,,,,,160,11900000000.0,-8.600185673541954,-23.662115748827773,-0.5404061234665183,-2.3353578086097087,0.7377874888505331,-2.3954678398335143,-7.197036408719759,-14.241846514693286,0.2509348026035503,2.5991874573827203,0.672233634627904,3.08634758662552,2.842822214945692,3.025928694266463,3.216494558810739,2.776080627530472,3.2393056417952595,3.008038430035444
239,239,12.0,-10.5,-5.58,9.06,-2.27,-0.0202,-2.77,-10.6,3.86,11.7,,,,,160,12000000000.0,-9.34842946020115,-13.262895522476905,3.2975875775345647,-2.2909424554582922,0.4944353341723473,-2.6137444971382613,-8.661867168960569,-3.7082798740017764,5.348285698436532,2.949180528875906,0.8035418923685477,3.033955722894559,3.329066729636945,3.4166717834506315,3.2212277229121242,2.66459058355996,2.3057527601588785,2.9127731500163017
240,240,12.0,-11.1,-0.0814,5.64,-0.203,0.0489,-0.691,-12.2,9.08,8.93,,,,,160,12000000000.0,-10.038287432361816,-5.68207499344131,4.234023297188407,-0.8720351100676977,0.35139605571367005,-1.4931724581343742,-10.184882271921511,3.7332923512557534,6.942936104269452,2.4705563259947123,0.8789838632239152,2.762962717935179,3.5064344313135374,3.705484377199725,3.3409074212067438,2.0770880360144783,1.9484992486460073,2.7827748878411547
241,241,12.1,-6.53,4.63,6.05,0.6459999999999999,0.00122,2.73,-7.31,13.9,9.12,,,,,160,12100000000.0,-8.65654497493676,0.2485108447796636,4.960003790547437,0.15957914530662576,0.23897190752879624,0.9680848557404432,-8.94736812204446,9.649356717945212,7.912208093675168,2.093527543091352,0.7722105296432762,3.0392403407112965,3.020635481242955,3.3725613449570178,3.055875495007682,1.732344683527667,2.819711342210936,2.909176530324786
242,242,12.1,4.14,-1.3,2.96,1.77,-1.58,2.17,4.74,8.16,5.46,,,,,160,12100000000.0,-3.6166128958102446,-0.6420544495489106,4.160454128848806,1.2539761390862805,-0.34500968901509543,1.668558881655812,-3.0555403868143602,8.78269154510139,6.820436414385848,2.3150392417864674,0.599773819181135,3.3706169117272164,2.881002971408895,3.373168596122532,2.5124067350809622,2.0835997195786753,3.1301201702869212,3.0817559325118076
243,243,12.2,-7.57,-9.21,6.86,2.32,-0.512,1.9,-6.02,0.382,8.22,,,,,160,12200000000.0,-5.173658457693183,-5.569572552238807,5.239662651422661,1.9784161176421982,-0.3986219960076165,1.8034423347113848,-4.331613726326477,3.894281698805256,7.443550009591582,2.3711482157097934,0.873362115709931,2.9719452260650376,2.7271956137668445,3.314608874838252,2.1786825015944458,2.4201294863773564,2.231860138548736,3.1441524555497296
244,244,12.2,-12.6,-48.3,1.2,2.65,-0.0525,5.45,-3.78,-0.165,7.1,,,,,160,12200000000.0,-8.098530706884107,-30.14430273088537,3.624710247298694,2.4348058202817366,-0.2874994046255158,3.9286494635104865,-4.0941675463276175,1.5321627531022912,7.290594686667184,2.8276575618347244,0.8378597944085068,2.7854149161423227,2.651929957129629,3.130154094146635,1.816077577128351,3.0260046331533554,1.9682185956452156,2.9145728179175423
245,245,12.3,-9.26,-19.0,-5.83,0.926,0.841,3.19,-4.01,-10.8,-6.74,,,,,160,12300000000.0,-8.555976648377284,-23.735093792704028,-0.15503782047983086,1.4094635504633761,0.07480574022571895,3.498165919816199,-4.057937108218717,-5.643992499354546,1.0438956604280545,2.86192861681623,0.6931621740760663,3.197859772844811,2.6524363971837897,2.9273210185020977,2.02668009503905,2.918502815595622,2.92423119953048,3.3817066096203083
246,246,12.3,1.48,-6.54,-4.22,-1.53,-2.69,1.28,7.87,0.826,-5.25,,,,,160,12300000000.0,-4.6032971260173845,-13.846009501398028,-1.7801042553802515,-0.5881137103914031,-0.8128361518508407,2.205422799941981,1.07653071295554,-1.8790673446098525,-1.7582715614625877,2.2563378639051597,0.6743262115978359,3.110669356701363,2.857035088215846,3.0969758326967893,2.5165393601971195,2.3000247761573234,3.1789401576421175,3.0795741954443163
247,247,12.4,15.9,-2.36,-6.19,-1.49,-0.112,-2.95,22.1,5.17,-7.27,,,,,160,12400000000.0,3.4719469551974376,-7.240281246302402,-3.5430662959542376,-1.2010104344553283,-0.5878324552546765,-0.7991483508496784,10.126237175919607,2.2228247912478314,-4.212202409107831,2.5340023466881125,0.9106632418607212,2.7789507946970757,3.5399695720613584,3.4640098330372613,3.0824265589627102,2.06647760259496,2.200703649795272,2.596843251017683
248,248,12.4,3.46,4.05,8.87,1.0,-2.11,-5.53,7.75,12.8,8.33,,,,,160,12400000000.0,3.467241649879833,-0.7471183766059086,1.419355826584071,0.2947347456040001,-1.076524857305469,-3.5562802940893263,9.103368483571408,8.37774288184263,1.3718349126899616,2.101041096455345,0.8558478425332384,2.7866074270859613,3.3997833632632974,3.716962218935923,2.964088394903624,1.7290975434163693,1.9763778126880134,2.5789481688197613
249,249,12.5,-14.1,-7.54,7.57,1.16,-2.87,1.17,-12.0,1.85,5.73,,,,,160,12500000000.0,-3.4516343242801706,-4.6537779876657055,3.878224015922583,0.8827448084140913,-1.6523206578429166,-0.8018126756332284,0.01926899060766196,4.579212452876834,3.3121764861098306,1.9648258086071524,0.6734812819183148,2.964515309652851,2.9442355286861797,3.3077425232386495,2.1156136266454153,1.6812660438511668,3.150886360158163,2.6836245649813253
250,250,12.5,2.07,-3.63,8.31,-0.684,5.36,3.24,5.98,5.27,7.03,,,,,160,12500000000.0,-1.2769331085572615,-4.064992268699212,5.649933353989916,-0.18197118825111025,0.5989874451846631,1.5537484780669546,2.5851093092057478,4.981185616086025,4.967425371282303,2.174065968495563,0.6895878989894304,3.290735306246529,2.7328740180913402,3.3438140619096464,1.6070577700147235,2.157007838744317,3.054057086560684,3.208061724285837
251,251,12.6,4.31,-9.67,-11.5,-0.131,-1.35,-0.153,9.11,-1.22,-12.8,,,,,160,12600000000.0,0.9234861029019116,-7.288492832754544,-1.2061654882641992,-0.14733259133395568,-0.026735680192964458,0.5590585405338788,5.393796137720949,1.3726806734972128,-2.942985003058148,2.3428136295026665,0.9216714218686769,2.7715187505748675,2.5450231301931527,3.490560765329566,1.7123760388916218,2.6071072605638053,2.0087979088082437,2.9371202627097963
252,252,12.6,9.32,-35.1,8.75,-1.4,3.79,-5.14,13.3,-26.2,8.36,,,,,160,12600000000.0,4.230461441101666,-23.283190288964626,2.7740514180305307,-0.9986103380166822,1.198628665466,-2.762342435196637,8.797079565443056,-14.672018347714234,2.089328024020088,2.708322074655475,0.8121959702231946,2.938645329176745,2.588475105894106,3.155108285767737,1.7864224212142994,3.1835220741037946,1.9370032228623248,3.1371508624350444
253,253,12.7,-7.13,-27.3,-8.96,-1.97,-1.27,-3.47,-5.74,-17.6,-8.85,,,,,160,12700000000.0,-0.24386778893590666,-25.59330052509044,-1.9169182168416776,-1.658739624511489,0.40607455387440494,-3.1747640061621203,2.539487317398252,-16.375827626453454,-2.781078023555855,2.601412439727474,0.6782324739364687,3.231738767978718,2.725259785149506,2.978634823600678,2.083554383536362,2.826333608046744,3.2011132634827186,3.3123576483962247
254,254,12.7,-9.47,-18.5,5.42,-2.17,0.203,-1.86,-9.32,-8.76,6.68,,,,,160,12700000000.0,-3.877589361347712,-21.51386673506774,1.0161915496506402,-2.006177939449693,0.3408773937031101,-2.408521919569256,-2.5655157079911906,-11.944134659876163,1.4311815483689774,2.515534825764983,0.7110936878269589,3.1984267385662206,3.2486155119969493,3.124442058757895,2.3444742064784005,2.341132103257011,2.830817198194201,3.027838338246408
255,255,12.8,-9.2,-1.68,6.55,-1.52,1.68,-2.41,-10.4,7.8,8.74,,,,,160,12800000000.0,-5.973826078926827,-10.107195598885225,3.2284648124249573,-1.6757849859550926,0.7708031695081048,-2.4093833922042736,-5.93792667521496,-0.454911102038345,4.6852124315488695,2.438657350258007,0.9320555168616003,2.8471003889601043,3.591525427303421,3.403885283308768,3.3783392800253123,1.9654791139492698,2.0311721665226377,2.669006468088029
256,256,12.8,-15.2,4.17,7.0,0.336,-0.229,0.952,-17.1,13.4,9.61,,,,,160,12800000000.0,-9.607563898577052,-1.8962260709376848,4.736226825216574,-0.3086321355293529,0.4498160029553103,-0.4503751922227262,-10.742723036248458,7.607339680125983,6.8778254142848985,2.0890051803430794,0.7782746482879216,2.636345889087266,3.123488470158497,3.712877655497708,2.758695673678506,1.727527960141021,1.9965489213650558,2.4928524257192968
257,257,12.9,2.33,4.71,5.72,1.08,-1.03,2.96,1.48,14.2,8.13,,,,,160,12900000000.0,-4.905942359316507,1.9030859585757611,5.129513757998581,0.6350434851170954,-0.02527944592073528,1.5371853500250021,-5.481362396314454,11.443645835732472,7.435318434532919,2.022385934941312,0.5277331425583522,3.104962975060471,2.9163779821259923,3.40613092349332,1.8274644053940459,1.716756912518292,3.1083798598801633,2.842503588107207
258,258,12.9,1.87,-4.51,-2.28,2.28,-0.28,1.64,2.26,5.15,-0.63,,,,,160,12900000000.0,-2.237230632029044,-1.7851492147265602,2.1673822177085538,1.7529099419194925,-0.1070575714732448,1.5971055345264835,-2.149036270875217,7.781337841383968,3.8444786498677184,2.2568555425085575,0.8115112095421949,3.123192376408189,2.6803007902826836,3.362752442315603,1.5116571649965735,2.307200459670827,2.7241338931274792,3.0569057746310735
259,259,13.0,-35.4,-37.6,1.3,2.76,-0.461,4.48,-34.1,-27.9,1.91,,,,,160,13000000000.0,-15.298421362171426,-22.382656078638934,1.8206252698651293,2.437300193966534,-0.22069091353758968,3.277251248090113,-15.902561911872326,-12.981833906651412,2.9832103591140173,2.2630421116794373,0.8532732279972631,2.656357510312635,1.9929473016646562,3.257528494954578,1.4040334102674343,2.603105073465226,1.7356451574867464,2.884362697406593
260,260,13.0,-12.4,-27.3,-6.76,2.21,-1.91,3.09,-8.29,-18.4,-7.34,,,,,160,13000000000.0,-14.156875038094215,-25.21067327129077,-1.6096864015262091,2.282833360383359,-0.7630441904174514,3.1681215079166565,-12.625678877575693,-16.134695128892368,-1.6128877780770008,2.229761454542989,0.7112079472455828,2.9672291601435488,2.0487642614981185,3.0352030791026428,1.5940316322394787,2.8521415791688454,1.995656478451464,3.018808095073526
261,261,13.1,-2.91,-11.8,-2.61,0.0828,-1.16,3.38,-6.97,-19.2,-8.11,,,,,160,13100000000.0,-9.727282006203822,-17.49805025211169,-2.009585808922929,0.787752173172934,-0.890486984622331,3.291603978210227,-10.191150400756133,-17.918413786059908,-4.505530892203829,1.9458475775022674,0.6008041006996426,3.131156092522622,2.379011756772415,2.9098611591803496,1.8874083316599721,2.4160329520285218,3.308625045964567,3.1287471240582954
262,262,13.1,5.58,-4.51,-5.06,-1.22,-1.91,-0.44,11.6,3.03,-6.8,,,,,160,13100000000.0,-3.6984935950492903,-10.028482320532554,-3.2290623153237137,-0.5766601129114013,-1.2178019928497343,1.1168319016365371,-0.8109899810573893,-5.728413532188249,-5.5270741472664335,2.0453884784442002,0.7951801797071907,2.9222036816742385,3.3588165208199205,3.14824076010865,2.27534683737455,2.2517342719301383,2.6303111616311936,2.548133787949834
263,263,13.2,12.7,1.48,-9.26,-1.53,2.79,-5.2,17.9,9.73,-10.6,,,,,160,13200000000.0,2.760069554764395,-3.409829753648705,-5.6400749760366224,-1.2245232379357658,0.0689042609589463,-2.5646062430002194,7.243292503124445,3.2669243241053434,-7.785641555990652,1.8721076007818525,0.9140399060542268,2.5357076426342156,3.8732068333620093,3.414889739600377,3.275636416829842,1.7991040766483675,1.7223838736676844,2.324018582556349
264,264,13.2,-6.23,9.32,13.7,1.64,-6.94,-3.05,-3.35,18.7,13.1,,,,,160,13200000000.0,-0.7806784049581892,3.911232734770871,2.0915856437270524,0.7221266905884671,-2.1813069821305238,-2.8474928226060916,2.6833322169248333,12.247518649081664,1.5130606155854949,1.680562246533004,0.7685765745765843,2.64024748823246,2.5032603563424907,3.40798476540564,2.1682086948931967,1.495864141630007,2.1389323547890853,2.4760203541443175
265,265,13.3,-8.37,-10.8,-5.13,0.939,5.95,3.78,-5.72,-1.6,-7.21,,,,,160,13300000000.0,-3.7697403168166455,-4.549356306525591,-0.7954171646130352,0.8695077378787228,0.4292519772135024,1.0149980417640934,-0.9339435788553332,4.189569341182343,-2.3706190571071812,1.7221813309411975,0.45371675863783323,3.1007016097666376,1.7294892347364659,3.1913920582542854,1.4465110073518141,1.6336952830715445,3.2749125318123693,2.7076632855552716
266,266,13.3,15.0,-9.31,-12.4,2.2,0.802,0.369,19.7,-0.757,-13.5,,,,,160,13300000000.0,3.6227408186680266,-7.287254184744829,-5.434628448115449,1.7736731286208591,0.5489228590689524,0.6385115393659789,7.948088854926952,1.3111326930645617,-7.3256402650672126,1.868220823608811,0.8710518044087109,3.1023471390340456,1.8416806474540157,3.2095491452216764,1.3028847942480897,2.119009015553116,2.31638730079373,3.083225542728242
267,267,13.4,6.94,-22.0,-18.9,-2.91,1.66,-3.82,10.9,-13.1,-19.7,,,,,160,13400000000.0,4.929246712121441,-15.748713305286152,-10.817734830305842,-1.4092202942458592,0.9056345626185408,-1.959900917188072,9.21876045845785,-7.074787017666703,-12.83495107188756,2.07493997734381,0.819424655166682,2.7726171856838717,1.7206366110315294,3.0369905518757836,1.2912507351471825,2.684275481920099,1.5383949116508193,2.7761011442071877
268,268,13.4,-3.86,-29.6,-6.99,-1.48,-3.03,-4.7,-1.91,-20.0,-6.72,,,,,160,13400000000.0,1.4675930801442902,-23.7147381951124,-9.287505565499595,-1.4573202171719617,-0.3579023149139913,-3.5568256166319827,4.428304043242535,-14.596041436271891,-10.112453437749616,1.9951259262094785,0.6437027907703236,3.0640413910625472,1.8280682706475857,2.8989533275579458,1.4876586925536008,2.873662710086238,2.2698815588155377,3.043221437785146
269,269,13.5,-16.4,-26.0,4.82,-2.94,0.0947,-2.17,-16.1,-16.3,6.26,,,,,160,13500000000.0,-5.569576306964054,-25.02901695616741,-3.6476904271427903,-2.4649080003132444,-0.21259417913564932,-2.7485861893656574,-4.4082549146843135,-15.587584102208286,-2.8231122281373686,2.080605055771874,0.5145881298499878,2.8272564463931373,2.083588456993641,2.9660590033638488,1.921507255702619,2.477248960257476,3.087576061575136,2.663799194830536
270,270,13.5,-10.3,-6.87,7.44,-2.13,0.8390000000000001,-2.2,-10.8,2.57,10.0,,,,,160,13500000000.0,-7.432658519789933,-14.585569992457359,0.7848808443618456,-2.2373139606778283,0.12502050464271014,-2.4288711739851503,-7.159628472252878,-5.021583422413073,2.885991752443683,1.9932785182195913,0.8421326004606922,2.6903850387695556,3.7233914420262337,3.1146613900299,1.9727134757239253,2.029243063560685,2.0342787309673303,2.3459088178821736
271,271,13.6,-11.4,0.618,3.79,-0.917,0.753,-1.09,-13.0,9.71,7.1,,,,,160,13600000000.0,-8.99519980887715,-5.841832599946952,1.9862495772306317,-1.3400654886338277,0.32663355340822553,-1.6485794845175037,-9.673659162435325,3.550808177418533,4.762151789713915,1.8827847240385678,0.8471444552710304,2.4811732932409774,3.0392256757676464,3.5259347707968343,2.6000650333362207,1.7185540055622066,1.4811213047850427,2.327026810274083
272,272,13.6,-6.0,5.41,4.93,0.61,0.318,2.94,-7.38,14.5,8.23,,,,,160,13600000000.0,-7.815537346296692,0.6292178402633395,3.163084627951764,-0.014855470925439375,0.32386174439497584,1.0256364084752687,-8.686336829930067,9.922204725259428,6.306106412877232,1.722116767438495,0.5791023719702275,3.04770371345767,1.7008251925634112,3.2371246250638874,1.8462048283756975,1.4763580904901903,2.2615325214755053,2.7044062485586102
273,273,13.7,3.5,-1.46,6.4,1.81,-1.38,1.85,3.43,7.94,9.18,,,,,160,13700000000.0,-3.3589015613346103,-0.5723139400072985,4.457119533542805,1.2252652693607622,-0.22316367771460702,1.506074038849947,-3.4707708909919703,8.768748636106722,7.58562099314325,1.8142744917327265,0.35384026397437507,3.2246697801530537,1.397132041811779,3.076210392601467,1.2115340562859869,1.7831616965692427,2.971065343779972,2.900874141961024
274,274,13.7,-4.29,-7.89,4.26,2.29,-0.593,1.37,-3.49,1.73,5.96,,,,,160,13700000000.0,-3.7256156045196116,-4.780794199324738,4.378316344715393,1.948829210451919,-0.3418997598363265,1.4267703368535851,-3.479048205874601,4.672861070488018,6.861862290889943,1.8422964263124402,0.8107045334831298,2.8036746211956465,1.2510086387825834,3.173860722266408,0.9906752697389352,2.114635198976881,1.5832466435872676,2.8453666750012947
275,275,13.8,-15.0,-61.1,1.54,2.98,1.8,7.77,-12.1,-51.8,1.95,,,,,160,13800000000.0,-8.166043258338478,-37.17057722531121,3.243631021756616,2.6495840740676697,0.3457579103297073,5.1235931494004445,-7.190000196697966,-28.18901522508903,4.675003766543412,1.8642335738323506,0.719393941723373,2.635947974044725,1.5118619235992536,2.70935839062223,1.1807287264679396,2.7412512473487896,1.2813546352939298,2.629500253992218
276,276,13.8,-9.09,-20.2,-5.88,0.659,-0.105,3.24,-4.2,-11.8,-6.65,,,,,160,13800000000.0,-8.529944612083911,-27.410615299000387,-0.4037602292119909,1.2968387538506234,0.20104192273549734,4.025838459798221,-5.902932635678754,-18.652154833526577,-0.3671126462147241,1.7803026977739504,0.5222167968741602,2.9749243308652584,1.725722505642053,2.82239284114362,1.346146892620442,2.6607176486026245,2.418662222799213,2.9727626373477505
277,277,13.9,2.99,-7.63,-4.63,-0.835,-2.76,1.6,8.96,0.0472,-5.86,,,,,160,13900000000.0,-3.9928028157821633,-16.034569735176035,-2.093301394540489,-0.15189927061477704,-0.7496016446273578,2.6120641882051983,0.4949255674494504,-7.770894666106244,-2.812655137047435,1.7801473969057342,0.44173724865927083,2.7843986280486464,1.9005679141926408,2.9190780155060776,1.9354249684427762,2.1219514521379748,2.5343685662301705,2.4632891980430704
278,278,13.9,17.8,-2.55,-4.7,-1.39,0.489,-2.77,23.8,5.13,-6.05,,,,,160,13900000000.0,4.590314230363231,-8.279447923892594,-3.1353918571918467,-0.9932779156312214,-0.3519481451225597,-0.5245931165840685,10.526765179708788,-0.263791146436839,-4.2539853854068035,1.6950431509570283,0.7677136780986794,2.4982160543710434,3.80921884652494,3.174083706582237,1.8960172546343537,1.5663616243677974,1.369418277358086,2.2250212795323776
279,279,14.0,2.08,6.4,12.2,-0.267,0.454,-5.61,6.14,15.3,11.9,,,,,160,14000000000.0,3.6016244113850737,0.16286127431914288,2.995300249868043,-0.4997197343442981,-0.09319820553298758,-3.488359167343462,8.638449928585532,8.79286691598373,2.9380892410522663,1.689528957213099,0.758361267687583,2.4951019602703326,2.254811319729189,3.465701833128804,2.1633959580896702,1.5334272101924917,1.3498485357091667,2.374547180395456
280,280,14.0,-25.1,-6.06,13.2,2.52,-4.08,1.5,-23.1,3.45,11.8,,,,,160,14000000000.0,-7.702539431992139,-3.415973462748549,7.074874635995691,1.5523973926534094,-1.373162325878084,-0.5811524285422291,-5.0235984118714025,5.683822516007705,6.883587820357512,1.6163116774200674,0.41135374485261017,2.765297327123454,1.5444361705509992,2.8937780740120784,1.6630857900644003,1.391934461487053,2.6090202676895324,2.472621546708188
281,281,14.1,1.38,-4.46,-0.182,-1.45,6.66,3.95,5.34,4.43,-1.34,,,,,160,14100000000.0,-4.125372127344268,-4.0164044291649486,4.173764250437166,-0.4879480004015026,1.2058872686516977,2.059595074095037,-0.5625115224502268,4.954216014152125,3.222283347999908,1.824605310440413,0.49668616526751197,2.926902814103645,1.366927979104105,3.0966289914932457,1.1782614147275883,1.8553583712197956,2.1720067136679377,2.905492736227405
282,282,14.1,6.07,-7.83,-11.7,0.67,-1.45,-0.917,11.0,0.584,-12.5,,,,,160,14100000000.0,-0.10991447489525186,-6.209644412002271,-2.1721551852567487,0.29896111107276097,0.3532136939681958,0.32484082819663884,4.414656228766618,2.4111626334315406,-3.7775891360708056,1.8416316084617799,0.7704523144233821,2.6443280362274653,1.0870806230453938,3.2466950392519416,0.9439380298064102,2.162311869806946,1.3990880188026056,2.756644878532702
283,283,14.2,8.67,-41.5,-1.55,-2.06,3.57,-5.11,12.5,-32.5,-1.71,,,,,160,14200000000.0,3.3480637174126047,-26.505509297236195,-1.9234336488973625,-1.3041228957145166,1.3859640688672243,-2.8425746962580045,7.89505165994514,-17.903840034164,-2.857057447729063,1.64049228954713,0.7000082119219656,2.5821087856804374,1.421595322239553,2.784444740870694,1.3593148388656702,2.830798172088965,1.4693630197240022,2.680027727566932
284,284,14.2,-9.0,-28.5,-9.91,-2.75,-2.79,-3.21,-7.8,-18.8,-8.88,,,,,160,14200000000.0,-1.515233619149429,-27.652562455066,-5.116255809601778,-2.286700568149919,0.04526932028991881,-3.056709523785833,1.139001663955435,-18.42532013462905,-5.538591020981647,1.8828422566698464,0.4485544698243146,2.7892858679983137,1.6036466000887182,2.6990489612485216,1.4964616668657438,2.5807367525157208,2.80939748802718,2.8372145028676403
285,285,14.3,-8.52,-15.9,9.03,-2.16,2.11,-1.07,-8.2,-6.32,11.2,,,,,160,14300000000.0,-4.274068096285484,-20.89353655659434,0.5390504965945189,-2.2005984612387,0.7081518112561636,-1.898858821913142,-2.8810399049398,-11.381166093643634,1.9137617182067244,1.825774252305796,0.5505963622894317,2.888410920695998,2.0815188953995842,3.0125492228160615,1.9411983943766373,1.9794260462744948,2.055876852908125,2.543773855250844
286,286,14.3,-9.39,-1.4,6.75,-1.1,1.41,-2.1,-10.2,7.82,10.0,,,,,160,14300000000.0,-6.288983166408037,-9.682593000489886,3.0220271251707587,-1.4526625213872677,0.9334804130531832,-2.0160834826713017,-6.0315397887693445,-0.2078990215502756,5.513915436054878,1.884336007954908,0.8294235113363325,2.4323664468065966,3.7013575185643144,3.334338158323306,2.5015586830870413,1.6755872372371636,1.3539307813708272,2.2306892232278157
287,287,14.4,-10.9,2.7,3.2,1.12,0.0244,1.93,-12.0,11.8,6.57,,,,,160,14400000000.0,-8.105036641968548,-2.561229918502669,3.093176086674436,0.29564703370523593,0.6416198205097221,0.28368683364988945,-8.600707190685416,6.779565334511852,5.984105313567767,1.809477395772194,0.7100145887717786,2.4783547696568458,1.8553020445105932,3.239258090168537,2.086256383522841,1.5732810898428864,1.5246718856774684,2.32328922843074
288,288,14.4,2.28,4.3,5.43,0.97,-0.211,2.68,2.28,13.7,8.35,,,,,160,14400000000.0,-4.014879508212879,1.3847376673536864,4.027377649973712,0.7539184830349727,0.367885923041293,1.680253870196735,-3.9170271188978023,10.806605232659011,7.037448738275371,1.5869071444630654,0.26081491277910723,2.9158219508955137,1.6085391811679972,2.993906085783026,1.484519955433993,1.3479210756163515,2.8006192652650737,2.59115431489792
289,289,14.5,0.596,-3.74,-1.07,2.29,-0.742,1.69,1.63,5.79,1.0,,,,,160,14500000000.0,-2.1988799619515564,-1.5625543542038955,1.9895781645312325,1.797796527479174,0.01155665491090502,1.6859339304414902,-1.5292686795687065,7.887414298550611,4.349456774155385,1.8149824273806556,0.6917163762754023,3.042443241992318,1.2568886056918847,3.185330915058372,1.1357550764920836,2.0329904396223224,1.9721840444555891,3.049546805704854
290,290,14.5,-39.3,-40.6,2.22,2.79,-0.392,4.79,-37.3,-31.0,3.07,,,,,160,14500000000.0,-16.811193170189174,-24.013410349323717,2.0816948534380444,2.47207025256956,-0.11800535047695172,3.4949780231926173,-16.927041578867605,-14.741391665488887,3.7798172035519593,1.8302085121322322,0.7610399191724605,2.5198208508470628,1.124567022709816,2.987036160661564,0.9018832582223602,2.394245558775725,1.1634817589523467,2.5291860994835966
291,291,14.6,-12.6,-26.9,-7.62,1.98,-1.98,2.75,-8.13,-18.2,-8.02,,,,,160,14600000000.0,-15.152610647307608,-25.67351903371757,-1.7967912429797122,2.137673073673606,-0.7157994061014568,3.0608061729652016,-13.140290664254591,-16.753975828858874,-1.4736957332316425,1.3942877448116644,0.6285485322245911,2.760041156548769,1.381788548455251,2.6773640533459186,1.4220391524660747,2.554266428974502,1.5333541578137182,2.71594388365519
292,292,14.6,-0.977,-10.5,-2.36,-0.126,-0.317,3.39,4.79,-2.65,-3.27,,,,,160,14600000000.0,-9.569532110285518,-16.947064255613995,-2.021947464174148,0.5993441138445357,-0.5877647143931021,3.2526598036281125,-5.42206576986788,-8.546792709291193,-2.273446023831656,1.700273926204638,0.36352755187641184,2.8953895774098566,1.6263204396731952,2.6049593851592143,1.6334782349574994,2.23956780481111,2.759576493232351,2.736753875849649
293,293,14.7,6.64,-3.61,-5.41,-1.84,-2.11,-0.263,13.0,3.76,-6.6,,,,,160,14700000000.0,-3.1853916091004164,-9.276774406825774,-3.37640299136195,-1.0583659967473968,-1.0764788646717791,1.2037395950310148,2.507847336169143,-1.385400545123033,-4.1997136524404715,1.5215767223683059,0.6309379391973663,2.864161650783935,2.5040302114207926,2.917542912132642,1.879846020566203,1.6924182411298847,1.7039303021927794,2.389053391216778
294,294,14.7,8.83,1.0,-3.51,-1.28,2.8,-5.59,14.2,9.2,-4.03,,,,,160,14700000000.0,1.5468824523661209,-3.3664903832807487,-3.4298116088743904,-1.2089822519541824,0.1680660487121317,-2.755639694503526,7.540819983886058,4.7743036931722,-4.124153860585643,1.619830209438635,0.8173526337307354,2.5375844762631026,3.3678519239862155,3.4791755301576237,2.6813018163458873,1.5661292469459631,1.2519159819353984,2.350032526249285
295,295,14.8,-3.47,7.09,8.81,1.43,-7.21,-3.8,-0.478,16.4,8.25,,,,,160,14800000000.0,-0.42902176759440414,2.6471503282878954,1.463347993895871,0.5843962997219827,-2.20066471250619,-3.3642909718866565,4.089060210453979,11.539361798402345,1.3850649472149277,1.6573762124306524,0.6108977442376234,2.609721055589274,1.78129185660558,3.207711410494216,1.931570997988582,1.4842438759460181,1.6854922080631616,2.3989250142687992
296,296,14.8,-8.79,-10.7,-2.14,0.928,6.65,3.79,-6.38,-1.41,-4.08,,,,,160,14800000000.0,-3.7220014536201447,-5.028939959871122,0.02282281992054536,0.8178997536607968,0.6408443958199967,0.8052168995742175,-0.4174234659894181,4.004055066789801,-1.048090362792113,1.4107153685632032,0.196264015917425,2.8511185436457582,1.3768096005921908,3.0314565694167324,1.3031322430208405,1.4123910433504434,2.6243231944130025,2.532185255106114
297,297,14.9,10.5,-9.57,9.5,3.23,1.86,0.966,14.8,-0.807,8.82,,,,,160,14900000000.0,1.8793481484586116,-7.640552489151771,3.811552615600081,2.457095683553642,1.0322547440359513,0.8989210128851841,6.133027976484243,1.2044749678904716,3.345379118434842,1.6404153232865246,0.7429540904532523,3.0177711084211247,1.1240353609029639,3.006639012591507,1.0837792250223963,1.8977202451173842,1.6093464838812337,3.0464266233746793
298,298,14.9,8.63,-18.0,-18.8,-2.17,-0.609,-2.09,12.8,-9.2,-20.1,,,,,160,14900000000.0,4.538099226971694,-13.598382708277024,-5.227959741602667,-0.6873492823229848,0.5053293115707737,-0.8430167204204919,9.002874984947605,-4.849947655389282,-7.092969002345924,1.607231022587129,0.743749960810134,2.71660087692338,1.2742730293588125,2.8236973087045536,1.0366682357089245,2.366678687792162,1.1971696184805063,2.551965894564547
299,299,15.0,-4.09,-34.6,-0.6940000000000001,-1.76,-1.96,-5.78,-1.87,-25.1,-0.669,,,,,160,15000000000.0,1.1399135929735955,-25.676638901879567,-3.4154001558381,-1.416292726421228,-0.2861655596410386,-3.72028180663568,4.3225663291030205,-16.63356768170516,-4.232890561079231,1.4542698250290986,0.5230670323212082,2.9348473837538447,1.4057695884873267,2.753050609914243,1.4610903317208486,2.7601378567906303,1.8099587129068566,2.87832684054304
300,300,15.0,-17.2,-26.6,-2.58,-3.08,-0.156,-1.38,-16.6,-16.9,-1.5,,,,,160,15000000000.0,-6.0832801547322175,-26.207674067656285,-3.0814287959431748,-2.5469016424051287,-0.2443758611050004,-2.356369781746121,-4.6837057167542255,-16.78860593019224,-3.016153461444865,1.7365555395562757,0.3587063515115838,2.9031840764598904,1.5874864006377627,2.8587597910629903,1.8872648366143028,2.2906887169272614,2.6539618762840216,2.7337480638464458
301,301,15.1,-10.3,-7.81,6.82,-2.81,-0.218,-3.29,-10.6,1.72,9.13,,,,,160,15100000000.0,-7.744039589525325,-15.626972852844634,0.8769058681190325,-2.7256958945842253,-0.23590787976110866,-2.9004877692647457,-7.230418077191143,-6.018343611100057,2.3915550959737937,1.4943983858499474,0.7072949905143028,2.6113608601235136,3.0348021151910807,2.7839085505347643,1.821377956888147,1.6814245220084147,1.4711073270658028,2.282910937185745
302,302,15.1,-12.0,0.51,5.99,-0.395,0.6629999999999999,-0.603,-13.5,9.66,9.16,,,,,160,15100000000.0,-9.420253885341412,-6.346425376699233,2.9209882831992755,-1.1418201074058212,0.05268681319198118,-1.5615160264479386,-9.929205524816854,3.1049729775645427,5.405000988460718,1.713050145249302,0.7991599139571205,2.52896587970749,2.5136346130266918,3.392805792274949,2.091743824760136,1.6281979696257995,1.2885802913704087,2.2990737904257275
303,303,15.2,-5.93,5.14,4.62,0.893,0.25,2.87,-6.97,14.4,7.53,,,,,160,15200000000.0,-8.04561380833805,0.25954191565942164,3.600209084789466,0.2409867754149837,0.11603428252660992,1.0211634660058273,-8.655393747592232,9.677612759032261,6.351092802794751,1.6123511633955057,0.4846711651354896,2.8594577896725224,1.395951141392853,3.0923691659584196,1.875290905195063,1.4459887351551997,1.9869012413953662,2.4977879763524755
304,304,15.2,2.3,-1.13,2.87,1.29,-1.15,2.11,2.55,8.39,5.2,,,,,160,15200000000.0,-3.9709834048408754,-0.5395986542192794,3.30829037338048,0.9538668203574634,-0.2904264699250473,1.6557353759087143,-3.831949978080248,8.928343823631108,5.838603363845698,1.563848473963982,0.2853007947143389,3.2231749986603933,1.165304362708433,3.0093278303591675,1.2281113703702027,1.7209715860182162,2.4880857908998237,2.9782839376012222
305,305,15.3,-3.61,-5.79,-1.38,2.17,-0.247,1.34,-2.47,3.85,-0.0285,,,,,160,15300000000.0,-3.828809685813956,-3.5591611878773888,1.4340334007774656,1.7803169940600676,-0.2764843842412523,1.4717253869146598,-3.2456886494656225,5.9732268215227675,3.226452540148001,1.5588781960076814,0.7942590609572808,2.7317374224515323,1.1503683307806647,3.0596034829688104,1.0747176279232467,1.9934036269609823,1.610887127307579,2.786527432974512
306,306,15.3,-13.6,-55.3,2.42,2.76,1.02,7.7,-10.6,-45.9,2.57,,,,,160,15300000000.0,-7.677202986393698,-33.315876318629435,1.8281973221746877,2.4460821794117558,0.13975238580899418,5.101552503273533,-6.4114059863829045,-24.21209766392177,2.9341868152234607,1.4225700648714634,0.7379101113371913,2.3645220522474726,1.4105070459369198,2.7070291588244326,1.2118591786048214,2.5704625951539724,1.2968273383014854,2.426999179087141
307,307,15.4,-11.1,-23.7,-6.59,1.08,-0.163,3.39,-6.27,-15.2,-7.69,,,,,160,15400000000.0,-9.025275189130333,-27.78568236677584,-1.5371798352332542,1.5177309370718692,0.042553623045788594,4.104062847972574,-6.350536735890103,-18.967907034112717,-1.7959119692833152,1.3987340652614073,0.49642517788176727,2.821842795992243,1.5750111968600264,2.7719786484496605,1.3806575067055809,2.5774370163363196,2.337999613338089,2.816723385647649
308,308,15.4,-0.0814,-8.51,-3.53,-0.8320000000000001,-2.51,1.92,6.03,-0.972,-4.95,,,,,160,15400000000.0,-5.502720934194877,-16.700029254953225,-2.333857673351191,-0.07908055196927344,-0.7769446293142437,2.8311949286129336,-1.0212439512528535,-8.49598711599498,-3.2001744542384305,1.5448453443508672,0.3857646493304176,2.9027280177061705,1.7175232511729626,2.8603971284545167,2.006588429140729,2.049147412879912,2.3962695666642966,2.5660444804670988
309,309,15.5,10.7,-2.31,-5.08,-1.25,-0.7390000000000001,-1.33,16.9,5.15,-6.69,,,,,160,15500000000.0,0.8787369558878968,-8.424167882965182,-3.4316941672138808,-0.8748046854003341,-0.7647624996700929,0.4060579934280355,6.693086571491999,-0.5553101035561879,-4.753914052477322,1.2883588842996845,0.7858424882973005,2.5475674875704235,3.577880749667783,3.1512153636521036,2.090945864598891,1.4705858569993284,1.406303488863997,2.29104769731367
310,310,15.5,6.91,3.45,2.19,-1.24,3.13,-5.41,11.8,11.9,1.37,,,,,160,15500000000.0,3.2541559225954377,-1.5952055806700258,-1.1842865261408062,-1.122981221643068,0.4856524333323923,-2.9835300416197272,8.891394934220386,6.692504954530977,-2.0274260128389066,1.5628381466315435,0.7604316845024982,2.5025403586967334,2.0576396943746658,3.659410424666894,1.9751973332726653,1.5544483602457981,1.2978796221040538,2.33707860093387
311,311,15.6,-17.4,6.0,7.05,1.05,-7.37,-0.65,-14.6,15.3,5.76,,,,,160,15600000000.0,-4.880504047651479,2.7728792309571046,2.107567877084935,0.35371605631130776,-2.036407558829565,-1.62355292210569,-1.2206481949320995,11.701255036012011,1.4396906561966878,1.4594009731653421,0.38994518811698975,3.019775567004245,1.4359578841459768,2.9943370524138126,1.701230618130269,1.3546421636922596,2.474009733705986,2.5518354402753842
312,312,15.6,-3.01,-5.24,3.81,-0.331,7.22,3.71,0.987,3.6,2.35,,,,,160,15600000000.0,-4.143804140076163,-1.83541407916068,2.788156091260681,-0.11159784009778716,0.9353653377355182,1.4848321375165006,-0.2703498688673386,6.987088930090247,1.8449783945665743,1.5850699082362343,0.4705641106753108,3.102660660738625,1.31647201119775,3.114491100121443,1.2507634289697587,1.8447629780435366,2.394394123086383,2.981340654070484
313,313,15.7,7.19,-10.3,-12.4,-0.0535,-1.09,-0.17600000000000002,12.4,-2.15,-13.7,,,,,160,15700000000.0,0.320026062557254,-6.703489029597428,-3.2836748965633555,-0.07211617187928533,0.28512105952158784,0.5169021594502978,5.1836948464938315,1.670165232210369,-5.0759543215025005,1.5694950314041702,0.782930549068291,2.655503037767232,1.0323043727542256,3.1636831327495734,1.0121898035540156,2.0005646985932692,1.2515938590278568,2.774857374292854
314,314,15.7,3.74,-33.0,11.3,-1.97,4.15,-5.21,8.05,-24.2,10.8,,,,,160,15700000000.0,1.6669862474162622,-21.82689667782973,2.5465004060464107,-1.361865001134703,1.5259418590128468,-2.8207261272828954,6.417516970415384,-13.383830440203294,1.9923356137953423,1.1394211312408398,0.7137694218382327,2.4863932897816423,1.400497471628739,2.8924387576739368,1.3492254425430494,2.5048088055061153,1.2907961031015762,2.596288968566454
315,315,15.8,-8.67,-26.5,-8.21,-2.88,-1.88,-2.78,-6.72,-16.9,-7.77,,,,,160,15800000000.0,-2.404246231347777,-24.514448901127878,-1.7536696715814897,-2.3935471971205304,0.4324630061412049,-2.7969909969753046,0.7623766814734054,-15.429909139657036,-2.3540498823324056,1.4295135906178795,0.4377267442731078,2.842742567656525,1.5626663131779537,2.884672199088991,1.4994118713089795,2.3715855176531315,2.751826960866635,2.8985374357910727
316,316,15.8,-14.4,-16.1,7.69,-1.79,2.54,-1.96,-13.6,-6.46,9.47,,,,,160,15800000000.0,-7.12878578937363,-19.67520862164426,2.0216647135638617,-1.9833933632460896,1.1090885010375535,-2.3091941735726937,-5.420013693636794,-10.210268383529202,2.9102518389131187,1.445098186187843,0.5431313503290877,3.0067999513719603,1.9084108625580565,3.10006619482061,1.9796360584897328,1.9016322070064278,2.1550376912141154,2.6650072109582807
317,317,15.9,-8.75,-0.563,11.0,-1.65,0.611,-2.16,-9.34,8.78,14.0,,,,,160,15900000000.0,-7.767302639705193,-8.683570909129793,5.610970449751054,-1.7568285346591437,0.9491770097417978,-2.2222441279319654,-7.107400568955005,0.8402758649062037,7.847627746080002,1.496728264325761,0.8381956162993355,2.456609200754364,3.710689269118733,3.500312513914213,2.3987308618203524,1.553977661558229,1.3712461213316292,2.2510235032802197
318,318,15.9,-10.8,3.08,3.3,0.866,-0.526,1.48,-11.8,12.3,6.52,,,,,160,15900000000.0,-8.96173362581378,-1.9182141930213639,4.687104343399113,0.025572435564661825,0.4755708947658139,-0.06458290671850131,-9.127364437665227,7.508754159186245,7.256541524270598,1.6592369320911888,0.7231834799825906,2.5701462185274355,1.882577940284832,3.428006597495017,1.8967069276670976,1.5797346896995175,1.4727837366096923,2.355206407718292
319,319,16.0,3.18,1.1,2.36,1.48,-0.31,2.54,3.28,10.5,5.1,,,,,160,16000000000.0,-4.179699577426234,-0.18240657874553332,3.75678830166915,1.0139607747217214,0.2233630767155913,1.4533632982877989,-3.786523574982314,9.249377004481401,6.296406408401572,1.3902154072750441,0.278100784181354,2.7956168398015873,1.5279195232856373,3.218682133243333,1.5230849607991837,1.3419203308919634,2.7546860954454395,2.504345541367522
320,320,16.0,1.66,-4.36,-2.64,2.29,-0.838,1.52,2.81,5.2,-0.792,,,,,160,16000000000.0,-1.8797280281345925,-2.58498577978508,1.1995180964033887,1.8811213450853017,-0.11738791926502436,1.4921990369184237,-0.9470017237824346,6.89302154915943,3.140507239954607,1.5455348006800513,0.6889416219735414,2.9963023790871914,1.3129844751484867,3.2362898363831833,1.2058913983393753,1.9161980091789084,1.9789346645167,3.0844734388016795
321,321,16.1,-36.1,-28.8,1.76,2.96,-0.29600000000000004,4.16,-34.0,-19.2,2.47,,,,,160,16100000000.0,-15.357416022384006,-17.6615233274658,1.4235842304023438,2.614297153683884,-0.174731393017812,3.0469885446228164,-15.17490686203863,-8.290655472479056,2.8419841262837435,1.563149482021312,0.7792969936917605,2.4700244849909345,1.0642319907274822,2.983188211009318,0.9472643017549234,2.250240898493924,1.2123727532632882,2.6023346371686387
322,322,16.1,-13.7,-24.6,-6.66,2.12,-2.56,2.89,-9.03,-16.0,-7.11,,,,,160,16100000000.0,-14.704640976894956,-21.651916466073146,-1.8080231638196067,2.278386544292736,-0.940522715712848,2.955495964687563,-12.529786592308874,-12.776766585032592,-1.5888367182552243,0.9070465269434338,0.6674489821674255,2.6495631290177086,1.3641307122944668,2.83489270766063,1.4564709784795085,2.4389542883125968,1.5622119611977383,2.714173574640343
323,323,16.2,-1.17,-12.9,-2.98,-0.0944,-0.0696,2.97,4.67,-5.1,-4.16,,,,,160,16200000000.0,-9.374008974231533,-16.618594504167387,-2.2765491338395054,0.6659071181662068,-0.6609126660398482,2.963948907020189,-5.126012475538229,-8.3096127056745,-2.733569556448985,1.3537133361832827,0.3508091756777507,2.931431797327434,1.5250914640162054,2.5899364009184986,1.6290686927038343,2.1514940792290997,2.731724307562262,2.747965479986371
324,324,16.2,3.69,-3.99,-4.38,-1.39,-1.51,-0.017,10.1,3.29,-5.74,,,,,160,16200000000.0,-4.2287358543746745,-9.355753331759278,-3.1174543161027635,-0.7312298935949129,-0.9335124558281904,1.2266572520946408,1.4281362510918765,-1.5597325954590406,-4.072091937017756,1.2391727651412183,0.628758190208374,2.8612172179184343,2.175118171327197,3.011117672491227,1.9080370987169217,1.7052616839056813,1.6628873597000837,2.331762145291096
325,325,16.3,10.8,0.436,-5.04,-1.35,1.81,-3.89,16.7,8.27,-6.01,,,,,160,16300000000.0,1.6903469793985586,-3.7244101761918063,-3.886038234415338,-1.1517287814661938,-0.052706817079498536,-1.7553214405754791,8.002022158295993,4.160244573297401,-4.934887157573142,1.3269936537737788,0.8293343592727344,2.4323479164109387,3.550548685095669,3.5308511281335995,2.660729446308576,1.461992728561718,1.2510357132593366,2.1819685283657475
326,326,16.3,-4.93,9.45,10.9,0.904,-3.62,-2.97,-0.789,18.3,10.4,,,,,160,16300000000.0,-0.9170832812489508,3.8523353836758,2.025036456817864,0.24528703668540144,-1.1979875351037652,-2.463233934072372,4.217862308961921,12.388247654421372,1.8925086865579568,1.4807499376772808,0.6383295778204671,2.572311347869175,1.7161805792906748,3.3702420480231865,1.8544121773398148,1.4790174774041591,1.6271826457764094,2.2959225404504524
327,327,16.4,-9.98,-9.08,5.37,0.755,4.25,3.35,-5.95,-0.226,4.12,,,,,160,16400000000.0,-4.486521982103032,-3.585190412704372,3.3622661368293953,0.5916737184677466,0.5510908154031142,0.9247082776169608,-0.15896839390036546,5.047945718330421,2.8842319628326587,1.1910900320684406,0.20438765637331643,3.0731224654395417,1.402843611644773,3.191506347645519,1.3263826918198751,1.3844316652616486,2.4906103763152925,2.5133498767757017
328,328,16.4,11.7,-11.8,13.5,2.79,1.71,1.14,17.1,-3.65,12.9,,,,,160,16400000000.0,1.888555934376896,-8.309616294361094,7.41506937330343,2.085594797290419,0.9231590366762068,1.050179897349084,7.270281094088657,-0.013438064937325578,7.343450440718826,1.44063274330257,0.7379447968966131,3.0917421795963627,1.1948367949444498,2.949673370416287,1.1385468433672645,1.8673361660378902,1.6521658660337757,3.0220471185111415
329,329,16.5,8.17,-29.2,-7.45,-2.21,2.01,-3.11,13.4,-21.0,-7.83,,,,,160,16500000000.0,4.362509038625168,-20.323902166817824,1.4724000049163557,-0.8335714047467873,1.2720897143740533,-1.3743653932943427,9.908863317738817,-12.225636958771489,0.5879292900418074,1.4031901316061548,0.7530568395849837,2.679495613909035,1.1654105402782475,2.770280726532675,1.026373428273153,2.349252691625915,1.1412792995912642,2.5625362698031604
330,330,16.5,-7.6,-20.0,-6.4,-0.534,-1.6,-5.7,-4.5,-10.7,-6.14,,,,,160,16500000000.0,-0.3489371616650283,-20.137622530236186,-1.6747815088100435,-0.6299910362088028,0.35000427466668416,-3.8953373405484712,3.706462593856665,-11.337860086731006,-2.407478255742205,0.9722819373034407,0.5453301115554999,2.881370491954571,1.3597861921693857,2.702192737114093,1.4074297191664935,2.6098227829388994,1.6784588930508746,2.849941324514301
331,331,16.6,-18.3,-28.3,1.04,-3.02,-0.39,-1.74,-16.9,-18.6,2.06,,,,,160,16600000000.0,-7.418981046895625,-24.83189358599256,-0.589482241821595,-2.2541743219390424,0.11242564168682276,-2.6392106257505654,-5.163739956084386,-15.563740531021693,-0.4184683248789265,1.3614084553264112,0.3599041299644129,2.92283490310736,1.5124808748257317,2.7943911304764066,1.7427063477827596,2.126248178587678,2.6674017637023537,2.744427469732514
332,332,16.6,-12.1,-7.93,5.92,-2.41,0.887,-3.69,-11.8,1.63,8.05,,,,,160,16600000000.0,-9.262605228242156,-15.11143182542615,2.012840068341933,-2.360069156248481,0.3611030248102472,-3.251608813962272,-8.020366768040695,-5.558605831717962,3.3518618766948247,1.1107096260639442,0.700989753941036,2.6898984116122433,2.6229316412602834,2.7802598117880835,1.8472019560318664,1.5613783253062292,1.4241844544626125,2.4363559686357252
333,333,16.7,-9.33,0.496,4.86,-0.6509999999999999,0.838,-1.09,-10.5,9.79,7.79,,,,,160,16700000000.0,-9.289148696955053,-6.135429116131874,3.1510608662670587,-1.1986335362286062,0.5142109694444671,-1.9918271096485825,-9.087743049827797,3.372834547803375,5.3278090069669215,1.4498764502270927,0.8075765539462644,2.5966243734482597,2.49447794607428,3.593858551949365,1.907234259574492,1.586474099065705,1.219813321209709,2.4281463321384096
334,334,16.7,-8.37,4.39,1.38,0.413,0.154,2.55,-9.32,13.7,4.27,,,,,160,16700000000.0,-8.9271410114859,-0.0821411588129477,2.443036634520256,-0.10341243343154227,0.398565108349824,0.6551415223326307,-9.187719623363533,9.382270327360914,4.856851441142117,1.4336220410524283,0.50749230532662,2.927195317390849,1.3847120364326089,3.2469197008320276,1.81404311462921,1.4919252124850428,1.887682856403691,2.6239680096260782
335,335,16.8,2.76,-0.35,5.04,1.49,-1.51,2.36,3.22,9.11,7.57,,,,,160,16800000000.0,-4.32414875233079,-0.23618966973030145,3.4812352615580853,0.9794261320322166,-0.2141804005848621,1.6487299115661127,-3.8467258437649754,9.22383448667224,6.064799086123923,1.2787803514133094,0.29322611154719114,3.15620734324268,1.149893972890591,3.0991184293399394,1.249574241164047,1.697418112657624,2.569375100080303,2.893739544094166
336,336,16.8,-1.46,-6.73,-1.7,2.28,-0.6920000000000001,2.1,0.192,2.83,-0.244,,,,,160,16800000000.0,-3.196100895437609,-3.9708501809275134,1.4099116784332302,1.8632597663837571,-0.3675845451781301,1.911729250797785,-2.1082267300672357,5.503226050720672,3.2559965622017524,1.294885495629862,0.7786598459288965,2.9378993959723916,1.1941817054132515,2.9577634036817173,1.1281866259273456,1.8470223061682352,1.3853451676206747,2.930858464184438
337,337,16.9,-25.9,-61.8,-0.223,2.89,1.06,6.65,-22.6,-52.6,0.0669,,,,,160,16900000000.0,-12.138054283148756,-37.22901876879242,0.7571159112173518,2.5610038063362253,0.0907419662753608,4.673184965490077,-10.929060749126661,-28.307368388999382,1.8361474995140945,1.1136892079519154,0.7411210306032874,2.5235884033397498,1.3751022841306004,2.6156023728287674,1.1861581164425061,2.3598398425217635,1.1659134505869,2.4434335265425635
338,338,16.9,-12.9,-19.8,-7.7,1.07,0.475,3.3,-7.79,-11.5,-8.5,,,,,160,16900000000.0,-12.438147221197125,-27.205401278850232,-2.6238197520993465,1.5477593239789893,0.21410814379323728,3.8728952128887797,-9.577829047502648,-18.52706581807289,-2.7657104413268687,1.0217281566854688,0.4884474720587499,2.8460117056683645,1.5230290610611015,2.5652936547897225,1.3689810173285801,2.516581119589967,2.1466484629961777,2.809008189311885
339,339,17.0,2.03,-7.24,-4.28,-1.05,-3.02,1.36,8.34,0.191,-5.34,,,,,160,17000000000.0,-6.739852871818835,-15.723083103564134,-3.2859177722074464,-0.21760528113457456,-0.8242034286354942,2.408384416823904,-1.8649682651936583,-7.634917624332327,-3.911835295906259,1.2602957708363987,0.37234786258912306,2.8622436421879844,1.6603508476399944,2.907067939621252,1.8765541648879065,2.0208703286658087,2.365181957261652,2.4799043364476314
340,340,17.0,13.5,-1.8,-4.7,-1.5,-0.677,-2.3,19.6,5.75,-5.96,,,,,160,17000000000.0,1.2316335746852936,-7.715767515060705,-3.851231118738208,-1.0890848932478936,-0.7769437106801071,-0.33565351381299324,7.374784665786704,0.15384152124443773,-4.82371887570947,0.9982772483673443,0.7796749673221531,2.6067988374435074,3.4186625074845245,3.1431793646007606,2.0149333879503994,1.4262616622227215,1.335988326714564,2.3289712656178616
341,341,17.1,4.78,4.79,9.66,-0.7,0.963,-5.17,9.3,13.5,9.22,,,,,160,17100000000.0,2.62916134913344,-0.5235654879460618,1.5502088211377014,-0.8246736653728542,-0.21833415898641173,-3.153101983873713,8.203507785872594,7.920046501150661,1.4288235206706643,1.3440173448390729,0.7570122036188083,2.4872563631981928,2.1464095090653275,3.635920660460283,1.9086130529169325,1.4586610998267104,1.2357836115786591,2.234153319575613
342,342,17.1,-19.9,1.26,6.25,0.893,-5.95,-0.183,-17.3,10.6,5.07,,,,,160,17100000000.0,-6.243971397542618,0.5021822938664409,3.4290635195868613,0.3426093586702593,-2.0584874700301947,-1.4221318957886395,-2.7746635613310597,9.479526796876446,3.0499476083594312,1.272702480195885,0.4022585067264527,3.1980776470421386,1.386691040095965,3.0336474895773167,1.7002895792685426,1.3563835254364225,2.289218239915918,2.7664730416922403
343,343,17.2,-0.498,-5.22,-0.9,-0.535,5.35,3.96,3.47,3.66,-2.09,,,,,160,17200000000.0,-3.9809147715927184,-2.7887064628976708,1.698416139880471,-0.2537894529320667,0.3200100565393815,1.7145649022062972,-0.08660239255244173,6.093111342874208,0.7615409923386478,1.3402595749128376,0.43350234816235544,3.2441810883770112,1.339215896749383,3.0776993935154806,1.2603824902804175,1.880050077953828,2.1921392938920228,2.9474918225851723
344,344,17.2,6.13,-8.07,-11.9,0.436,-0.316,-0.122,11.3,0.195,-12.9,,,,,160,17200000000.0,0.0012792436610609135,-5.826035276068837,-3.737878020180488,0.2149721747442825,0.11581879529519075,0.6442181840150123,4.814844067710228,2.6609670437087782,-5.320847939050336,1.337799098625323,0.788730720583284,2.5288446500842263,1.0765502708129986,3.0104511817455437,1.0906419882701657,1.9605679330206582,1.3642003610442452,2.5777201654809887
345,345,17.3,10.0,-37.0,5.62,-1.39,3.33,-5.14,14.5,-28.2,5.25,,,,,160,17300000000.0,3.939285487891866,-23.75451928911001,0.003159017760537619,-0.8757220516555857,1.1477327984178392,-2.72681367856564,8.983890358224459,-15.29720438413904,-0.6144967059600619,0.9525579181545276,0.7177868424223276,2.4944941715066764,1.3616075078428718,2.6339647723685493,1.3382798702694514,2.4787220635201233,1.263851409450227,2.4669592800810483
346,346,17.3,-13.4,-27.8,-10.7,-1.71,-2.02,-3.34,-11.6,-18.2,-10.4,,,,,160,17300000000.0,-2.8898094217043813,-26.081118527102717,-4.275686463896125,-1.4426740558758184,0.1307310544084037,-3.084177512340365,0.12340386398339298,-16.98635798804526,-4.971196751644447,1.119553042025397,0.4470492622300308,2.8566758491224906,1.505022181561763,2.6840246427904924,1.451520516699053,2.2878461058309947,2.6393958470121537,2.7601112768762786
347,347,17.4,-13.5,-19.1,6.46,-1.55,2.15,-1.57,-12.7,-9.41,7.77,,,,,160,17400000000.0,-7.068643671407537,-22.066202035872735,0.016162739140964,-1.5156097356814888,0.7790181036413375,-2.201717615718201,-5.396524146415089,-12.577632404949634,0.7014368250682468,1.1270678192650931,0.5077996701185653,2.9696469961456584,1.7358746175456425,3.014979384883865,1.8789869826524372,1.798679143369599,2.008150547975218,2.5340426083538423
348,348,17.4,-9.22,-1.86,9.61,-1.95,0.795,-2.75,-9.92,7.61,12.1,,,,,160,17400000000.0,-7.915957634221492,-10.445396882723387,3.8515300741278655,-1.8108092518994048,0.784149102552726,-2.5212556018329657,-7.343687483539936,-0.8303350382728478,5.776303473272763,1.1995042584462248,0.8360274845415732,2.4841083184281074,3.647047632019598,3.42521291616675,2.305367539217066,1.4879402988399548,1.3211406117101703,2.2335030228582187
349,349,17.5,-12.7,3.45,6.11,0.748,-0.5529999999999999,0.866,-14.1,12.7,8.99,,,,,160,17500000000.0,-9.800157465089011,-2.4540039390333668,4.75440786611784,-0.07191397733832416,0.3548569125652355,-0.5471691394037956,-10.251991843489288,7.043043210607808,7.207104826328753,1.46100517626131,0.7268405804294107,2.405162562126431,1.8779893710623086,3.5453220905211724,1.8189514240158315,1.5645983188150936,1.350063116234374,2.253020004119991
350,350,17.5,1.28,3.96,5.11,1.26,-0.18,2.76,0.8079999999999999,13.4,7.62,,,,,160,17500000000.0,-5.436226294768934,1.2347590650571534,4.896564437953433,0.8332175324475027,0.18314090681645045,1.3802430733429358,-5.491137355666415,10.742192039901312,7.390933898731445,1.2229648475246462,0.30144144711180204,2.741889403988281,1.4638685873998103,3.3275147896546082,1.5583982307253963,1.3827950876040147,2.622680494387863,2.5160120058125637
351,351,17.6,1.97,-4.77,1.04,2.33,-0.932,1.94,2.72,4.86,2.78,,,,,160,17600000000.0,-2.5192765950622658,-2.21864275634924,3.3548099195011,1.850389015269972,-0.17487547497270448,1.7064684354365838,-1.9565931426309129,7.3193113548814805,5.338054631167994,1.2822286455181389,0.6674181707230022,2.9395674505332057,1.3258735460193294,3.237817881578505,1.2878835616221394,1.8571940664477091,2.051330792434656,2.9474985087154826
352,352,17.6,-30.6,-25.2,2.32,2.55,-0.359,3.52,-28.8,-15.6,2.9,,,,,160,17600000000.0,-13.578897951452966,-15.435470107887056,2.9411197084491745,2.3258250562003133,-0.23398871887430425,2.763391354017183,-13.511533856558149,-6.017565561888863,4.252584379673944,1.293569941352702,0.7767375742524525,2.483165967613064,1.0385549546562134,2.748290126707654,1.0116405865892149,2.036323583876527,1.0678784734788194,2.2934828772004936
