,Unnamed: 0,Time (s),Acceleration x (m/s^2),Acceleration y (m/s^2),Acceleration z (m/s^2),Gyroscope x (rad/s),Gyroscope y (rad/s),Gyroscope z (rad/s),Linear Acceleration x (m/s^2),Linear Acceleration y (m/s^2),Linear Acceleration z (m/s^2),Still,Walk,Run,Cycle,SPM/RPM,Timestamps,Acceleration x (m/s^2)_kalman,Acceleration y (m/s^2)_kalman,Acceleration z (m/s^2)_kalman,Gyroscope x (rad/s)_kalman,Gyroscope y (rad/s)_kalman,Gyroscope z (rad/s)_kalman,Linear Acceleration x (m/s^2)_kalman,Linear Acceleration y (m/s^2)_kalman,Linear Acceleration z (m/s^2)_kalman,Acceleration x (m/s^2)_kalman_max_freq,Acceleration y (m/s^2)_kalman_max_freq,Acceleration z (m/s^2)_kalman_max_freq,Gyroscope x (rad/s)_kalman_max_freq,Gyroscope y (rad/s)_kalman_max_freq,Gyroscope z (rad/s)_kalman_max_freq,Linear Acceleration x (m/s^2)_kalman_max_freq,Linear Acceleration y (m/s^2)_kalman_max_freq,Linear Acceleration z (m/s^2)_kalman_max_freq
0,0,0.045,-1.85,5.34,4.13,-0.907,-0.6409999999999999,0.949,-6.03,-2.56,0.0943,,,,,140,45000000.0,-0.5917588488258549,2.9237734834766145,3.3064088133247345,-0.7330151076363132,0.1231705296288062,0.7616589784645926,-3.378530181737973,-1.9041027079794672,0.4384892131705816,,,,,,,,,
1,1,0.095,1.0,3.34,4.73,-0.892,0.414,1.16,-3.74,-4.09,0.43,,,,,140,95000000.0,-0.2932673682419951,3.093519389023561,3.608767793612495,-0.8244795835278884,0.1718488595533308,0.9503825806026762,-3.4458981297029547,-2.905943744567544,0.4364868324094935,,,,,,,,,
2,2,0.145,0.472,4.43,7.17,0.256,2.2,0.968,-4.36,-2.67,2.43,,,,,140,145000000.0,-0.06890420324699001,3.791515174382632,4.752720154476147,-0.12742797032626085,0.6729920959502786,0.9604263894467656,-3.712634024603568,-2.772539623820641,1.1319574886227983,,,,,,,,,
3,3,0.195,-0.508,1.23,10.5,-0.669,2.55,0.505,-5.04,-5.65,5.17,,,,,140,195000000.0,-0.219207155392576,2.3902905004199746,6.867244006190548,-0.481460496589853,1.216805421529426,0.6929990964456467,-4.1652719227805255,-4.455085131261253,2.720886613413517,,,,,,,,,
4,4,0.245,-2.34,5.37,7.9,-1.09,0.465,0.314,-6.71,-1.21,2.08,,,,,140,245000000.0,-0.9888070946752248,4.035253048111004,7.265927032162,-0.8798948391341761,0.9832962124174848,0.4693537659464317,-5.08570364059949,-2.546848557431097,2.45846133436666,,,,,,,,,
5,5,0.295,-3.87,4.9,12.9,0.237,-1.74,0.14,-6.51,-0.7979999999999999,1.51,,,,,140,295000000.0,-2.058103161349673,4.513510683634753,9.478953152601141,-0.14848409465239298,0.11081126275019593,0.2748439877589349,-5.612727341514236,-1.5174774520146614,2.064856073364037,,,,,,,,,
6,6,0.345,-1.43,2.5,9.27,0.732,-1.66,0.507,-6.05,-3.88,3.44,,,,,140,345000000.0,-1.8229575649511969,3.3995125338455674,9.396359612988773,0.4281233159921741,-0.4644648293589077,0.4119696124616056,-5.775965471273263,-2.9082807167470994,2.6381218930117805,,,,,,,,,
7,7,0.395,3.99,-2.96,15.1,1.41,0.685,0.13,-1.07,-9.29,9.53,,,,,140,395000000.0,0.3606304075619329,-0.11921651292218804,11.656025875090613,1.0711319295270971,-0.08869887620075778,0.2454171849218488,-4.013123407746152,-6.665263847419761,5.515595868832832,,,,,,,,,
8,8,0.445,-5.27,4.12,11.6,1.54,1.6,0.542,-10.0,-2.68,6.39,,,,,140,445000000.0,-1.7572474720395734,2.226382987184625,11.6338112243488,1.378183001895948,0.4649035310446946,0.4206019391775838,-6.258804455746758,-4.319087648631463,5.880863849087915,,,,,,,,,
9,9,0.495,-4.2,7.95,7.79,0.173,0.34600000000000003,0.55,-9.01,1.01,2.8,,,,,140,495000000.0,-2.6765216210113683,5.393324756155969,10.10924087481525,0.5889358711796872,0.4258741100757813,0.4970345018067052,-7.291320187457626,-1.1817825628073,4.5936566993132,,,,,,,,,
10,10,0.545,-3.44,6.7,6.73,-1.97,1.41,-1.28,-8.0,-0.0182,1.23,,,,,140,545000000.0,-2.9638963564915755,6.1163232227512445,8.768785181162945,-1.0868534576374045,0.7490928562040811,-0.5526203387139285,-7.557339979414277,-0.4967658735801,3.1882128315259908,,,,,,,,,
11,11,0.595,-2.88,2.25,-1.24,-1.04,2.66,-2.23,-6.27,-4.37,-7.63,,,,,140,595000000.0,-2.93231521439348,3.977041481849311,4.798404767841923,-1.056170161388546,1.3768585203482897,-1.5434113219253645,-7.074067845465693,-2.7769908315574683,-1.3320756335185229,,,,,,,,,
12,12,0.645,-2.42,4.04,1.45,-1.74,1.64,-3.01,-4.25,-2.43,-5.69,,,,,140,645000000.0,-2.7394581537518214,4.011877144062018,3.470108224568174,-1.5039948853416236,1.4633150414072271,-2.409692731142922,-6.013869517632071,-2.572712700511475,-3.1530058183826077,,,,,,,,,
13,13,0.695,-5.48,1.21,1.17,-1.79,2.24,-2.57,-6.04,-4.79,-6.57,,,,,140,695000000.0,-3.771125921092129,2.4615658140610734,2.557661144672889,-1.6912931508176134,1.7185123779909248,-2.50438264113121,-6.0236794055940335,-3.878059539608988,-4.580777850453349,,,,,,,,,
14,14,0.745,-4.65,0.393,2.88,-1.53,2.18,-0.7809999999999999,-3.56,-4.97,-5.26,,,,,140,745000000.0,-4.1019766486165805,1.3170041899279843,2.6855324388968707,-1.5856658902512604,1.8701481343930229,-1.4864187360496632,-5.098760808341639,-4.5208994546648835,-4.86458735626946,,,,,,,,,
15,15,0.795,-10.6,-10.8,3.76,-1.86,-0.0525,1.3,-8.98,-15.4,-4.73,,,,,140,795000000.0,-6.548151236578564,-5.387475873780189,3.1117720999523217,-1.765321112539474,1.2383971314509052,0.15945700353825254,-6.555864527775595,-10.925572074453182,-4.808350728824778,,,,,,,,,
16,16,0.845,-15.4,-8.0,13.9,-5.22,-0.147,1.55,-14.2,-11.4,4.79,,,,,140,845000000.0,-9.880423063673527,-6.8330159900143705,7.39144682197476,-4.027712158161353,0.7831759102152128,0.9808198926869932,-9.425645731902737,-11.204873951985832,-0.7977288388434225,,,,,,,,,
17,17,0.895,-12.9,-8.34,19.1,-4.6,-0.16899999999999998,-0.354,-11.6,-9.34,9.42,,,,,140,895000000.0,-11.017140744786504,-7.6668479304288,12.036214026834896,-4.402490478793915,0.4703041644297137,0.19237137602883855,-10.241947854594086,-10.10699765867997,3.471697214558477,,,,,,,,,
18,18,0.945,-16.7,0.0335,9.29,-2.63,0.305,-1.99,-15.4,1.1,-0.3670000000000001,,,,,140,945000000.0,-13.156450020190668,-3.406155471368177,10.946794621179404,-3.2417265690549764,0.4159874670501837,-1.0967070145521514,-12.178397856373087,-3.509287358525756,1.867717087147724,,,,,,,,,
19,19,0.995,-9.33,-2.76,6.95,-1.82,1.01,-1.16,-7.82,-0.305,-2.42,,,,,140,995000000.0,-11.715985098111224,-3.048630095963299,9.361271504871064,-2.3106699815660576,0.6111719875251395,-1.1340927580274314,-10.542156121862883,-1.6228802884341753,0.07611625551944723,,,,,,,,,
20,20,1.05,-7.7,1.06,-0.6559999999999999,-1.98,1.43,-1.92,-5.94,4.3,-9.74,,,,,140,1050000000.0,-10.204169738975502,-0.7752771021232165,5.387433371832311,-2.0941216909714213,0.8802278880836794,-1.5983107156158738,-8.814401912185968,1.863999128427029,-4.025497957191525,,,,,,,,,
21,21,1.1,1.79,1.81,8.36,-1.39,0.746,-0.184,3.97,6.16,-0.156,,,,,140,1100000000.0,-5.6889714052938505,0.6551868857548729,6.566646418812202,-1.633008288051918,0.8361223952549635,-0.7629087337785412,-4.014846202911123,4.393112544531555,-2.4086478947618573,,,,,,,,,
22,22,1.15,-1.31,-1.36,1.97,1.29,0.109,-0.813,0.938,3.03,-6.51,,,,,140,1150000000.0,-4.040510095273899,-0.4598395656898808,4.743162977401399,0.2812038016692797,0.5971996831495557,-0.7924965479284833,-2.1554349021039756,3.5906298351692287,-4.122377132315233,,,,,,,,,
23,23,1.2,-3.7,-7.02,3.24,1.54,0.585,-0.391,-1.48,-3.2,-5.52,,,,,140,1200000000.0,-3.912325281911296,-4.089652953466421,4.14686024937766,1.1055609783541929,0.593191023021472,-0.5553414404752182,-1.901861260135052,-0.4071053292189801,-4.7063667395780024,,,,,,,,,
24,24,1.25,-13.0,-10.3,5.53,2.67,-0.0983,-1.3,-10.8,-7.22,-3.52,,,,,140,1250000000.0,-7.3333752518008755,-7.525910623663182,4.695550011792609,2.1300768123434346,0.3659762981615664,-0.9951947130783853,-5.242425321802993,-4.4179479502651136,-4.210649416300266,,,,,,,,,
25,25,1.3,-15.6,-12.8,8.75,3.1,0.98,-0.628,-13.4,-10.9,-0.621,,,,,140,1300000000.0,-10.445341572359114,-10.444125988401154,6.303944870201611,2.765257540765944,0.5677363010644798,-0.7783009497850549,-8.304964549688416,-8.234018968513253,-2.710732639970156,,,,,,,,,
26,26,1.35,-12.4,-6.28,5.48,2.84,1.11,-0.0439,-9.63,-5.83,-3.92,,,,,140,1350000000.0,-11.18117148030921,-8.140066553449612,5.977087055692757,2.8142046331280115,0.745916923104964,-0.3445065927205721,-8.802413086229999,-6.818740616271946,-3.216018895079851,,,,,,,,,
27,27,1.4,-5.85,-1.08,4.91,0.993,1.37,0.795,-2.76,-1.66,-4.38,,,,,140,1400000000.0,-9.174254977669237,-4.233649283681415,5.553774995046046,1.6215388298816196,0.950982298242518,0.3285746966649265,-6.533953558278265,-3.7817205967973435,-3.702382534488935,,,,,,,,,
28,28,1.45,-1.69,0.362,2.12,1.56,1.06,-0.0164,1.96,-0.8759999999999999,-6.89,,,,,140,1450000000.0,-6.356811476419767,-1.6908228590183167,4.191601026398832,1.5812384025110784,0.9868040419141676,0.12480579197115745,-3.3451298779737764,-2.0710837840761163,-5.034312243358898,,,,,,,,,
29,29,1.5,-1.89,0.18,-0.208,0.467,0.805,0.466,2.22,-1.56,-8.94,,,,,140,1500000000.0,-4.675282835338328,-0.655674713858124,2.4462852135242072,0.8515488416337114,0.9270656613946406,0.3263416403075887,-1.2558533321710854,-1.770201851243764,-6.6662838559871584,,,,,,,,,
30,30,1.55,0.373,-2.31,1.21,-1.87,-0.8440000000000001,1.76,4.4,-4.07,-7.56,,,,,140,1550000000.0,-2.774859639346522,-1.571032187393144,1.9558525468443864,-0.9307320344873397,0.3451171173537113,1.17317184110897,0.8674828901675875,-3.124124060986076,-7.03971858271713,,,,,,,,,
31,31,1.6,-5.44,-3.31,6.7,-2.03,-1.06,1.65,-2.02,-4.47,-2.42,,,,,140,1600000000.0,-3.778150231410263,-2.5332233595408122,3.837849386546828,-1.650617780526524,-0.11658560410214636,1.4548236483945722,-0.2165439592071392,-3.916459208440948,-5.1093926732806185,,,,,,,,,
32,32,1.65,-15.0,-8.49,2.65,-1.55,0.202,0.517,-11.9,-9.09,-6.64,,,,,140,1650000000.0,-8.002609184069247,-5.829177329891253,3.3666311699980938,-1.5847254371820276,-0.011902622268560885,0.9008720239756705,-4.602779373787801,-6.962192360389601,-5.748949113376587,,,,,,,,,
33,33,1.7,-19.0,-10.2,8.11,-3.7,-1.47,1.26,-16.0,-9.8,-1.22,,,,,140,1700000000.0,-12.142570691867098,-8.24760446383409,5.2483190704111005,-2.9699710082933315,-0.4910139787312585,1.1130009513041743,-8.881555636236623,-8.632848006310503,-3.856550745664768,,,,,,,,,
34,34,1.75,-13.5,-9.36,6.51,-3.4,-1.54,1.39,-11.3,-7.49,-2.85,,,,,140,1750000000.0,-12.653574181629994,-8.863105718056806,5.748826289435015,-3.2515873456525513,-0.8356967791390981,1.2766181393806812,-9.78949481642911,-7.960037875850568,-3.4359685900836223,,,,,,,,,
35,35,1.8,-5.7,-6.4,4.51,-2.47,0.0476,-0.37,-3.77,-3.17,-4.55,,,,,140,1800000000.0,-10.035905070380457,-7.500240605188516,5.257385657022491,-2.7397434630689768,-0.545457240477923,0.30399730994699203,-7.529639325446763,-5.140078184277591,-3.90146103506229,,,,,,,,,
36,36,1.85,-1.49,-0.73,4.18,-1.87,0.225,-0.8540000000000001,0.418,3.58,-4.42,,,,,140,1850000000.0,-6.818803978552519,-3.7541874048931088,4.829988147509118,-2.1701681144913314,-0.29229527124155896,-0.3800060099394975,-4.545914463256637,-0.0064508934537146345,-4.118129939228666,,,,,,,,,
37,37,1.9,-0.8,1.32,3.25,-0.992,-0.198,-0.562,0.925,6.31,-5.02,,,,,140,1900000000.0,-4.553028654032686,-0.9465802125474888,4.203208973950684,-1.3986124134115387,-0.2613111026734478,-0.4875058109518101,-2.4920085367151072,3.712128687197807,-4.494971754593267,,,,,,,,,
38,38,1.95,-4.9,-0.632,0.503,0.763,0.7020000000000001,-0.7759999999999999,-3.28,4.53,-7.68,,,,,140,1950000000.0,-4.683645855464704,-0.7725193223897209,2.7353410578576107,0.016978745828179598,0.05522008214419921,-0.6579129455369701,-2.787838472475477,4.1936206551444135,-5.825819555056665,,,,,,,,,
39,39,2.0,-14.4,-5.1,-0.124,1.29,0.486,0.75,-12.6,-0.37,-8.5,,,,,140,2000000000.0,-8.341361694477168,-3.16696487836802,1.6010443058719148,0.8506515903251419,0.196768616946854,0.17371001557540344,-6.4715475833575775,1.5069557796031536,-6.943212268964532,,,,,,,,,
40,40,2.05,-8.0,-8.84,8.73,1.8,-0.0782,2.56,-5.69,-4.79,0.101,,,,,140,2050000000.0,-8.212856279053993,-6.3059215630040715,4.429091262064525,1.4723583925346662,0.10641759835151043,1.5832385674826095,-6.178136837660478,-2.20014677649131,-3.9998239559677007,,,,,,,,,
41,41,2.1,-19.8,-15.2,5.52,0.772,-0.0874,0.49,-17.2,-12.1,-3.41,,,,,140,2100000000.0,-12.574829644773686,-11.227118949462492,4.861853283927768,1.0137095078196237,0.042731722137629824,0.9374867902557776,-10.315995643601704,-8.028323773569838,-3.753369048174818,,,,,,,,,
42,42,2.15,-17.9,-1.3,5.37,1.38,-1.49,3.38,-15.4,1.06,-3.82,,,,,140,2150000000.0,-14.579486847816653,-5.734328048465545,5.0634343575067815,1.2535848757309975,-0.4609034779977204,2.3802252561916566,-12.2246465541659,-2.6779053392008603,-3.781210425011216,,,,,,,,,
43,43,2.2,-9.12,3.48,6.52,1.11,-1.69,2.46,-7.23,4.87,-3.0,,,,,140,2200000000.0,-12.524266090968547,-0.6359326950171829,5.641251981721191,1.1595543926999266,-0.8647682175802299,2.4273464511505334,-10.349542462162436,1.7656480063711264,-3.4547856175203733,,,,,,,,,
44,44,2.25,-0.0431,-0.718,5.3,2.04,-0.13,1.42,1.6,-0.271,-4.36,,,,,140,2250000000.0,-7.825738225926071,-0.6813414906000415,5.505877855107046,1.7361383119786808,-0.6233331816451533,1.8323292116849736,-5.863411991137759,0.5666459278552379,-3.8330249044794855,,,,,,,,,
45,45,2.3,-0.5770000000000001,-2.38,-0.56,0.274,0.691,-0.589,1.65,-1.04,-4.35,,,,,140,2300000000.0,-5.096954858405967,-1.6212291494077389,3.0995522656280143,0.7786169451748743,-0.1914608365907371,0.4021037392016633,-3.0427059760476096,-0.3792081211520749,-4.049040282026612,,,,,,,,,
46,46,2.35,-5.33,-1.58,1.09,-1.26,-0.259,-0.223,-3.45,-1.56,-8.53,,,,,140,2350000000.0,-5.184684540479923,-1.5984166031833245,2.302365597273893,-0.556427245903202,-0.21365330580027306,0.03286881717765966,-3.1956134490805304,-1.0743561513903117,-5.921386425036482,,,,,,,,,
47,47,2.4,-2.04,-2.29,-3.03,-1.67,-0.16899999999999998,0.905,-0.33,-1.6,-12.7,,,,,140,2400000000.0,-4.000869822281277,-1.9810777540040092,0.18702334644275087,-1.2856808655590717,-0.19898082511838985,0.5480173533448645,-2.1197968838581898,-1.3838097704354249,-8.753795591836724,,,,,,,,,
48,48,2.45,-17.9,0.467,4.23,-2.31,0.826,-0.313,-16.2,1.95,-5.31,,,,,140,2450000000.0,-9.233189316192954,-0.6265277322002474,1.790866756016745,-1.9564842960356181,0.13781419245560886,0.03943349674051122,-7.405826180307659,0.5788489182572643,-7.314823074585497,,,,,,,,,
49,49,2.5,-14.4,1.41,11.6,-1.23,2.17,1.08,-11.9,3.95,2.45,,,,,140,2500000000.0,-11.17823211114254,0.5003068324837807,5.682136875212492,-1.4807261499549498,0.8055633641916812,0.6540730844419702,-9.093041270499938,2.5634909392582794,-3.234641338885948,,,,,,,,,
50,50,2.55,-16.2,-6.26,4.59,-1.23,2.92,-1.99,-12.6,-3.26,-4.05,,,,,140,2550000000.0,-13.068674059371743,-3.2402500325330736,5.248887705907875,-1.3165312692330349,1.5003390608557323,-0.9077222685892464,-10.409633612573774,-0.8648765127847158,-3.5753348930546784,,,,,,,,,
51,51,2.6,-13.0,4.04,8.52,1.11,1.75,-0.305,-8.53,7.68,0.593,,,,,140,2600000000.0,-13.04282174884265,0.7879973308402106,6.546533736010642,0.2725492676373178,1.582374314940637,-0.5517075921327015,-9.703976234349325,4.1656071409505016,-1.8336173355975696,,,,,,,,,
52,52,2.65,-0.7879999999999999,-1.45,1.23,0.192,-0.448,-1.13,3.95,1.85,-6.7,,,,,140,2650000000.0,-8.429501078000666,-0.45031276101475015,4.437471959470832,0.21979937247712789,0.9152203960339348,-0.8932920929204964,-4.577962487695942,2.8023780799250737,-3.867010530678056,,,,,,,,,
53,53,2.7,-0.51,-3.87,-0.936,-0.513,-0.238,-0.333,3.92,-0.33,-8.94,,,,,140,2700000000.0,-5.448209405081723,-2.3424655928034426,2.305822862842441,-0.2600943945308373,0.5362875562446823,-0.5623399787926286,-1.387633749621414,0.9583049575895302,-5.9867332339809565,,,,,,,,,
54,54,2.75,3.23,-2.46,5.06,0.914,-0.933,-0.865,7.4,1.28,-2.99,,,,,140,2750000000.0,-2.181302411054695,-2.407498774346069,3.398401207001569,0.5087934921801325,0.05349925655555643,-0.7411145484673083,1.9114441863234253,1.1476911398824257,-4.73456347974788,,,,,,,,,
55,55,2.8,2.78,-3.63,3.99,2.9,0.8059999999999999,-4.58,6.45,-0.241,-4.45,,,,,140,2800000000.0,-0.3136229554775345,-3.08392304600635,3.6330876564636942,2.0747406936603667,0.30076096048779755,-3.008659025025429,3.615321359727023,0.3301499861439689,-4.6156599956387385,,,,,,,,,
56,56,2.85,-9.51,-12.1,-6.73,0.579,-0.112,-1.59,-5.59,-9.01,-15.2,,,,,140,2850000000.0,-3.775593941170861,-8.072623953606506,-0.4779352895165441,1.0952138906525777,0.16513321403451406,-2.1706886127340193,0.15943395815139905,-5.168522095743867,-9.038272617623454,,,,,,,,,
57,57,2.9,-20.8,-11.5,2.37,0.0864,-3.47,-3.62,-18.3,-8.2,-6.53,,,,,140,2900000000.0,-10.184421616553552,-9.969031155669564,0.6518367649105894,0.4345644581582859,-1.0293230762245076,-3.0267646479043857,-6.770657786522196,-6.953193807274634,-7.990203734205928,,,,,,,,,
58,58,2.95,-10.7,-17.0,13.1,6.96,4.14,-1.57,-10.5,-14.3,3.67,,,,,140,2950000000.0,-10.37851073349155,-13.85934834683383,5.590006532960754,4.70792484922711,0.669247483133607,-2.166286100310906,-8.170737811373064,-11.278357559649734,-3.1180468065871603,,,,,,,,,
59,59,3.0,-14.8,-7.7,4.52,0.527,1.36,0.7809999999999999,-13.0,-6.91,-5.09,,,,,140,3000000000.0,-12.04297792089076,-10.45130885290291,5.1655363725716175,1.9699315939229385,0.8962195501244351,-0.4253895364825668,-9.983752852102953,-8.706646608220023,-3.9420174945614885,,,,,,,,,
60,60,3.05,-2.76,-1.93,1.46,-0.0846,-0.113,0.316,-0.389,-1.33,-8.04,,,,,140,3050000000.0,-8.548406167194653,-5.736369097131507,3.695555091418983,0.6244652515198759,0.5646034697542882,0.012532833445601688,-6.3816640534229006,-4.363915539361878,-5.6543386505000806,,,,,,,,,
61,61,3.1,0.888,-0.7829999999999999,-2.74,-2.21,-0.5,-0.393,2.87,0.262,-12.3,,,,,140,3100000000.0,-4.996076436862551,-2.995612110564545,1.1425790365504946,-1.2317620531932805,0.21478897157803428,-0.2270064238636484,-2.908378649152541,-1.6405768334824755,-8.431194564691554,,,,,,,,,
62,62,3.15,0.429,-0.7709999999999999,-1.34,-3.81,0.625,0.294,2.48,1.68,-10.6,,,,,140,3150000000.0,-2.953809506376688,-1.7647082591291372,0.15774325775257406,-2.9201918202265342,0.3495788432350508,0.08074051897629425,-0.8854585447836629,0.3142913882558969,-9.3374190575568,,,,,,,,,
63,63,3.2,-4.65,2.28,13.4,0.29100000000000004,1.45,1.54,-2.03,6.23,4.78,,,,,140,3200000000.0,-3.5923394873371453,0.4732760515423138,5.410928549643677,-0.8172548130110542,0.7111625712174179,0.9426927176283909,-1.315145470058123,3.796948641511832,-3.438527134102239,,,,,,,,,
64,64,3.25,1.61,-1.54,-3.57,0.321,-0.794,-0.17600000000000002,4.75,1.57,-12.3,,,,,140,3250000000.0,-1.6339217455490533,-0.6406930839895939,1.848206296843673,-0.07183743588538605,0.21658621971679154,0.2819057332022692,0.9618483091006332,2.4859140486459728,-7.141248633953005,,,,,,,,,
65,65,3.3,-0.675,-13.5,-1.85,-3.11,-0.244,-5.55,1.49,-9.61,-10.6,,,,,140,3300000000.0,-1.27293620519155,-7.755897811735318,0.3811328222849153,-2.0614614166411127,0.06524373131269112,-3.1628717928283967,1.1601284892351449,-4.635113072458148,-8.58647048096759,,,,,,,,,
66,66,3.35,-2.66,-10.1,-8.34,0.991,5.17,-9.25,-1.31,-5.03,-16.6,,,,,140,3350000000.0,-1.7950956128925677,-9.052917145314591,-3.0785289018245967,-0.062473373777206076,1.742598567986116,-6.75840346285506,0.23278600401578986,-4.867588442517082,-11.934883240635967,,,,,,,,,
67,67,3.4,-0.079,-17.8,-22.0,-3.24,1.47,-8.14,1.02,-12.3,-30.1,,,,,140,3400000000.0,-1.1490723983922455,-13.892779842399971,-10.584651043386891,-2.1433638063580336,1.653026324456453,-7.574482107802779,0.52832406442036,-9.243149224748823,-19.52508515794924,,,,,,,,,
68,68,3.45,15.6,-50.2,52.4,-6.33,-11.5,-1.18,13.6,-42.1,47.2,,,,,140,3450000000.0,5.156106508179874,-33.98198928676704,14.401275937436699,-4.885097248729129,-2.668882662230145,-3.7974032722479154,5.435729138879855,-28.58641839141302,8.355653026289975,,,,,,,,,
69,69,3.5,-0.8,-6.12,1.31,3.86,-0.161,-1.04,-4.16,1.34,-4.09,,,,,140,3500000000.0,2.913933601689838,-18.565625091815452,9.207984353767248,0.8418693717176016,-1.8448258744783999,-2.1686662731026485,1.8332738777250437,-10.968333273406081,3.1553000702286673,,,,,,,,,
70,70,3.55,-5.38,-2.55,5.49,-0.928,3.84,1.69,-3.82,1.44,-4.15,,,,,140,3550000000.0,-0.2083130209608699,-9.703992621679026,7.733064869282732,-0.317178091649732,0.023132043162245486,0.11056237504650256,-0.2890938977887609,-3.663380515996284,0.10281750743736406,,,,,,,,,
71,71,3.6,-1.01,3.59,6.81,2.06,-1.22,2.74,-2.74,11.3,0.97,,,,,140,3600000000.0,-0.5101076239348162,-2.3482712628617506,7.366886254154159,1.2395821169716992,-0.3853445720363343,1.6637128866508215,-1.2092198860775216,5.14576300402946,0.4651653185654748,,,,,,,,,
72,72,3.65,3.52,-2.21,-2.29,1.96,0.0886,0.16399999999999998,2.16,4.83,-8.98,,,,,140,3650000000.0,1.007024088092824,-2.2717641790641885,3.5360124775634434,1.7113675436499738,-0.2296127074310779,0.7778657383585278,0.05566204536589914,4.9598690307749385,-3.48144883646481,,,,,,,,,
73,73,3.7,-6.2,-31.4,3.91,4.01,-1.5,1.4,-7.68,-25.2,-3.57,,,,,140,3700000000.0,-1.7060559524583567,-18.388757098156894,3.6843728588741436,3.2166901769481235,-0.6470450245942516,1.1453466388562348,-2.848481647651239,-12.795652048669648,-3.5184494624081246,,,,,,,,,
74,74,3.75,-0.201,-29.5,4.15,2.62,2.19,2.54,-0.503,-24.6,-4.36,,,,,140,3750000000.0,-1.1394784984220778,-24.53673758751698,3.8690865574773015,2.8259311807553114,0.2851701426430657,1.9691374349224309,-1.9679344127291905,-19.74503071262593,-3.8700871351973887,,,,,,,,,
75,75,3.8,-2.28,-11.9,-2.29,1.53,-0.0312,2.54,-1.66,-8.12,-11.3,,,,,140,3800000000.0,-1.5688271572024433,-17.54468285801422,1.4257852171813408,1.9772550990182167,0.1812151344782898,2.3063332725905408,-1.8523288066250023,-12.901218676600626,-6.9746385610090575,,,,,,,,,
76,76,3.85,-0.414,-4.54,-0.7879999999999999,-0.266,-2.25,0.657,0.0421,-1.14,-9.98,,,,,140,3850000000.0,-1.1340931334466915,-10.349039902296683,0.5475796032483213,0.5081979945679456,-0.6176497259023805,1.3321086800836928,-1.1411170753311055,-5.977231013037965,-8.230413379584364,,,,,,,,,
77,77,3.9,3.53,0.35200000000000004,-4.07,-0.713,-1.4,-1.72,2.69,3.88,-13.2,,,,,140,3900000000.0,0.621702058885482,-4.428029525271773,-1.284208084349722,-0.2915369922588941,-0.8747195814556891,-0.4707042637186285,0.29717157266810634,-0.1741464418511045,-10.306929823402118,,,,,,,,,
78,78,3.95,0.244,4.11,-0.35,-2.82,2.15,-1.54,-0.5529999999999999,8.28,-9.19,,,,,140,3950000000.0,0.4795163350148857,0.2961620186902421,-0.9136089911227628,-1.9473702695685968,0.11916295409149412,-1.10231352450861,-0.022002193391959742,4.802923142416365,-9.840226195435449,,,,,,,,,
79,79,4.0,-5.86,-7.76,15.4,1.53,-1.02,1.07,-6.55,-2.99,6.89,,,,,140,4000000000.0,-1.9069910281447635,-4.161406657895585,5.557977607950183,0.3298809683968393,-0.2551507897349149,0.18082394152815584,-2.4727613555078456,0.21512444695143085,-2.849586226105253,,,,,,,,,
80,80,4.05,4.43,-7.93,3.61,1.46,5.87,1.83,5.12,-4.13,-5.41,,,,,140,4050000000.0,0.4785655697989653,-6.246613280493692,4.785217468642835,1.0699704245968098,1.7574920116514476,1.154955699588164,0.3777341846067803,-2.342908836026901,-3.919442050699529,,,,,,,,,
81,81,4.1,8.04,-9.85,-16.3,-2.62,-2.27,-1.16,8.68,-5.99,-25.3,,,,,140,4100000000.0,3.325063239182258,-8.240409455063658,-3.5792596459077983,-1.346507797331706,0.4341118702944871,-0.21243728595102,3.4945940196726912,-4.4900003327600855,-12.853199256390456,,,,,,,,,
82,82,4.15,2.68,-22.0,-8.45,-1.13,2.46,-1.45,3.48,-17.0,-16.9,,,,,140,4150000000.0,3.082229575394544,-15.853751631015903,-5.511475719186518,-1.204721727342882,1.0997916965701735,-0.9434381704425148,3.489115099382736,-11.85480543022159,-14.544134229699845,,,,,,,,,
83,83,4.2,-0.958,-21.7,-6.96,-2.46,-1.65,-1.1,-0.682,-16.0,-15.0,,,,,140,4200000000.0,1.5612874517102897,-19.08854956645139,-6.086103368734813,-2.0267751439160757,0.1962468355838487,-1.0359157860038557,1.9231834761443285,-14.295137237537244,-14.734615425991812,,,,,,,,,
84,84,4.25,-12.1,-19.1,3.98,-2.77,2.68,-1.84,-12.4,-12.4,-3.16,,,,,140,4250000000.0,-3.5814965706949677,-19.09488543615939,-2.0928936903515543,-2.5134963047040118,1.0123750136716847,-1.5108705230174881,-3.4540657531331656,-13.17944422649714,-9.898221205909056,,,,,,,,,
85,85,4.3,-1.53,-10.7,9.68,-2.24,-1.17,-1.85,-1.52,-3.36,3.21,,,,,140,4300000000.0,-2.8092118445580163,-14.449897157125902,2.5773975270482885,-2.334389757632115,0.2952757115214242,-1.7111868000786097,-2.7279734024156124,-7.398605250495831,-4.421017549702196,,,,,,,,,
86,86,4.35,-4.23,-1.25,4.48,-0.173,0.993,-0.253,-4.96,6.55,-1.42,,,,,140,4350000000.0,-3.344066743477136,-7.146239870495232,3.332157377267285,-0.9189444135223854,0.5245385954013461,-0.8498681825343986,-3.565927049128103,0.8131264192557,-3.167057593992765,,,,,,,,,
87,87,4.4,-6.14,1.88,4.51,1.32,0.609,1.61,-6.43,9.55,-1.58,,,,,140,4400000000.0,-4.396594174880685,-2.1519159161905472,3.799406052695984,0.5472897529812768,0.5522914951543576,0.6031214218914767,-4.6411652167062645,5.9566415431265245,-2.503913658631309,,,,,,,,,
88,88,4.45,4.42,-2.78,1.92,1.63,-0.608,1.31,5.08,4.4,-4.73,,,,,140,4450000000.0,-1.0775922915555722,-2.4994421606579826,3.0538481817429335,1.2563322387313556,0.17103519474957918,1.020658891485139,-0.991618365741504,5.040225781789784,-3.434072535677648,,,,,,,,,
89,89,4.5,-4.41,-6.63,-0.6920000000000001,1.84,-1.33,1.14,-3.89,-0.0945,-7.99,,,,,140,4500000000.0,-2.3320752175925885,-4.7849281260324075,1.5678752561256366,1.638563095907691,-0.32218496029070004,1.091151029840503,-2.07973689847597,2.0173436393881206,-5.3377435865978935,,,,,,,,,
90,90,4.55,-8.87,-57.4,-1.18,1.99,2.67,5.37,-8.1,-51.8,-9.21,,,,,140,4550000000.0,-4.793273234403617,-33.89746284119443,0.4777968578063332,1.8687111938013288,0.6610071264915602,3.618572179581992,-4.339880957237028,-29.66565010091073,-6.9557462735614335,,,,,,,,,
91,91,4.6,-4.66,-18.1,-5.86,2.55,-1.97,2.58,-2.31,-13.9,-14.4,,,,,140,4600000000.0,-4.743102543792215,-25.15654233016183,-2.0363986864220904,2.3148718155453434,-0.2035067266076479,3.0051105749432945,-3.5778173818174817,-20.384199571260183,-10.066289716462391,,,,,,,,,
92,92,4.65,-1.05,-9.7,-2.52,-0.525,-2.03,1.39,1.22,-6.28,-11.4,,,,,140,4650000000.0,-3.352836177072615,-16.604256803609744,-2.2282426696691373,0.455103914748693,-0.803668041123411,2.0511005596135203,-1.776607427165103,-12.08086766751508,-10.623573623707852,,,,,,,,,
93,93,4.7,2.53,-4.02,-3.55,-0.768,-2.22,-1.11,3.78,-0.332,-12.5,,,,,140,4700000000.0,-1.1382458602460934,-9.641240505395306,-2.7525820063714344,-0.3458792208453151,-1.2690558381104236,0.1839085375573468,0.30946957497738903,-5.164151210138106,-11.407628852672708,,,,,,,,,
94,94,4.75,4.49,1.2,-1.72,-2.22,2.05,-2.85,5.05,5.52,-10.5,,,,,140,4750000000.0,0.98050400145085,-3.6426554695364337,-2.342958124272808,-1.5731986127554536,-0.1784583821251624,-1.6081539123518136,2.0891727618636797,1.1257523267948253,-11.028380747397401,,,,,,,,,
95,95,4.8,-10.0,5.53,8.35,0.833,-1.66,-1.86,4.97,6.14,-10.2,,,,,140,4800000000.0,-3.1531004746561075,1.4326820647438507,1.898924136483369,0.0025665200222433353,-0.6652731827827436,-1.7569138209206872,3.170700856238032,4.077707308612666,-10.682245980628222,,,,,,,,,
96,96,4.85,-4.22,-8.35,2.74,0.561,3.94,2.77,-4.17,-3.92,-6.01,,,,,140,4850000000.0,-3.55473411421131,-3.980190405441277,2.2325778043563997,0.3682719875426926,0.8479581687814872,0.9170337924786705,0.4148344981175214,-0.6306506196942347,-8.729971828575248,,,,,,,,,
97,97,4.9,9.62,-3.05,9.86,0.474,2.05,0.136,12.1,1.26,1.39,,,,,140,4900000000.0,1.4048869947809313,-3.4655051620601918,5.2583657968271575,0.4375108796702399,1.242933063416355,0.4556944524701814,4.8017119697597845,0.4824008288737667,-4.501393016101715,,,,,,,,,
98,98,4.95,6.0,-29.8,-5.09,-2.19,-0.8079999999999999,-1.4,7.62,-25.4,-13.7,,,,,140,4950000000.0,3.1347146679078763,-18.03668835016372,1.1531829398037452,-1.2831866932614844,0.5690238093171404,-0.6404231026298164,5.859761456591268,-14.754916502857034,-8.344984135100423,,,,,,,,,
99,99,5.0,1.98,-12.9,-1.96,0.16,1.08,-2.78,4.0,-7.97,-10.2,,,,,140,5000000000.0,2.7000229961578883,-15.194498472669478,-0.08181256135388404,-0.3380763230769418,0.7369237831706945,-1.9042237209607105,5.161564638677688,-10.760544758615843,-9.120093010949098,,,,,,,,,
100,100,5.05,-3.4,-25.2,-6.26,-3.35,-0.149,-1.36,-2.26,-19.7,-14.3,,,,,140,5050000000.0,0.4036727783397258,-20.73065976535652,-2.532691301455152,-2.310517055434656,0.44582104509683707,-1.5827628438012469,2.375340206699365,-16.02332276824157,-11.284490911755045,,,,,,,,,
101,101,5.1,-10.3,-16.2,5.58,-1.92,2.7,-1.94,-9.32,-9.53,-1.55,,,,,140,5100000000.0,-3.625718813330904,-18.223793216144163,0.6856023986955084,-2.054776227153134,1.1865141942290436,-1.7937749452134624,-2.015356823138104,-12.200616144607062,-7.216983316204827,,,,,,,,,
102,102,5.15,-6.22,-10.6,10.0,-1.72,-0.579,-2.0,-5.51,-3.14,3.68,,,,,140,5150000000.0,-4.602334409191878,-14.005459586273933,4.380611402366913,-1.8355388553042615,0.6063897835079389,-1.915587512716869,-3.3273255689067676,-6.8665095922231245,-2.663734167023016,,,,,,,,,
103,103,5.2,-5.94,-1.52,5.21,-0.0638,0.392,0.00496,-5.54,6.25,-0.763,,,,,140,5200000000.0,-5.105897880367231,-7.0971089424736284,4.709628758929067,-0.6752670916428836,0.5359441572734569,-0.7811626787194286,-4.158013942815502,0.8553560572761789,-1.8695220559682897,,,,,,,,,
104,104,5.25,-5.13,1.23,2.43,1.44,-0.00244,1.64,-4.46,8.82,-3.75,,,,,140,5250000000.0,-5.114971152654005,-2.489622284084125,3.8053031220866975,0.7099735930099811,0.35903830534188697,0.6489644258701379,-4.271386402529252,5.544248912716191,-2.655270211930893,,,,,,,,,
105,105,5.3,3.36,2.53,4.86,1.65,0.701,2.2,4.93,9.54,-1.81,,,,,140,5300000000.0,-1.9245731296464288,0.2877933446833913,4.223700008303463,1.325575641802562,0.4714023482339336,1.5651267785867875,-0.8169763952582471,7.896601309010285,-2.3020783239942966,,,,,,,,,
106,106,5.35,-0.84,-5.99,-0.721,1.61,-0.8340000000000001,1.33,1.36,0.227,-7.98,,,,,140,5350000000.0,-1.5162861829646066,-3.1857829179491937,2.2621441577437,1.5118387399219249,0.042464553706108084,1.426242628983919,0.00031014245502503085,3.3814038403755022,-4.674569060069263,,,,,,,,,
107,107,5.4,-16.8,-61.4,0.599,1.41,2.68,5.99,-14.3,-56.2,-7.32,,,,,140,5400000000.0,-7.269831255540309,-35.39639008103507,1.6023770976626643,1.4451468272115922,0.9091235381380912,4.1219527866115335,-5.3683521310981615,-31.694970580761808,-5.779949011084819,,,,,,,,,
108,108,5.45,-6.74,-15.9,-6.73,1.69,-1.71,2.75,-2.54,-12.3,-14.8,,,,,140,5450000000.0,-7.070376495057513,-24.608809498439502,-1.7030657002713359,1.6054956777854834,0.04851447050916746,3.3115706940787417,-4.306524294249983,-20.276890597303247,-9.548931574051167,,,,,,,,,
109,109,5.5,-1.5,-10.3,-2.15,-0.84,-2.25,0.895,2.44,-7.21,-10.6,,,,,140,5500000000.0,-4.973411436757061,-16.69157816555686,-1.8803639738278808,0.003995804588776908,-0.706746721939885,1.8841559532883465,-1.7737253605594376,-12.5842363400807,-9.98811533573267,,,,,,,,,
110,110,5.55,2.76,-4.71,-2.91,-0.845,-1.56,-1.53,5.75,-1.17,-11.6,,,,,140,5550000000.0,-2.062173110455206,-10.06203102939979,-2.2888192349413603,-0.551992392873652,-0.9871143477697972,-0.13251025379541548,1.0508525373106088,-5.864521829035724,-10.661633313612358,,,,,,,,,
111,111,5.6,5.91,0.383,-3.68,-1.67,2.86,-3.15,8.43,4.68,-12.1,,,,,140,5600000000.0,0.938946858043963,-4.282673358683363,-2.8406988002472997,-1.2841502976219694,0.27699607130047266,-1.9148746003477872,3.821152713270148,0.3431799230185693,-11.262647685917704,,,,,,,,,
112,112,5.65,-11.8,6.83,6.41,1.96,-3.57,-2.41,-9.22,11.9,-1.58,,,,,140,5650000000.0,-3.8566225015012834,1.866098576941444,0.8290409141670025,0.8403704914671264,-0.9870754962343912,-2.207334246851321,-1.0747932052230205,7.1468351482730075,-7.216802556772993,,,,,,,,,
113,113,5.7,-6.6,-8.83,2.8,0.573,5.27,3.49,-4.91,-4.33,-5.74,,,,,140,5700000000.0,-4.889365362096371,-4.052177665885221,1.6109177143166094,0.6652756039492895,1.0689160351469298,1.157954778840068,-2.5146171483030217,0.3902679469019219,-6.599728015041943,,,,,,,,,
114,114,5.75,12.0,-4.34,2.69,1.4,1.96,0.962,16.6,-0.53,-5.08,,,,,140,5750000000.0,1.4686266071377243,-4.211433209867037,2.038988228739801,1.1464300023129406,1.3617143513259025,1.0422086429519015,4.661445721277972,-0.15150615669086331,-5.9647173523954224,,,,,,,,,
115,115,5.8,5.01,-27.3,-6.24,-2.75,-1.16,-3.12,9.01,-23.2,-14.2,,,,,140,5800000000.0,2.8017746896368854,-16.986606493041485,-1.2452751783192235,-1.4052540093289605,0.5331126665312748,-1.4163156516218125,6.293992147580237,-13.72046499602912,-9.405788291224491,,,,,,,,,
116,116,5.85,0.532,-15.9,-1.84,-0.111,-0.324,-2.55,4.13,-10.6,-9.31,,,,,140,5850000000.0,1.9473193027151192,-16.385374216588293,-1.4812017286142,-0.5576762889547906,0.2514768780193708,-2.085957832339576,5.481580240572816,-11.883405498742519,-9.365763815681834,,,,,,,,,
117,117,5.9,-5.01,-23.0,-6.51,-2.36,-0.0599,-2.4,-2.41,-17.1,-13.9,,,,,140,5900000000.0,-0.6717596715938599,-20.045323928792648,-3.4761193316093553,-1.737977314987566,0.14916258949367095,-2.27145563426088,2.5189012084439786,-14.954485083525386,-11.260371211687376,,,,,,,,,
118,118,5.95,-9.06,-15.6,7.69,-1.54,1.09,-1.73,-6.79,-8.64,1.22,,,,,140,5950000000.0,-3.8295081226766654,-17.585674483697638,0.9534652152235674,-1.6083264175351004,0.4583092226283509,-1.9516298073584042,-0.9758723563798206,-11.237062970056407,-6.045511490031855,,,,,,,,,
119,119,6.0,-7.24,-5.88,4.46,-0.972,0.297,-1.5,-5.72,1.82,-1.42,,,,,140,6000000000.0,-5.113385760885301,-11.108788119791837,2.3445028643544896,-1.1916106193440847,0.40530516098721386,-1.6848620935501042,-2.756925870702604,-3.5501943158653777,-4.112764993891228,,,,,,,,,
120,120,6.05,-8.39,1.21,5.58,0.0315,-0.45,0.735,-7.08,9.14,-0.0326,,,,,140,6050000000.0,-6.346865453862161,-4.292658734752022,3.628020197132087,-0.3906230971019625,0.12426329891509065,-0.2555031988844516,-4.379906353879234,3.9206939974664343,-2.407888778908231,,,,,,,,,
121,121,6.1,0.294,2.52,3.8,1.25,-0.147,2.62,2.2,10.1,-2.11,,,,,140,6100000000.0,-3.846915436932509,-0.5231350878778329,3.6962443347581013,0.6837839174011741,0.03512979762768865,1.4429927183191886,-1.9096595942970391,7.558534794126074,-2.283417422102246,,,,,,,,,
122,122,6.15,3.89,-4.52,1.35,2.23,0.0672,1.02,6.46,2.33,-5.17,,,,,140,6150000000.0,-0.9343579886795044,-2.7346471210632037,2.765492371535684,1.696365922682538,0.04566763751813857,1.1931402868072658,1.2325013004141216,4.480425977963296,-3.4895613201274163,,,,,,,,,
123,123,6.2,-12.2,-20.1,1.17,1.99,-1.12,2.67,-9.18,-14.1,-5.97,,,,,140,6200000000.0,-5.175302434365925,-12.343099926834865,2.1325626761294743,1.888660254738851,-0.3373551995395557,2.0654886199723417,-2.6765890088710007,-6.4581209768626255,-4.5259999340539645,,,,,,,,,
124,124,6.25,-5.29,-31.3,1.11,2.19,2.14,5.16,-0.909,-26.9,-6.45,,,,,140,6250000000.0,-5.21848025324896,-22.83217375301309,1.7269134431903477,2.0860008859338706,0.4766707051743187,3.893347791462124,-2.0129958199086984,-18.492529931811816,-5.329933507865647,,,,,,,,,
125,125,6.3,-7.46,-14.9,-3.03,-0.0834,-0.943,1.97,-2.52,-11.9,-10.9,,,,,140,6300000000.0,-6.062299099352241,-18.443209147719678,-0.1601477119075594,0.6653092370629692,0.01018584398362471,2.7572689118253497,-2.203336731984811,-14.611418649005715,-7.657357335906418,,,,,,,,,
126,126,6.35,1.52,-7.85,-2.49,-1.18,-1.75,-0.21600000000000005,6.03,-4.88,-10.7,,,,,140,6350000000.0,-3.2079469299727044,-12.58186273296302,-1.0843969855008049,-0.543142073524534,-0.5681877431813607,1.0010248847118988,0.8876455190973456,-8.882401643787297,-8.92871003657643,,,,,,,,,
127,127,6.4,6.1,-2.29,-4.86,-1.08,0.133,-2.51,9.89,1.42,-13.1,,,,,140,6400000000.0,0.2960243534771449,-6.887254841215833,-2.5821736773876225,-0.8947182332922939,-0.33778680430065944,-1.0728596636816456,4.267334602192765,-2.817239226166089,-10.6716625167621,,,,,,,,,
128,128,6.45,4.34,2.8,8.75,-1.0,1.99,-3.88,8.09,7.67,1.11,,,,,140,6450000000.0,1.8183767393297143,-1.5271836059612935,1.9132843824284071,-0.9636648846285164,0.4270928896681869,-2.7309752888834513,5.702450333715486,3.3567396329474244,-5.748754679772517,,,,,,,,,
129,129,6.5,-17.3,-4.23,2.78,0.5710000000000001,-4.36,0.962,-15.3,0.887,-5.34,,,,,140,6500000000.0,-5.378725005859813,-3.0226834992612237,2.257109291125249,0.04135247636791295,-1.145882017143044,-0.5496166579383956,-2.1823480486726465,1.902770700664908,-5.577958677088176,,,,,,,,,
130,130,6.55,-0.639,-4.83,0.915,-0.35200000000000004,5.27,3.61,2.99,-0.136,-6.89,,,,,140,6550000000.0,-3.5944582269339405,-4.022692788387982,1.7246963485386002,-0.21624517569435772,0.9622912185038082,1.9073766141896835,-0.2405307566838053,0.7025189578478774,-6.1261884228227625,,,,,,,,,
131,131,6.6,4.07,-4.99,-9.93,0.235,-2.6,-0.163,9.23,-0.999,-17.3,,,,,140,6600000000.0,-0.7091772289776483,-4.557915041162284,-2.898706142300148,0.07926509856834257,-0.20823012301059296,0.684451050467815,3.314922065088169,-0.29918815025224443,-10.795108507861677,,,,,,,,,
132,132,6.65,3.81,-35.3,-9.38,-1.17,2.44,-3.09,7.71,-30.7,-17.1,,,,,140,6650000000.0,0.9920644429007691,-21.567869328751154,-5.469826745864177,-0.7388503730095977,0.661942986388109,-1.5450334483680237,4.964934460170371,-18.19655550855923,-13.42957554798538,,,,,,,,,
133,133,6.7,-1.77,-19.0,-4.59,-0.334,-1.32,-2.6,1.79,-13.4,-11.8,,,,,140,6700000000.0,-0.04771313598993388,-20.147037233561374,-5.120800719385544,-0.4737230012349461,0.010702943270627485,-2.1681787436890616,3.772991721518162,-15.372758529439228,-12.748665763307734,,,,,,,,,
134,134,6.75,-11.1,-21.9,-1.93,-2.7,1.24,-1.85,-8.43,-15.5,-8.86,,,,,140,6750000000.0,-4.208340373418986,-21.11697179773,-3.8550143437630866,-1.9316615607718957,0.4146335602210615,-1.980237628436828,-0.808289480899516,-15.447667294900546,-11.123806385330546,,,,,,,,,
135,135,6.8,-9.21,-10.9,5.38,-1.94,0.156,-2.03,-6.54,-3.6,-0.612,,,,,140,6800000000.0,-6.091212304921536,-15.46380174529281,-0.19149652621572555,-1.9371222537796748,0.3296500236041657,-2.009631141103644,-2.9601041691868057,-8.472786119054334,-6.731501483102836,,,,,,,,,
136,136,6.85,-6.19,-3.9,3.07,-0.733,0.299,-1.05,-4.2,4.03,-2.34,,,,,140,6850000000.0,-6.128400897998266,-9.06541521422541,1.102334733623758,-1.148569770841657,0.3195788330790175,-1.4427982745369126,-3.425589238457101,-1.1122276109344291,-4.896534861639389,,,,,,,,,
137,137,6.9,-7.98,2.35,5.14,0.695,-0.234,1.3,-6.09,10.4,-0.2,,,,,140,6900000000.0,-6.825434332330691,-2.749132684118593,2.7040710625136843,0.05874243226720744,0.13768021422348967,0.17731182557973368,-4.425869793399894,5.6651754296687695,-2.934111629653165,,,,,,,,,
138,138,6.95,2.08,2.52,3.43,1.29,0.16899999999999998,2.35,4.77,10.1,-2.25,,,,,140,6950000000.0,-3.472988679784522,0.1663399688259033,2.9920461223640773,0.8650651817052484,0.14797147794022747,1.4606705016989785,-0.9735307895846064,8.2760165391937,-2.6482590605344494,,,,,,,,,
139,139,7.0,-0.373,-3.91,-1.35,2.09,-0.069,1.34,2.9,2.85,-7.66,,,,,140,7000000000.0,-2.30599970571748,-2.0891465996360865,1.2695622547717498,1.667247274102135,0.07667754529216643,1.389393131530942,0.4806809472907794,5.081647551816781,-4.742389488360027,,,,,,,,,
140,140,7.05,-21.9,-39.2,-1.34,2.02,-0.524,5.0,-18.2,-33.4,-8.38,,,,,140,7050000000.0,-9.682149810825642,-22.62301570456137,0.2343524040556413,1.8982570552435536,-0.1206970793501108,3.5220985554616187,-6.532472530169238,-17.573016942564212,-6.26234660916784,,,,,,,,,
141,141,7.1,-8.77,-19.7,-5.79,2.34,-1.21,2.63,-3.54,-15.8,-13.1,,,,,140,7100000000.0,-9.33877170648755,-21.005677393271405,-2.1555000787505603,2.1875444772449075,-0.478627500130517,2.995155785685172,-5.409030156693249,-16.529218128887788,-9.119425502195442,,,,,,,,,
142,142,7.15,-3.21,-10.6,-2.06,-0.257,-0.895,1.99,2.14,-7.71,-9.75,,,,,140,7150000000.0,-7.031599103304423,-15.24809475267162,-2.1176153032267693,0.5866675070938971,-0.6154419428428543,2.40143255472152,-2.574952222504177,-11.337225796513648,-9.382907852743351,,,,,,,,,
143,143,7.2,1.92,-5.42,-2.45,-0.926,-1.78,-0.898,6.82,-2.5,-10.4,,,,,140,7200000000.0,-3.6617747364584186,-9.810095165070953,-2.249471884405936,-0.4039442806341021,-0.9981001756281472,0.4525308975329307,0.9521269320874142,-6.134632085498655,-9.807894480184672,,,,,,,,,
144,144,7.25,9.66,-0.948,-5.5,-1.2,1.66,-3.5,13.9,2.77,-13.5,,,,,140,7250000000.0,1.3531997166540382,-4.906594398684602,-3.5389520169831616,-0.9252632243723572,-0.1246839283770812,-1.8821414693305143,5.813053303254473,-0.8923553965899655,-11.350622015501793,,,,,,,,,
145,145,7.3,-2.82,5.43,10.7,1.52,-2.57,-4.19,1.12,10.2,3.14,,,,,140,7300000000.0,-0.21779891421229225,0.8127639301329141,2.1096210258363057,0.6760844250178626,-0.9281821466591348,-3.2453423680605558,4.051174182849645,5.637863335299042,-5.295789175799048,,,,,,,,,
146,146,7.35,-10.1,-10.8,2.79,0.159,2.79,3.08,-8.21,-6.1,-5.64,,,,,140,7350000000.0,-3.9379480269896927,-5.612714108043451,2.379526434870817,0.33745750922556805,0.2935628930384202,0.4908970801263672,-0.5519499407541799,-1.2723746600811126,-5.439615864289582,,,,,,,,,
147,147,7.4,6.59,-4.57,9.29,1.69,3.38,2.73,11.2,-0.521,1.62,,,,,140,7400000000.0,0.02529206777953874,-5.035768306975825,5.120901990736723,1.2232070781220388,1.3077249904122132,1.813485541455154,3.8599997158339994,-0.8300303059501619,-2.4897912367144346,,,,,,,,,
148,148,7.45,4.36,-15.1,-10.2,-1.16,-1.76,-0.972,9.24,-11.5,-17.9,,,,,140,7450000000.0,1.6570904497819563,-10.604425475303668,-0.9568791518080078,-0.33750139319512873,0.29971148565124217,0.1681609893633058,5.879774298031847,-7.111585004810972,-8.928868524188891,,,,,,,,,
149,149,7.5,3.96,-23.1,-4.85,0.115,0.987,-3.34,8.3,-18.3,-12.3,,,,,140,7500000000.0,2.5240194524285995,-17.518373033204973,-2.5012749195012507,-0.04116844870503844,0.5255453191642915,-1.904031874480097,6.7883822331669785,-13.69835497779232,-10.337478765485594,,,,,,,,,
150,150,7.55,-3.27,-22.3,-7.67,-1.47,-0.907,-2.28,0.16699999999999998,-16.8,-15.0,,,,,140,7550000000.0,0.3428641374081902,-20.16410266655145,-4.5517012389850935,-0.976877981690072,0.05483003595306119,-2.126107893474693,4.30256449993117,-15.524334678734288,-12.28568957741437,,,,,,,,,
151,151,7.6,-14.4,-16.3,7.6,-1.83,1.92,-1.91,-11.6,-9.69,0.87,,,,,140,7600000000.0,-5.207078524980544,-18.02604910195529,0.2688622646925882,-1.5355683527002768,0.6676999903640508,-1.9984577325614783,-1.6676206318809008,-12.089583118735714,-6.788651517263527,,,,,,,,,
152,152,7.65,-8.9,-6.34,5.8,-1.23,-0.35,-1.96,-6.54,1.03,-0.217,,,,,140,7650000000.0,-6.597276566909219,-11.560021712121149,2.4630572424131314,-1.3354585519553137,0.3332973517738453,-1.975741625143098,-3.4968228297206703,-4.365908059674425,-4.042720312156361,,,,,,,,,
153,153,7.7,-6.87,0.271,4.43,0.000305,-0.6990000000000001,0.273,-4.99,7.98,-1.34,,,,,140,7700000000.0,-6.699943104853276,-5.013779200398287,3.2433407213663528,-0.4606971686326106,-0.005901787316315521,-0.6474598044577278,-4.0573954694916345,2.902294112165814,-2.9134023736650034,,,,,,,,,
154,154,7.75,-2.37,1.49,2.78,0.98,-0.379,2.3,-0.189,8.92,-3.24,,,,,140,7750000000.0,-5.0699384465790684,-1.4151621921107909,3.0595340688898083,0.4827828829286612,-0.12849688547638516,1.0935393236901385,-2.605111682913769,6.444998567681882,-3.049869536676641,,,,,,,,,
155,155,7.8,3.11,-1.55,3.15,1.94,0.38,1.5,6.08,5.17,-3.34,,,,,140,7800000000.0,-1.99060531770278,-1.4897694998886524,3.095421819946772,1.4370815006179651,0.038588406092426884,1.333626633264258,0.6554770691946503,5.694389803620951,-3.171099041030645,,,,,,,,,
156,156,7.85,-4.99,-6.56,-0.56,1.61,-0.254,2.14,-1.41,-0.759,-7.61,,,,,140,7850000000.0,-3.1197256510326548,-4.295187229914339,1.6453208983543566,1.5503219300445077,-0.0575522436357884,1.809933564295345,-0.11995006355363325,1.8951924087034748,-5.025871312616875,,,,,,,,,
157,157,7.9,-13.2,-62.3,1.08,1.74,2.24,6.58,-8.69,-58.0,-6.47,,,,,140,7900000000.0,-6.914439115491984,-36.38992727468291,1.4210588751701816,1.6745378206192068,0.6973927770325826,4.627506002343139,-3.3373418859325703,-33.3659131147614,-5.629293060704299,,,,,,,,,
158,158,7.95,-7.14,-16.7,-4.24,0.284,-0.302,2.39,-1.78,-13.9,-12.0,,,,,140,7950000000.0,-6.999351331708839,-25.49526093532563,-0.8246754775718309,0.7639060118545732,0.3690056471071257,3.3058608780241032,-2.7526802535046238,-21.906067970303624,-8.291260591680746,,,,,,,,,
159,159,8.0,0.213,-8.2,-2.58,-1.07,-1.71,0.464,5.58,-5.78,-10.4,,,,,140,8000000000.0,-4.2842657817106415,-15.925590926242313,-1.5210103250258538,-0.4370776527734649,-0.3141278867903312,1.6272366583612832,0.3755977112852911,-12.412434940438926,-9.172386481517533,,,,,,,,,
160,160,8.05,4.58,-3.84,-3.37,-1.17,-0.7440000000000001,-1.88,9.27,-0.8170000000000001,-11.4,,,,,140,8050000000.0,-0.9473180065929938,-9.238492246014076,-2.2545019974135427,-0.9170519175687916,-0.4553781344237354,-0.44441027153492296,3.714759125144957,-5.5860463844537565,-10.103183314397755,,,,,,,,,
161,161,8.1,4.95,1.61,6.27,-0.459,1.4,-3.97,9.39,5.74,-1.44,,,,,140,8100000000.0,1.2727239256749172,-3.2358947558311506,1.1271564747747038,-0.6170840557646089,0.15427436166497682,-2.5268979727387686,5.845373965763506,1.0817493533093652,-6.4833161999242375,,,,,,,,,
162,162,8.15,-14.7,2.55,-4.7,0.531,-3.22,-0.361,-11.6,7.04,-12.9,,,,,140,8150000000.0,-4.740198825197374,-0.03449162807829875,-1.1844685875172611,0.13477027592172508,-0.9544671896053164,-1.2475500627160478,-0.7040169861677992,4.589451641157392,-9.164494769216985,,,,,,,,,
163,163,8.2,-4.09,-5.52,1.65,0.468,3.76,3.18,-0.0958,-1.3,-6.25,,,,,140,8200000000.0,-4.495431905290761,-3.069687476594797,-0.0600387197244836,0.3529948931342813,0.5946438339993141,1.367705632473048,-0.4756784728496207,1.1222522590140431,-7.946687935723871,,,,,,,,,
164,164,8.25,3.24,-7.23,-6.17,0.157,-0.486,0.39,8.46,-4.01,-13.8,,,,,140,8250000000.0,-1.5834329675801873,-5.371637003461525,-2.483852174010209,0.2246422673991285,0.2395586856431892,0.7901965843125178,2.8789788033107877,-1.899173823298113,-10.392464726270816,,,,,,,,,
165,165,8.3,4.57,-35.1,-4.75,-1.64,1.26,-3.54,9.44,-31.4,-12.4,,,,,140,8300000000.0,0.7330234322747722,-21.820686665758238,-3.382829969365429,-0.9964698331204668,0.5748620855525861,-1.7675545077106665,5.3421354692270455,-19.266706834910547,-11.23130298259277,,,,,,,,,
166,166,8.35,-3.53,-19.4,-4.42,-0.498,-1.72,-2.72,0.735,-14.6,-11.9,,,,,140,8350000000.0,-0.8717892995277139,-20.481292246189252,-3.79427395613522,-0.6700331941851994,-0.17919899132408812,-2.3301429595745127,3.6125118645852186,-16.519353965936382,-11.510714474896574,,,,,,,,,
167,167,8.4,-8.96,-21.6,-3.87,-2.45,-0.121,-2.8,-5.76,-15.8,-11.1,,,,,140,8400000000.0,-3.916591624487968,-21.100286525204773,-3.8243143305114833,-1.8356932878167043,-0.1600755789436502,-2.607677067661174,0.0938573100869271,-16.095860721219836,-11.339099677412644,,,,,,,,,
168,168,8.45,-12.2,-11.1,5.94,-1.52,1.04,-2.51,-9.53,-4.24,-0.539,,,,,140,8450000000.0,-7.0348759168566755,-15.567011387325945,0.04917605734729147,-1.6289528707436705,0.234253234557472,-2.5499813838267213,-3.519157864361397,-9.116155886473967,-6.826332881859146,,,,,,,,,
169,169,8.5,-6.97,-4.03,2.38,-0.333,0.6559999999999999,-0.5920000000000001,-4.74,3.4,-3.62,,,,,140,8500000000.0,-7.010453335931464,-9.183448337584515,0.9738108266133882,-0.780262606269668,0.3728336014647488,-1.3934451966727095,-3.9774897280808728,-1.7477264837874724,-5.486582927736664,,,,,,,,,
170,170,8.55,-6.49,1.42,4.35,0.369,-0.797,1.35,-4.23,8.88,-1.61,,,,,140,8550000000.0,-6.814528887943119,-3.316436535983904,2.313140494012468,-0.027636488303062312,-0.011558111227371215,0.2270470682547621,-4.072287843740618,4.508959136279269,-3.8667724506542416,,,,,,,,,
171,171,8.6,0.888,3.94,4.73,1.15,0.0684,2.25,3.68,11.0,-1.5,,,,,140,8600000000.0,-3.914916271651256,0.6986345943483094,3.271905417732147,0.7435710365615943,0.014715058458632503,1.421960512741416,-1.1619023577545735,8.330322214821113,-2.8778286055073385,,,,,,,,,
172,172,8.65,1.64,-2.96,-0.95,1.93,0.0641,1.07,5.02,3.3,-7.7,,,,,140,8650000000.0,-1.8237712110300517,-1.325730684764343,1.597081220305076,1.5205365360871663,0.03094229055281156,1.2140652724084622,1.158924609716152,5.368903827434104,-4.892748346052173,,,,,,,,,
173,173,8.7,-24.9,-27.5,4.53,2.17,-0.902,3.89,-21.2,-22.0,-2.78,,,,,140,8700000000.0,-10.510804249249961,-15.808259641685295,2.760566239640699,1.9458555411010503,-0.2756101038099044,2.7946806479529243,-7.235125332456759,-10.743538041614496,-4.009947170599526,,,,,,,,,
174,174,8.75,-7.52,-23.6,-1.66,1.8,0.473,3.02,-2.05,-20.1,-9.02,,,,,140,8750000000.0,-9.384917686204393,-20.11952080927265,1.0069335698074509,1.8503380100046936,-0.029626813569942567,2.9277717822289118,-5.288511142735619,-16.25181329083165,-6.103372485242421,,,,,,,,,
175,175,8.8,-3.62,-10.7,-2.32,-0.455,-1.2,1.57,1.92,-8.14,-10.0,,,,,140,8800000000.0,-7.214717664239327,-14.907589809406051,-0.31285647723381604,0.3406242023582726,-0.4141958453287081,2.125766125550317,-2.5822718592233778,-11.476279882792108,-7.7315584971610365,,,,,,,,,
176,176,8.85,1.59,-5.72,-1.86,-0.974,-0.87,-0.752,6.74,-3.05,-9.77,,,,,140,8850000000.0,-3.9001867027349437,-9.823988930426081,-0.9266062379966422,-0.5202934833387445,-0.5639670116182899,0.4259334953498426,0.9175212808927528,-6.515615531447822,-8.583311114980258,,,,,,,,,
177,177,8.9,8.48,-2.41,-5.22,-1.25,1.32,-2.78,13.2,0.999,-13.1,,,,,140,8900000000.0,0.7603273565914148,-5.721742299012332,-2.6297896869663884,-0.998161801427392,0.055079433205411865,-1.4677403224744603,5.528643526817532,-2.0916602685857106,-10.470586779905755,,,,,,,,,
178,178,8.95,-4.71,6.06,11.2,1.19,-2.39,-3.06,-0.171,10.5,3.73,,,,,140,8950000000.0,-1.298974274888649,0.7972333073251754,2.8564692097226407,0.434815982411136,-0.7483410852550829,-2.4082527770941224,3.388867502196037,5.321219523444191,-4.536943725862752,,,,,,,,,
179,179,9.0,-10.5,-6.01,3.29,-0.57,2.32,3.08,-7.25,-1.58,-4.82,,,,,140,9000000000.0,-4.762695167579022,-2.9692885243752425,3.0284502761381287,-0.22321530704811052,0.2598748412505696,0.8335364094039681,-0.6052057215023354,1.258378724645067,-4.655217423794435,,,,,,,,,
180,180,9.05,6.16,-1.29,21.0,1.68,1.68,1.78,11.2,2.45,13.4,,,,,140,9050000000.0,-0.6508528514929086,-2.0401185467591865,10.15773988583848,1.023157381023498,0.726509006477893,1.392591450767624,3.826737368395305,1.9599022280501741,2.8890632956565225,,,,,,,,,
181,181,9.1,2.51,-19.6,-9.69,-1.2,0.0904,-0.7959999999999999,11.4,2.1,13.4,,,,,140,9100000000.0,0.5390484002255038,-11.756206285005034,2.2841683281949905,-0.4327382113078713,0.5174920736996447,0.09983900332790152,6.669912543108783,2.0423796149471936,7.281004641924782,,,,,,,,,
182,182,9.15,2.65,-19.0,-0.476,0.614,0.647,-3.24,7.66,-14.7,-7.68,,,,,140,9150000000.0,1.3337149633205403,-15.764281963141,1.1892132595574991,0.25274701844606384,0.5600466554821024,-1.8729298516795396,7.041613872261096,-7.814084382407835,1.0296249269072346,,,,,,,,,
183,183,9.2,-3.15,-22.5,-7.44,-1.56,-0.927,-2.86,0.898,-17.4,-14.8,,,,,140,9200000000.0,-0.3541770162945932,-19.491233433670978,-2.233984059787148,-0.9343800274308192,0.07142296648090367,-2.455970241309664,4.735161268047652,-13.457441638420025,-5.584703512967754,,,,,,,,,
184,184,9.25,-13.7,-18.5,4.56,-1.46,0.985,-2.45,-10.6,-12.2,-2.24,,,,,140,9250000000.0,-5.378204404023262,-18.94277239610337,0.4611802583827776,-1.2785967018603102,0.3716121971281887,-2.452443780304128,-1.0220077645378716,-12.71716871760032,-4.187136145371839,,,,,,,,,
185,185,9.3,-11.0,-6.17,5.04,-1.01,0.23,-1.95,-8.3,0.978,-1.09,,,,,140,9300000000.0,-7.49452615357295,-11.87544827125672,2.2775918777601936,-1.1026987815474565,0.32508031965278683,-2.155661407474409,-3.7543319208216746,-4.6546386651622536,-2.8930135546296434,,,,,,,,,
186,186,9.35,-7.04,-0.848,2.78,-0.525,-0.312,-0.18,-4.67,6.71,-3.01,,,,,140,9350000000.0,-7.323420027628907,-5.773832324274651,2.4768964929313007,-0.7243768806326436,0.11574422325568902,-0.988682022066142,-4.098094606164842,2.035877024628049,-2.941895742543967,,,,,,,,,
187,187,9.4,-4.17,1.16,1.07,0.564,-1.13,1.69,-1.78,8.68,-4.75,,,,,140,9400000000.0,-6.136316883350568,-1.9372619227894448,1.9187825668008671,0.11935204869397552,-0.29359070850692204,0.5935560912465799,-3.227829071901648,5.9473617813288175,-3.697402921233989,,,,,,,,,
188,188,9.45,3.91,2.05,3.84,1.38,0.513,1.68,6.82,9.08,-2.35,,,,,140,9450000000.0,-2.3543865833652573,0.2689366483940789,2.6809269051037417,0.9449219184413672,-0.028555757983597607,1.2352943888620378,0.5443549251003543,7.791587998208683,-3.1343974156426078,,,,,,,,,
189,189,9.5,-2.84,-4.16,-1.21,1.67,-0.00489,1.6,0.684,2.12,-7.86,,,,,140,9500000000.0,-2.537195445108181,-2.181645649677596,1.137401418718499,1.4197591508054743,-0.020779505609358317,1.45071792130254,0.59678087319188,4.452647778079994,-5.108966504934205,,,,,,,,,
190,190,9.55,-26.8,-64.6,-0.879,2.29,0.956,7.21,-22.8,-59.5,-8.26,,,,,140,9550000000.0,-11.670914110851346,-36.718449383760095,0.3374976840862368,1.9896602044648943,0.3001771998206623,4.8525981746764435,-8.186903380778627,-33.197136305094205,-6.4256099390281465,,,,,,,,,
191,191,9.6,-8.41,-17.7,-7.23,0.997,-0.307,2.09,-2.99,-14.6,-14.8,,,,,140,9600000000.0,-10.443344794017396,-26.195319605064746,-2.6645184789903484,1.3395894410329483,0.10066686812105112,3.2207926336807238,-6.23586746488434,-22.248752205039906,-9.924806363253154,,,,,,,,,
192,192,9.65,-3.0,-9.94,-2.63,-0.5820000000000001,-1.44,1.62,2.61,-7.61,-10.3,,,,,140,9650000000.0,-7.64130188654317,-17.20106115505206,-2.650825090189306,0.08118390198422554,-0.4055757307965367,2.27523992006801,-2.9149273407977034,-13.630721929693568,-10.081579198057183,,,,,,,,,
193,193,9.7,2.49,-5.66,-3.46,-1.17,-1.84,-1.26,7.4,-3.09,-11.6,,,,,140,9700000000.0,-3.8273790592400334,-10.815257121003869,-2.9718237039730013,-0.7381881506165704,-0.8769084211693944,0.18705208717798705,0.9575314024543208,-7.42525707791189,-10.71604377586711,,,,,,,,,
194,194,9.75,8.11,-0.304,-2.97,-1.26,2.08,-4.11,12.5,3.3,-11.0,,,,,140,9750000000.0,0.6664403580271281,-4.9992557672797915,-2.9711002544088263,-1.0799109399472782,0.094692215314081,-2.3511213866540777,5.2908370622268865,-1.1111539804785728,-10.83469344160483,,,,,,,,,
195,195,9.8,-6.44,7.85,12.4,1.24,-3.65,-3.84,-2.6,12.5,4.66,,,,,140,9800000000.0,-2.00877508798277,2.110387489696686,3.1265943961703995,0.43934634806185,-1.1357637231658748,-3.2305689218968285,2.328437104205312,6.901915474692631,-4.360314564845253,,,,,,,,,
196,196,9.85,-9.59,-8.8,1.62,-0.0974,4.53,3.69,-7.12,-4.25,-6.71,,,,,140,9850000000.0,-4.862722944773799,-3.926457459442285,2.528930426969462,0.08784328515293817,0.7259307229887457,0.857257733323614,-1.2187213860033062,0.3366328112921382,-5.342118703308368,,,,,,,,,
197,197,9.9,9.38,-7.26,5.83,2.09,0.939,2.67,14.5,-3.49,-1.65,,,,,140,9900000000.0,0.4989420372473132,-5.770945613288887,3.8384602574845856,1.3990104448430325,0.7959424484825317,1.928004443745976,4.68244470950936,-1.9161574088991264,-3.799385649373456,,,,,,,,,
198,198,9.95,2.78,-22.6,-9.06,-1.59,-0.746,-1.31,7.93,-19.0,-16.6,,,,,140,9950000000.0,1.3576449971100573,-15.082658198744616,-1.2783417489829074,-0.5584250136101734,0.2892807323400919,0.015387044670789553,5.901650883467549,-11.973645366205304,-9.14805748721915,,,,,,,,,
199,199,10.0,1.21,-18.6,-5.91,0.138,0.984,-3.37,6.16,-14.1,-13.0,,,,,140,10000000000.0,1.3020641364169785,-17.028844714945258,-3.1157142885904765,-0.10235200250504528,0.5175562249549852,-1.9842859552497625,5.998640969963898,-13.225459168922004,-10.757572098064523,,,,,,,,,
200,200,10.0,-5.02,-22.5,-8.71,-1.84,-0.307,-2.15,-1.09,-17.0,-15.8,,,,,140,10000000000.0,-1.0778732990808189,-20.056098843391712,-5.334959922986297,-1.2402984549266425,0.2466180454681063,-2.0821696236539093,3.3374036514225716,-15.44758213396866,-12.864525060722054,1.1620138917604603,1.0360438387327613,1.9727895757072658,1.9372605810310815,3.2364130700681932,2.7205156912935724,2.389088589614501,1.6719219830458536,0.6761604294090741
201,201,10.1,-12.3,-15.2,7.12,-1.43,2.16,-2.44,-8.77,-8.58,0.782,,,,,140,10100000000.0,-5.302436574559996,-17.369162523130164,-0.3940941147138064,-1.3645296782307847,0.8753298591008154,-2.293532127054461,-1.2079916691803565,-11.404544099217286,-7.162393887148233,1.162737159681555,0.8653738608702638,1.9412907066727139,2.3684685943480828,3.2171048040182906,2.7589499273344504,2.3446169026133,1.6513703944822187,0.6650333466919606
202,202,10.1,-8.49,-6.59,4.7,-0.906,0.213,-1.71,-5.64,0.858,-1.0,,,,,140,10100000000.0,-6.502392924052304,-11.404926070811625,1.6267260950670015,-1.0642489592459106,0.6576971028326246,-1.948852660032264,-2.871868511749794,-4.185419435107438,-4.587468906767665,1.151351361195828,0.9017602361588504,2.1341753525200087,3.086901884771846,3.3735452564275783,2.970851835810672,2.4730119692954915,1.6502554208029545,0.7719731166634709
203,203,10.2,-7.69,-0.5529999999999999,3.59,-0.192,-0.5529999999999999,0.155,-5.12,7.18,-1.87,,,,,140,10200000000.0,-6.94946695279195,-5.400428598397464,2.4055541791547377,-0.4930328157762968,0.2598781945140814,-0.7061535390264164,-3.7158682440177686,2.5055557809360662,-3.4519883309871604,1.0654709458155742,0.9774993470227858,2.003341412700902,3.3946720351549193,3.2720357151862047,3.3435070965293234,2.2060341460150648,1.4667055537881886,0.7829448184150295
204,204,10.2,-2.94,2.73,2.89,0.65,-0.111,2.11,-0.0132,10.2,-2.73,,,,,140,10200000000.0,-5.440105424018123,-0.9017674718321552,2.5977332264809334,0.2555135454390127,0.1380125669026892,0.9572858556147774,-2.325802234933373,7.035378491512756,-3.1503091826019163,1.12030791049548,1.0655798022115046,2.049308738232568,3.3055397407420437,3.3274095983246146,3.3026304197571434,2.2226417127208413,1.668537110911429,0.774537012957612
205,205,10.3,4.78,-0.4,2.55,1.91,-0.199,1.38,8.31,6.43,-3.54,,,,,140,10300000000.0,-1.5927524802289208,-0.6241336717589789,2.578797500805191,1.338999337793472,0.027274732908052574,1.2069737255975057,1.667120375138602,6.678983928520496,-3.313139495057326,1.1437646737950318,0.8687724204500078,2.1385341765052437,2.6786755381017735,3.326808567106245,2.8235304673575294,2.3663540967247125,1.7069226386466663,0.7371853466946409
206,206,10.3,-4.14,-5.57,-0.0958,1.54,-0.244,1.5,-0.174,0.4370000000000001,-6.76,,,,,140,10300000000.0,-2.5516623077005107,-3.360739379418897,1.5177882696916425,1.4706301070972598,-0.061862526376999336,1.380057848997897,0.9759218457433247,3.0042440220106763,-4.7533927424077485,1.1105134985296188,0.7817872013108026,2.1685850734938397,2.270891176596617,3.239198387395424,2.6232025768317815,2.452472358524291,1.5463655722530623,0.7143355768509534
207,207,10.4,-16.7,-65.5,0.122,1.84,2.42,8.15,-11.9,-61.0,-7.14,,,,,140,10400000000.0,-7.877796259322809,-37.743118136994575,0.9640809405196804,1.7125221299781956,0.7536444164062397,5.378912351177073,-3.85799239750511,-34.675915464074656,-5.750624405083264,1.0748257889978927,0.9996462017373681,2.3408691744815564,1.8821727284687002,3.161194233907873,2.4010198716243334,2.32816546854662,1.5598769987381162,0.7759325569707155
208,208,10.4,-9.49,-15.7,-5.39,-0.0932,-0.6659999999999999,2.08,-3.71,-12.8,-12.8,,,,,140,10400000000.0,-8.484709352917793,-25.54640327793444,-1.5565743714944849,0.5299954886544889,0.2871681966443689,3.430317922749881,-3.8024326943973987,-21.797269852385753,-8.69617026582736,1.0649441813808003,0.9815698165420501,2.2456308767888182,1.7705254427225894,3.1971256683390665,2.5827438187205822,2.4787223734795902,1.619889665081439,0.6424736608284002
209,209,10.5,-0.706,-8.92,-2.55,-1.05,-1.79,0.852,4.98,-6.35,-10.1,,,,,140,10500000000.0,-5.556418637162577,-16.34682017144291,-1.9506649635795763,-0.5047078430617256,-0.3953615504737442,1.9073626903333103,-0.5053073817110536,-12.703254226550259,-9.282753548099643,0.9910804626634548,0.8553175635402721,2.220719653440715,2.1830646589876053,3.27808087194507,2.656835810466912,2.3464980519661327,1.7666883641509352,0.5544620201050193
210,210,10.5,5.27,-4.83,-3.9,-1.05,-0.985,-1.68,10.3,-1.77,-11.7,,,,,140,10500000000.0,-1.4808195158446775,-9.974428999001852,-2.7239635891525658,-0.8618073305498613,-0.5891088838148558,-0.21161288195312133,3.551251236019936,-6.266700370288018,-10.292787618558412,1.0289294201950412,0.6808157570981139,2.417696059639667,2.8373252094295274,3.427830868163425,2.889235646578408,2.5515279528845793,1.5284138706974235,0.6310099459924641
211,211,10.6,5.74,1.02,5.74,-0.7020000000000001,1.49,-4.0,10.5,5.21,-1.76,,,,,140,10600000000.0,1.2374537912644716,-3.8910830171547235,0.633679294651881,-0.7571531332217282,0.09405856288662696,-2.449329157619959,6.159969821028263,0.4897875528430822,-6.727405655278536,0.9414723356480578,0.8738527306354729,2.4234064860344353,3.488406951838541,3.4072104388088427,3.1978278293835825,2.4611464998050523,1.5082944657837,0.6855171106812774
212,212,10.6,-15.7,5.35,-3.0,0.601,-3.76,-0.331,-12.4,9.99,-11.0,,,,,140,10600000000.0,-5.1386409679334974,1.222116109675885,-0.8077963954467111,0.1322706884126964,-1.1723336639705295,-1.1980790913025194,-0.8078655200829221,6.082690289310964,-8.512687497161458,1.1016004176004364,1.0664414462036071,2.437547027053128,3.499233779447664,3.3480930927847177,3.284608357968812,2.480690376694819,1.7047140230644866,0.7083785069211342
213,213,10.7,-4.82,-4.78,-0.718,0.0602,4.72,3.03,-0.762,-0.397,-8.5,,,,,140,10700000000.0,-5.018688821696249,-2.098924961340374,-0.7721742840385122,0.08507322111300455,0.7638085043718571,1.2993534673507032,-0.7906465681140459,2.268009437917764,-8.507386090925857,1.1311550093010563,0.9294763548610924,2.458432141868867,2.9097135262651954,3.5010508640452533,2.870622604507063,2.5232266204698544,1.8424929060481399,0.6418199205160791
214,214,10.7,0.6659999999999999,-4.01,-7.88,-0.443,-1.14,0.263,5.91,-0.371,-15.3,,,,,140,10700000000.0,-2.878690949921602,-3.1563452303720756,-3.5918392332980162,-0.2607499980638026,0.13824243165362882,0.6872024586593307,1.7249287432806304,0.7143890847676602,-11.345645385606794,1.0609267970507406,0.5823527572675865,2.459781402576094,2.50682017955286,3.414907473287501,2.4621618774581875,2.5730322829806465,1.3577193018315965,0.5424010447451773
215,215,10.8,0.723,-43.8,-4.82,-0.8290000000000001,0.632,-1.59,5.61,-39.8,-12.3,,,,,140,10800000000.0,-1.5228364473604692,-25.644953755703987,-4.07904902607888,-0.6328840884905389,0.3004845913628731,-0.657890563948531,3.183473048742308,-23.136976348479163,-11.74441769274468,1.0192822571527187,0.8765000925069041,2.4938081281052926,2.1375424312325815,3.494548476882892,2.460293849473338,2.5153091672038337,1.5893760107223374,0.5884069067194988
216,216,10.8,-2.08,-14.9,-4.24,-0.5760000000000001,-0.251,-3.68,2.56,-10.1,-11.4,,,,,140,10800000000.0,-1.7325803206326902,-19.699645118498772,-4.142897970210757,-0.5956319673688115,0.1192741157664122,-2.442983641967675,2.9494070414621225,-15.461933214085695,-11.600504350100554,1.1700735236172497,0.9336384469487856,2.3433672019857683,1.955203676959485,3.2479761921348946,2.417839101828495,2.8850128421778645,1.5647047684052529,0.5410346244441442
217,217,10.9,-11.6,-23.2,-4.9,-2.36,-0.69,-2.42,-8.07,-17.2,-11.9,,,,,140,10900000000.0,-5.447164981383621,-21.636432784644843,-4.443239365209922,-1.751076676798289,-0.14664256204149992,-2.429407759308809,-1.1875292797542,-16.485156961809007,-11.725646926558348,1.012208643142086,0.8594488996433298,2.50260547176592,2.0694541395401433,3.549971661637255,2.601363879211928,2.6952561585051944,1.7649433234523009,0.46315633117948685
218,218,10.9,-13.2,-8.66,7.33,-1.4,1.11,-2.76,-9.96,-1.73,1.19,,,,,140,10900000000.0,-8.365715235799499,-14.456420861193605,0.22718882961289036,-1.521164474256044,0.2662734247277938,-2.6246812604616467,-4.480914647561548,-7.798597572820729,-6.328909446718472,1.0317648411823457,0.6565572822941029,2.5522739875538587,2.434295066851926,3.4982623206750696,2.644373095158445,2.634073676286511,1.5641869323151862,0.45809683855788175
219,219,11.0,-5.69,-4.03,2.92,-0.7440000000000001,0.299,-1.03,-3.28,3.58,-2.77,,,,,140,11000000000.0,-7.358443781092116,-8.687360522503266,1.2954234302359748,-1.0122170230818233,0.2770269391391912,-1.6827383797939397,-4.030063920164669,-1.0998641536796976,-4.8418372059303465,0.95295521575117,0.7603529560981113,2.7066694611110558,3.130364335419533,3.5964441523225466,3.1420410966864147,2.7761305596951176,1.4631040895793723,0.5676671326686127
220,220,11.0,-7.74,0.883,4.4,0.482,-0.411,0.833,-5.44,8.6,-1.19,,,,,140,11000000000.0,-7.502080316177271,-3.3919682438945418,2.527004818670831,-0.033688044395323365,0.05095046094323222,-0.19674749449862292,-4.55938606568221,4.610576587596187,-3.3159356049136743,1.0264858060088133,0.9304180185830806,2.490075944566329,3.595101477966223,3.5826703749183046,3.377041184210302,2.6260080302285544,1.5104136404922033,0.5871749595848198
221,221,11.1,-0.479,4.27,5.21,1.18,0.036000000000000004,1.98,2.3,11.6,-0.713,,,,,140,11100000000.0,-4.8582457327826045,0.8474882752751549,3.591345414501017,0.7611288116305659,0.04603793840967114,1.0890089995866141,-1.9842162912824801,8.725344401718417,-2.228312185284506,1.1425116666144477,0.9265804198237483,2.7581995525706944,3.104136863519854,3.645940797292031,3.0318185764853993,2.523573786732024,1.782419928195067,0.5976566443290893
222,222,11.1,1.19,-3.65,-0.802,2.14,0.373,1.56,4.62,2.85,-7.29,,,,,140,11100000000.0,-2.581387050626636,-1.6410245759062287,1.84851120164214,1.664120481202377,0.15347330878889204,1.3672129070631691,0.4951569117387744,5.266450056997214,-4.3433127090184325,1.0821189194478333,0.5886243541970737,2.7205357391594664,2.387542364558546,3.44631761446425,2.435268577199039,2.532810568624603,1.5374253531764668,0.4983782743577195
223,223,11.2,-27.6,-30.1,5.82,2.15,-1.9,4.1,-23.6,-24.6,-1.29,,,,,140,11200000000.0,-11.99962978672488,-17.38770832185802,3.4239955357173306,1.9823120674266252,-0.5212706189740741,2.9814095960077984,-8.550714046400289,-12.316331100728648,-3.0675014886439853,1.0810902402866818,0.7934761872948972,2.6319453388030873,2.0363681385297046,3.4967634757970854,2.3612752882290495,2.603620398577414,1.662696670365599,0.46402591511394803
224,224,11.2,-8.37,-22.9,-4.64,1.64,0.8220000000000001,2.32,-2.91,-19.5,-12.0,,,,,140,11200000000.0,-10.633257678114184,-20.43772348604716,0.22501940305453827,1.7581396158675728,-0.07988980425549252,2.5907295727857784,-6.4330615248511505,-16.545453621521013,-6.799900613936961,1.1818821008008038,0.9038088020838418,2.5921924929169537,1.8311202799756534,3.4452690468450466,2.2000871536826034,2.774482702032675,1.4644248568125615,0.588445134823289
225,225,11.3,-5.24,-13.2,-2.55,-0.573,-1.05,2.33,0.441,-10.6,-10.1,,,,,140,11300000000.0,-8.602968811390731,-16.433006430959264,-0.8758270437432196,0.23152891877593665,-0.3986550574796828,2.436722349892624,-3.8523822253971565,-13.045285316663694,-8.178830537077692,1.0329108604381094,0.8494954728561042,2.6579136709755633,1.9654552362291848,3.497152576288094,2.5472102470434286,2.790938654313692,1.5922806079025513,0.54229456515306
226,226,11.3,1.48,-6.57,-1.91,-1.25,-1.45,-0.488,6.68,-3.95,-9.8,,,,,140,11300000000.0,-4.807240939104833,-10.975689856722424,-1.286082051630458,-0.7386909113202309,-0.744112996146016,0.7091537006236874,0.10171393511090576,-7.690768522609358,-8.856228041210382,1.0506207998855583,0.6585153254689587,2.984016107104994,2.317598859135078,3.558112393269786,2.484022443652585,2.751544049618133,1.5855065098096315,0.5358330597787615
227,227,11.4,9.06,-2.09,-3.39,-1.29,0.833,-3.21,13.7,1.4,-11.3,,,,,140,11400000000.0,0.4130741706654426,-6.059133816690402,-2.1207035142942847,-1.0997307577650406,-0.22589470314849255,-1.6058035185870667,5.206820233966892,-2.338910811941892,-9.877345819366703,1.03838325124856,0.7193829007252276,2.9491454231537246,3.034119272807324,3.717047957445805,2.8459929091439844,2.9729558829336655,1.5222512159737398,0.5428331311445213
228,228,11.4,-2.38,5.06,7.83,1.17,-2.57,-3.74,1.65,9.59,0.118,,,,,140,11400000000.0,-0.6383770528384507,0.09321277636867276,1.8267271591746967,0.3866646278511696,-0.9961364110090062,-2.866426067037525,3.8715088814860485,4.683799549018229,-5.7008413454564915,1.0308332055706126,0.8691179560886118,2.5884026384123247,3.732180552734838,3.7722699109079936,3.3675109651573245,2.8126394781644675,1.4052253178915783,0.5545391187913509
229,229,11.5,-8.86,-6.97,-0.67,-1.23,1.57,2.84,-6.08,-2.41,-8.89,,,,,140,11500000000.0,-3.7334021984601606,-3.814945242948202,0.8362788457768966,-0.6720525387078584,-0.15293820179725792,0.5042332389253641,0.13548577131836215,0.507584273176211,-7.033415231578448,1.1386282762529538,0.9601947325838353,2.7283742805463764,3.160643925286825,3.8123556410733825,3.1015555314946326,2.461041481292849,1.6578618832797325,0.5761732657209782
230,230,11.5,3.39,-2.04,10.1,1.01,3.42,1.85,8.12,2.18,2.67,,,,,140,11500000000.0,-1.0518014593313536,-2.832847285568045,4.511184722362605,0.4294856752161607,1.0210816528005051,1.2991478408449364,3.1330542645200885,1.4921579493766297,-2.978892439168892,1.1665086936326963,0.6995946689059999,2.9468803975282727,2.400979732906692,3.7805638821730208,2.5575620188112995,2.6368100678151873,1.6569531161938333,0.5271016039766612
231,231,11.6,-2.04,-15.6,-3.63,-1.07,-1.1,-0.0928,2.73,-11.7,-11.2,,,,,140,11600000000.0,-1.4238082226608015,-9.897062228187707,1.281587644787867,-0.5524936634874811,0.32412250943349474,0.4769551137978178,2.9817385188259222,-6.2742427933659295,-6.414040390000036,1.1447685245928714,0.6196206000339572,2.846907600630736,2.1878596518202604,3.5318048786315184,2.2206400061322267,2.770480406065446,1.464577979259066,0.3793301597727964
232,232,11.6,5.06,-18.9,-6.43,0.416,2.43,-2.96,9.97,-14.6,-13.8,,,,,140,11600000000.0,1.017017667602684,-14.878492650663233,-1.7775887362817295,0.08175096991586682,1.0160857820178415,-1.5531780913348567,5.605291178254316,-11.175728289458208,-9.50022617157783,1.2246045957836738,0.8988664014332697,2.757857208388836,1.9347198722199177,3.3818544999773725,2.1225376215634504,2.770722020116444,1.5249287907360218,0.48440737064350464
233,233,11.7,-4.35,-21.5,-8.25,-1.06,-1.76,-2.89,0.168,-16.5,-15.3,,,,,140,11700000000.0,-1.0033930400483508,-18.542250013678323,-4.345185581358841,-0.6659559175357282,0.10390103062035816,-2.342809215140394,3.5640082024976683,-14.310198671320313,-11.923632282250944,1.170002346041469,0.8636070258651269,2.747600586375553,1.9034792672753136,3.3241061915685477,2.3618048518421744,3.1838342955570864,1.5330845339181853,0.497516006010224
234,234,11.7,-14.3,-17.6,2.23,-1.43,1.54,-2.21,-10.9,-11.4,-4.6,,,,,140,11700000000.0,-6.0088932272757605,-18.02089228564555,-1.736818295104555,-1.1663110976403996,0.5757839816279835,-2.264361778894936,-1.8661098371721376,-12.596925338888283,-8.863489697794966,1.0828594824492797,0.7242831841046192,3.072620369407217,2.131378665976574,3.3853690389437476,2.382075048959843,2.9594518499680946,1.6956100749137402,0.4488074702659309
235,235,11.8,-10.8,-7.95,5.07,-1.21,-0.448,-2.61,-7.76,-0.847,-0.986,,,,,140,11800000000.0,-7.812502714330725,-12.448549839152946,0.9634374377551258,-1.1949219981082693,0.23938221816757504,-2.468522550751933,-4.078810558567685,-5.6795862252687765,-5.5719206463323765,1.1177967097716774,0.5837948726002314,3.0856248921026137,2.67293900387989,3.4934375898085968,2.694143791663551,2.9223719101152197,1.3899182855760261,0.4627898291572056
236,236,11.8,-6.64,-2.68,1.61,-0.0877,0.284,-0.487,-4.26,4.88,-4.17,,,,,140,11800000000.0,-7.371114685196508,-7.043497142476693,1.2199279424609375,-0.4698273182609637,0.2540430291244832,-1.2980811069764848,-4.146833288474144,0.5369843079370904,-4.98613525799008,0.9883368612390612,0.8154184800252597,2.7936321664016797,3.6540211872043167,3.6770193058816676,3.2797579083750916,2.963744131294043,1.4151942295688642,0.5064944348591124
237,237,11.9,-6.68,1.08,2.52,0.5529999999999999,-0.618,1.31,-4.28,8.59,-3.33,,,,,140,11900000000.0,-7.1109448910382165,-2.548671258247543,1.7356647719558438,0.19999917547573387,-0.032498667491074995,0.2424545435370149,-4.196827184410297,5.2779030705438865,-4.294127521835405,1.2338973851455015,0.9787171657815772,2.780555153468215,3.6104730141172823,3.6579920369938757,3.5595149756108015,2.7198134908936784,1.6293053386554102,0.5803072244859029
238,238,11.9,3.06,5.56,5.1,1.3,0.282,2.51,6.12,12.6,-1.04,,,,,140,11900000000.0,-3.2820985024069715,1.9379512356483648,3.0702919951771843,0.9203648418399544,0.07084140090615923,1.5818433637104594,-0.32365527535271976,9.588520259514084,-2.9344068520777795,1.2911838917578748,0.819781099172544,3.0367356825932097,2.4693933552308094,3.6967846850079993,2.5492879914124846,2.6393751628936872,1.8051247920139155,0.5315448154828256
239,239,12.0,0.857,-5.28,-1.4,1.87,-0.8009999999999999,1.78,4.59,0.825,-8.11,,,,,140,12000000000.0,-1.7239372315999468,-2.055825612885416,1.2969331812039977,1.5422594635061948,-0.21563405261086865,1.6988900783987748,1.52104290997262,4.429317982651701,-5.097002013129439,1.1397575789119143,0.4579132096302763,3.1387040888990025,2.0676280311537227,3.415862750177533,2.185838196937018,2.6508810243314382,1.2363475967918789,0.4313453965467711
240,240,12.0,-27.8,-50.7,-5.67,2.15,0.7979999999999999,6.15,-23.8,-45.7,-13.1,,,,,140,12000000000.0,-11.540255918863528,-28.97121594189523,-1.4668398738379445,1.9402550781136492,0.11743256782506005,4.328062076768768,-7.985053149098271,-25.08248633790409,-8.441014225584862,1.1852137033208197,0.8827265707075631,3.171216218198509,1.8351200790746098,3.3477246242962173,2.060951462135741,2.643853247804217,1.6227751253362783,0.5000628086244279
241,241,12.1,-11.3,-18.0,-7.03,0.943,-1.26,2.03,-5.87,-14.8,-14.6,,,,,140,12100000000.0,-11.449811786875436,-22.900714005146142,-3.673738098517489,1.28717526161804,-0.3351733956520943,2.9706477430533225,-7.1910139710697845,-19.029048415794435,-11.014515302768528,1.307408453370356,0.8827640273777899,2.7201606877461746,1.77059132166577,3.2117499259440416,2.100793049852368,3.210948131357914,1.473712500449284,0.5033674870071139
242,242,12.1,-2.08,-11.1,-2.82,-0.865,-1.67,1.3,3.15,-8.36,-10.7,,,,,140,12100000000.0,-7.922551448665142,-16.371241311604912,-3.335061316346832,-0.1222357187914247,-0.7737795969334378,1.9838331341581041,-3.3087617125357314,-12.748035883717543,-10.88309660156743,1.030914769464095,0.750989182099671,2.9899181330886035,2.0457271858437283,3.261090704432009,2.2123785550976076,3.2408316781822473,1.6155468763544545,0.43417383915824836
243,243,12.2,4.69,-5.75,-2.93,-0.914,-0.946,-1.15,9.33,-2.77,-11.0,,,,,140,12200000000.0,-3.174563619238582,-10.494384425891377,-3.174374063307252,-0.6407442488208833,-0.8303689173520112,0.13274739828597704,1.4361173285463784,-6.873831916153202,-10.931944092725566,1.0789116273020043,0.5247700802724776,3.3667620278175034,2.3823420178128454,3.3334524455461656,2.4381496130236915,2.900625322594059,1.3741977110143202,0.4393110330545628
244,244,12.2,8.66,-0.735,-1.38,-1.07,2.63,-4.22,13.0,3.19,-9.26,,,,,140,12200000000.0,1.2805510560127056,-5.094403030412699,-2.462548283337826,-0.9218541803171628,0.3066621846043587,-2.4383238581649915,5.777462319496663,-0.9491186476474844,-10.233330842802731,0.968816307733764,0.7470984355616066,3.154493630738845,3.11571318493919,3.515053661052956,2.9502646387344345,3.1745898095454894,1.4140525008813165,0.48427865299626494
245,245,12.3,-11.4,7.36,10.2,1.26,-3.21,-3.27,-7.56,12.2,2.61,,,,,140,12300000000.0,-3.493035021717988,1.7967637215757035,2.5606675180831253,0.5069928411896412,-0.8488661089405359,-2.9295765042109494,0.770275146346048,6.7919442791720215,-4.866810338932658,1.0752907648485444,0.9157332689636615,2.612759100657909,3.6676962050642308,3.6955614205640956,3.372889152189567,2.626266523884626,1.4456530051481038,0.5328985426984096
246,246,12.3,-9.01,-9.05,1.53,-0.6759999999999999,3.7,4.2,-5.75,-4.26,-6.38,,,,,140,12300000000.0,-5.569893431117558,-4.204877453465008,2.1518030882148422,-0.2677224532016577,0.6458306275051211,1.2817061493683797,-1.677584681571834,0.28551586871187506,-5.499088999525674,1.2044502053207489,0.8418067080387692,2.8690256891356127,2.4780089961411,3.7089980643865057,2.690496743324284,2.365255195782178,1.6225710715449426,0.5442382236501161
247,247,12.4,9.88,-1.65,7.09,2.17,-0.0367,2.03,15.3,2.22,-0.0798,,,,,140,12400000000.0,0.246210192801545,-2.7912339014387424,4.110779223419405,1.3286869779034265,0.42156016866542734,1.7237067190940762,4.696187444789331,1.4243727176922143,-3.2346666223681115,1.111493206749055,0.46450724957531214,3.362759475203869,1.9849449299722568,3.5968353033734917,2.09684904402631,2.552524316512505,1.2274292150695618,0.43738100363702365
248,248,12.4,1.61,-19.8,-7.15,-1.4,-0.132,-1.7,6.71,-16.0,-14.6,,,,,140,12400000000.0,0.7596080941994591,-12.2023824430804,-0.35635679034135403,-0.4582684837169857,0.2396676820604896,-0.29860095865960634,5.452218568874302,-8.833589906190227,-7.98361359696928,1.1718381076835647,0.8146526446761663,3.288467082534755,1.982060225293728,3.3827003319244824,2.0408053204782535,2.680176572295098,1.693303812071823,0.4250472789998442
249,249,12.5,0.5579999999999999,-18.6,-6.74,0.006409999999999999,1.1,-3.49,5.54,-13.8,-13.7,,,,,140,12500000000.0,0.6837128525785054,-15.742259179739024,-2.8887393769393976,-0.15396103907341796,0.5223614125952134,-2.1836896192865787,5.485173703540928,-11.757382452362974,-10.372176536160968,1.3133687882484872,0.8908674929118263,2.755642682311045,1.8896895710570927,3.1173004088167295,1.9997021744415715,3.007807235409075,1.4749570802400194,0.5153832102433996
250,250,12.5,-8.52,-22.7,-9.24,-1.81,-1.4,-1.63,-4.52,-17.1,-16.2,,,,,140,12500000000.0,-2.7810197800409813,-19.592058871943575,-5.408275834977803,-1.2384635171714478,-0.10930089513272256,-1.8566374345947492,1.7290035751570274,-14.902653499900568,-12.807303283591812,0.9318428550327833,0.7861899877311728,2.5975079463003423,1.9882017110628751,3.0813261870401214,2.2854398425239486,3.6192643254446524,1.5072261776019042,0.4490337621228726
251,251,12.6,-13.4,-11.8,7.24,-0.959,3.82,-3.04,-9.76,-5.27,0.929,,,,,140,12600000000.0,-6.778528690949723,-15.280621783652256,-0.3907219097624308,-1.055449165551741,1.181814939553561,-2.5556234422932698,-2.5842301831549683,-9.231780788017216,-7.067658729494548,1.075771128235229,0.5329995624218257,3.573349140525806,2.260812397316232,3.3330283661412055,2.151963756159268,2.712149377030563,1.3658890211884496,0.45718348455780106
252,252,12.6,-7.96,-5.67,4.47,-0.772,0.13699999999999998,-1.45,-5.0,1.74,-1.24,,,,,140,12600000000.0,-7.223292906555981,-9.962952530138018,1.537519852555718,-0.8698247181207831,0.8385026866171787,-1.9025562166420176,-3.4911652058994287,-2.7725458323472525,-4.63260113824794,1.0015839764730599,0.6490203107879925,3.3218835699664897,2.7293314290525896,3.626502315943563,2.4436167159097253,2.873459514592812,1.4786370620700662,0.45240360249616257
253,253,12.7,-7.53,0.0168,4.14,0.00702,-0.778,0.713,-4.72,7.6,-1.4,,,,,140,12700000000.0,-7.338752696144071,-4.441038880849495,2.5699201746118674,-0.295598914925291,0.3073414691460016,-0.3576051510677396,-3.9524977028464003,3.333911381829152,-3.281875164494219,0.8499305877231137,0.7945660966942757,2.6339125810695214,3.8919796561682176,3.705682485375845,3.255051474100165,2.5304199114400063,1.3323579988807925,0.5321776558286763
254,254,12.7,-2.13,3.99,4.47,0.845,-0.225,2.16,1.02,11.3,-1.32,,,,,140,12700000000.0,-5.37792075402038,0.2239534211847456,3.3236792031373974,0.4513535739395354,0.13242116586571884,1.129488442792898,-2.08570879419987,8.023655029088891,-2.4621156153814026,1.1168773218803976,0.8578788510831042,2.4950583221829055,2.9721212435736613,3.777281021797181,2.99611143188729,1.995506222630123,1.5288436277498316,0.5687464697105418
255,255,12.8,4.21,-3.13,2.31,1.96,0.35100000000000003,1.24,8.08,3.4,-3.9,,,,,140,12800000000.0,-1.7685534337384254,-1.6318282480132569,2.921554003614813,1.4393320721168583,0.2042432584884175,1.1947651750397434,1.7307298428753761,5.301647168932981,-3.0629283407962866,1.2231906441962803,0.5353300216783952,3.0921523182752146,2.220266283717119,3.6705796163598303,2.308301690217652,2.2660130558163853,1.397651870383177,0.46533670353097556
256,256,12.8,-8.42,-9.51,1.87,1.73,-0.939,2.09,-4.08,-3.88,-4.9,,,,,140,12800000000.0,-4.2724867332136816,-5.990912830906233,2.50440394626273,1.6296839461414736,-0.17141122864519476,1.7235604865720535,-0.4507504853700293,-0.10371210479791416,-3.830539440999076,1.0922471151587878,0.4736029948737536,3.4363737415873032,1.9293632405721564,3.277636288016419,1.8737421914738777,2.2544852933985946,1.2375742402355165,0.3283267523049096
257,257,12.9,-7.47,-43.2,1.76,2.2,1.95,5.4,-2.17,-39.5,-5.62,,,,,140,12900000000.0,-5.47618870199291,-26.579135827550267,2.209099897972753,2.0031710810376286,0.5256562167819011,3.8951518505900533,-1.0961959479200771,-23.296836775412746,-4.578256397182283,1.1108967454667302,0.8246967644741834,2.8045368757210443,1.7452006575486048,3.249057093434449,1.829893343812617,2.1536445365567616,1.4497404629238317,0.4509789600518006
258,258,12.9,-6.18,-17.8,-4.57,0.0333,-0.754,2.23,-0.561,-15.5,-12.3,,,,,140,12900000000.0,-5.741137999567241,-21.721537001877493,-0.4801599840167645,0.7131469983518111,0.10517825210771303,2.911583582951636,-0.895271192867182,-18.70673407716829,-7.804747814354313,0.9354781420250031,0.7762193737614871,2.4823653011480915,1.9685550007415857,3.144228509588548,1.8926326717179205,3.247232522311888,1.3922524655651523,0.4666352724572108
259,259,13.0,0.498,-8.92,-2.92,-0.721,-1.31,0.68,6.0,-7.06,-10.8,,,,,140,13000000000.0,-3.3924180553917687,-14.638297084653184,-1.4480412678498773,-0.2260434924355492,-0.35983042402286514,1.5934366427173707,1.6933706936761737,-11.850145012154353,-9.056298803746794,0.9148952229882066,0.5753861497849804,3.14215036961646,2.0096853011621776,3.236549849100957,1.459943770694128,2.9486159808728325,1.4228224231009037,0.41445160809594955
260,260,13.0,4.81,-3.94,-3.94,-1.28,0.17800000000000002,-1.84,9.92,-1.59,-12.0,,,,,140,13000000000.0,-0.3046224726333397,-8.718804371274995,-2.436597968737633,-0.9162557879772272,-0.18310652041663966,-0.4346182767419797,4.781834774239403,-5.8098596364271256,-10.28630939440643,1.0288098841081328,0.3950158923674321,3.355316532459966,2.18073284337706,3.3305554856848065,1.9995203734218623,2.5346442854111375,1.0589409912504413,0.4063299725446119
261,261,13.1,0.5579999999999999,2.34,7.32,-0.281,0.738,-3.44,5.71,5.93,-0.209,,,,,140,13100000000.0,0.020111276372061167,-2.599838780910177,1.4338313941799528,-0.5002411113803614,0.1195567864893185,-2.209830660062636,5.130289158785027,1.1015535633675144,-6.075556859985044,0.7047747713242399,0.744712171657741,2.8802164812781004,3.310959225895131,3.6367915782009144,2.569440000861393,2.1482709827390836,1.3413464413463192,0.49357652155137427
262,262,13.1,-11.1,-0.11,-4.68,-0.721,-0.8079999999999999,0.922,-6.78,3.84,-12.6,,,,,140,13100000000.0,-4.166048422453282,-1.2221818989952673,-0.9915172307241038,-0.6448111322293261,-0.18522600903557013,-0.3599277325090864,0.6588952022592167,2.7137137696003286,-8.801762440837258,1.152618956594116,0.8699724272608574,2.534230291426862,3.3748050223259622,3.4845269139397206,3.0753121516254365,1.9709342427099126,1.4461515883082499,0.6005480386544689
263,263,13.2,-3.36,-2.18,3.34,0.856,2.68,1.96,1.7,1.64,-4.14,,,,,140,13200000000.0,-3.8626119135094337,-1.7521538796076441,0.7267897962055508,0.3380361880479724,0.7562490568838538,1.0104021648866597,1.049749678575826,2.081604020658492,-6.853868631203438,1.2762736188524733,0.6563258919646996,2.8035514204959577,2.1010791452447037,3.7223732086611525,2.0130391986482925,2.008055050373545,1.4785166237482845,0.5648271524221592
264,264,13.2,-3.85,-6.36,-7.27,-0.8540000000000001,-0.677,0.471,2.14,-3.25,-14.4,,,,,140,13200000000.0,-3.8578641299523926,-4.301729036702858,-2.4455259553608384,-0.4426013724790261,0.2853025411132452,0.6917892572394682,1.4590545255461398,-1.0571829908087311,-10.006981129418591,1.0318301673734427,0.2755837263277063,3.36432123753745,1.7402559483713922,3.308809443004015,1.5404926153630176,1.906939527875559,0.8561882810679542,0.39036412825291034
265,265,13.3,6.28,-38.7,-6.85,0.5920000000000001,1.65,-1.17,12.3,-35.6,-13.9,,,,,140,13300000000.0,-0.0414708744640202,-23.33469459319604,-4.19277484848474,0.23493570594358104,0.7337239129812458,-0.4079283526393101,5.528992495161936,-21.393003160202845,-11.633659128305155,1.088022101526819,0.7468670183675847,3.2041253964113348,1.7567149057571498,3.168319106803913,1.5370151153499418,1.8965452089760693,1.4331106394493727,0.45112415912086107
266,266,13.3,-3.36,-16.2,-0.967,-0.623,-1.45,-3.53,2.68,-12.3,-7.61,,,,,140,13300000000.0,-1.29072923382184,-19.38698515569475,-2.9131143067114436,-0.3269070291439923,0.016181350742759282,-2.25206683621573,4.459415834820794,-16.039829986574322,-9.952393657782912,1.0993836567296178,0.7841253842248133,2.2028118671658237,1.5250946385293316,3.1898888409152155,1.555456914690576,2.670787524236312,1.347694995698304,0.4636353881234297
267,267,13.4,-10.3,-22.0,-2.73,-1.59,0.279,-3.09,-5.45,-16.9,-9.58,,,,,140,13400000000.0,-4.682264153260463,-20.832796791990827,-2.8404731150332654,-1.1540781119580013,0.1025400574669034,-2.7470153269663355,0.7391954562540302,-16.546223420516633,-9.79679082778344,0.686543787969249,0.5997251753481588,2.7632777339182457,1.6997728433220365,3.2569755985384936,1.6226379543362572,3.0274462233590493,1.3311075865830222,0.4600889444440432
268,268,13.4,-14.1,-10.8,7.73,-1.7,0.6809999999999999,-3.17,-10.0,-4.28,1.61,,,,,140,13400000000.0,-8.227565591389055,-15.281533238207095,1.3528193634970735,-1.5115900585781126,0.29261427595252304,-2.9968630401053327,-3.2925431669625485,-9.324932802468489,-5.030521221660875,1.0167179862129185,0.38893268887566274,3.458731377997583,1.8483148838189605,3.439395790963396,1.7774269834997587,2.0266154178472173,1.0854794662489724,0.42205732582303873
269,269,13.5,-7.81,-3.86,3.52,-0.44,0.7559999999999999,-1.25,-4.24,3.35,-2.08,,,,,140,13500000000.0,-8.070373240843695,-8.961865423153215,2.2125370002943736,-0.8098299284156979,0.44487663743566985,-1.9650297732295203,-3.648239960112102,-1.8630294056449035,-3.79766088615178,0.8009629122439721,0.6450352210766157,2.910022613753151,2.1036292688374636,3.2563346369586164,2.0132167825806935,2.241878930150981,1.2698217908886043,0.38215530306511003
270,270,13.5,-7.85,1.74,4.28,-0.155,-0.994,0.384,-4.49,9.16,-1.18,,,,,140,13500000000.0,-7.9874138239666035,-3.0403982694632266,3.0326968754583485,-0.3809965977388381,-0.02791903657245109,-0.5775099661827536,-3.964255769241291,4.626376205210153,-2.7038845608450672,0.894073742190932,0.7753303998008806,2.1882101999293098,3.5740998653029736,3.434796131438068,3.2125589108027093,1.6547385939121864,1.2580854170714502,0.47374433826781753
271,271,13.6,-4.21,7.09,4.48,0.413,-0.38,1.94,-0.6990000000000001,14.3,-1.17,,,,,140,13600000000.0,-6.565408556165687,2.5648695118651212,3.6068400863892314,0.1389738344029987,-0.14360814277008604,0.9095273871773047,-2.73840436823905,10.321368781915547,-2.06295867139797,1.0704248045891653,0.6714952627941356,2.2699486669612403,1.966241680859724,3.2130990640212427,1.9366311218534282,1.5175163026328318,1.358683457810466,0.4691457252072463
272,272,13.6,1.71,-2.0,0.146,1.55,-0.0519,2.19,5.94,4.52,-5.84,,,,,140,13600000000.0,-3.4501357050702364,0.03907388815806012,2.233929476945973,1.063022972447619,-0.11347407025382407,1.6658742031223908,0.5196663552659131,6.906024924659889,-3.6411762666952185,0.9331759209294718,0.27359956197349844,2.948724565957238,1.5108485985727642,3.240330293597995,1.5272246063728663,1.6149807505517935,0.8717271105710039,0.3055384952924064
273,273,13.7,-19.5,-22.5,4.97,1.33,-2.15,2.56,-14.8,-17.0,-1.6,,,,,140,13700000000.0,-9.492097975806162,-12.432058975804033,3.31932489110619,1.237860226493784,-0.7826493545147536,2.194014453254742,-5.231685462466496,-7.167773549231027,-2.7882811429278656,0.9362517049292799,0.6854134236775735,3.09999236811761,1.4832374085239584,2.9669283859761206,1.4591305314811713,1.7935618407625633,1.4706911312170758,0.2834713246896312
274,274,13.7,-7.28,-28.5,-1.35,2.28,1.1,2.76,-1.43,-24.8,-8.29,,,,,140,13700000000.0,-8.659355031957084,-21.322638436051367,1.4670099760349324,1.920334009769536,-0.16403588363845156,2.528329561225146,-3.8044461142065424,-17.54810201281836,-5.0871464023240165,0.9649028207427925,0.7570672986288628,2.209503909775931,1.4038987335046058,2.6924323855674093,1.183410404541437,2.060358732588487,1.2243281891622637,0.38367679190008275
275,275,13.8,-7.23,-13.6,-3.64,-0.298,-0.594,2.31,-1.1,-11.0,-10.8,,,,,140,13800000000.0,-8.121275151614535,-17.04961259138353,-0.5589340558440381,0.4675971604160321,-0.30531635052905154,2.3993670963470217,-2.7891354420667054,-13.693146268175836,-7.474233336140297,0.4050258473950914,0.6708734380897651,1.7643563201716241,1.6253784970038916,2.6833979130305803,1.4473252919060808,3.287405404028625,1.2964519902530725,0.34858119199153076
276,276,13.8,-0.366,-7.89,-2.83,-0.8909999999999999,-1.58,0.0569,5.49,-5.6,-10.4,,,,,140,13800000000.0,-5.201806237463,-11.981491876155012,-1.4598628317968396,-0.4221174196184528,-0.7241604073575347,1.015723718018398,0.3190405234234501,-8.928602129232939,-8.69674991415272,0.781814626830376,0.41862897856270204,2.965776313565693,1.5108903754525764,2.718160164061612,1.5740538402920923,2.1691201673761684,1.1808992150884676,0.3316942901401246
277,277,13.9,9.77,-2.91,-6.1,-0.939,0.0214,-1.92,15.1,-0.105,-13.9,,,,,140,13900000000.0,0.4343218639993651,-6.962129503377353,-3.3005989691500783,-0.7606121551176447,-0.4791792031023036,-0.7183431668952562,5.868149578254435,-3.7340288524913468,-10.870901370277794,0.845976591489293,0.5967213840463317,2.954381598949067,1.4690727156496235,2.9385755523680572,1.7616038339536257,2.2536289816763575,1.4160280554446045,0.32719327583323615
278,278,13.9,4.61,4.12,14.3,-0.0345,0.0727,-4.98,9.99,8.33,7.27,,,,,140,13900000000.0,2.0062535698089787,-0.8302578607869897,3.6815350506257256,-0.2850977026629519,-0.29783905869506894,-3.2356093813213187,7.415586040266465,3.368227181897802,-3.290817897643392,0.7013406552789876,0.7668038862265699,2.160448804129631,3.7459716672865806,3.2982396972716814,2.485189851632575,1.6408731495080566,1.2649690266936169,0.4306703026562928
279,279,14.0,-21.1,0.163,-0.12,-0.13,-2.43,1.74,-18.2,4.77,-8.27,,,,,140,14000000000.0,-6.692082567261756,-0.2806766826633582,2.1734712089064883,-0.1835277167887296,-0.9984387225665162,-0.2966272318349605,-2.2010887927350336,4.193469686324445,-5.371344035816321,1.0015257864877196,0.75605372573846,2.0122315754123297,2.307013037738935,3.319774752654428,2.101531018353119,1.487636984881875,1.3419350070663694,0.503430696410203
280,280,14.0,-1.45,-4.89,5.84,0.755,3.87,2.93,3.69,-0.841,-1.46,,,,,140,14000000000.0,-4.7187035890120566,-2.8310690423330023,3.6279783106032415,0.4310928861282025,0.6012652582935333,1.6092699736473164,0.010560166064238263,1.229609642669771,-3.7370088162737183,0.976241491338241,0.42767807322685114,2.626047986107382,1.5858431334426186,3.0878041861546284,1.6534823146841036,1.655340286510043,1.1797133674341977,0.4186226401875727
281,281,14.1,2.22,-6.92,-7.79,-1.01,-1.44,0.17,8.06,-3.64,-14.9,,,,,140,14100000000.0,-2.106632564913955,-5.09352234672084,-0.9015183166978852,-0.5126462931478654,-0.06946729357005099,0.7591251123248367,3.0325034110419042,-1.637195125159089,-8.401407814272645,0.8902845575194092,0.4194005704772895,3.2888101926066606,1.482214631697419,2.7776817613666194,1.371425239118005,1.8765848559375344,1.160355201427837,0.346586072988771
282,282,14.1,6.71,-35.9,-9.78,-0.0272,1.8,-2.69,11.9,-32.0,-17.1,,,,,140,14100000000.0,1.2123837559569075,-22.139107130752937,-4.423599955929669,-0.194738479307818,0.5448147044283287,-1.2781966523745387,6.36156349720854,-19.512186816889,-12.036070529056316,0.9150952605152177,0.7725068342615135,2.441589515622674,1.5283635433005711,2.8683269360308574,1.277386976819306,1.6882643897419722,1.3269032815717234,0.4154074377433418
283,283,14.2,-4.85,-21.8,-5.66,-0.941,-1.48,-3.03,-0.0879,-16.9,-12.7,,,,,140,14200000000.0,-1.069797119527427,-21.95147477201268,-4.914078130334222,-0.6834482856659068,-0.12051240235365135,-2.312948032468072,3.9402879763471415,-17.974357072226773,-12.31349000598737,0.6205529968209093,0.7294359131771508,1.7412379203345854,1.4544144725173898,2.5578287895082608,1.4083460497729718,2.9376436519336355,1.2691382296408271,0.392715268777937
284,284,14.2,-15.2,-21.5,0.977,-2.02,1.49,-2.32,-11.5,-15.4,-5.79,,,,,140,14200000000.0,-6.389103872558148,-21.701668506926726,-2.577095358327536,-1.5587258062436933,0.4086804916936465,-2.31711343390311,-1.856347874206541,-16.458798207159667,-9.587682830802267,0.603632483424196,0.5117827952209492,2.4518396701849534,1.5720453282806344,2.566566036733436,1.357177077199926,2.261628077199629,1.2847599202199722,0.31513738555051823
285,285,14.3,-11.5,-7.87,5.71,-1.34,0.23,-2.93,-7.92,-0.942,-0.263,,,,,140,14300000000.0,-8.313097808220839,-14.048444689332323,0.710384242067521,-1.4154872372914546,0.3499684671211682,-2.6791319791945725,-4.132781046551045,-7.323850343105785,-5.691411484732545,0.8268163114506948,0.34330977307672234,3.1396813982383835,1.4435123830090493,2.886262798245274,1.7207148829048933,1.9762030221664006,0.9076114698563134,0.2883358803656606
286,286,14.3,-6.31,-1.9,2.04,-0.445,0.426,-0.955,-3.42,5.64,-3.52,,,,,140,14300000000.0,-7.559032757875755,-7.326568322083129,1.2378410102156212,-0.7799370583635125,0.3749514142386611,-1.6607254361545989,-3.8651868324979066,0.3081426741562998,-4.78409821877977,0.48759139514201333,0.7239009122286132,2.546993847871918,2.4949155873167506,3.120610281813054,2.024055779641308,1.5998296717807687,1.2703590167241212,0.3748981027170983
287,287,14.4,-10.7,2.89,4.3,0.31,-0.118,1.09,-7.9,10.5,-1.18,,,,,140,14400000000.0,-8.741448015063598,-1.6736216704613538,2.4525954395422174,-0.06616189238980064,0.2129741553375808,-0.0359328895472808,-5.379947648207264,6.308226189948656,-3.2781440652006717,0.9395476803531,0.7843227021534657,2.2214814353947556,2.771386734885638,3.2269771891654413,2.306412124358528,1.6958087024617288,1.2765678789934574,0.49358775634926555
288,288,14.4,1.57,4.57,5.13,0.96,-0.406,2.75,5.08,11.7,-0.573,,,,,140,14400000000.0,-4.859709264146932,1.781047227285963,3.5147182738559555,0.6058483420709065,0.009587508949184698,1.6096558994541788,-1.4530450423007453,9.482435853589806,-2.1478133656435694,1.024721058664716,0.5808447638048186,2.5651802978808433,1.6520739233816701,3.3044259930685493,1.7833906058919489,1.6770718564231453,1.360678045044124,0.4821185697694507
289,289,14.5,0.991,-4.16,-0.6579999999999999,1.74,-0.241,1.93,5.17,2.14,-6.91,,,,,140,14500000000.0,-2.6572130958758478,-1.5062035172328887,1.8594065485617788,1.34857865544281,-0.07275220251624624,1.7988760260926409,1.033396974395576,5.15984515270338,-4.137668794831507,0.7041975008383268,0.20844060524338237,2.746259734933856,1.457802848520163,3.1948212165538994,1.3749325211367636,1.4254212638749775,0.7171183136728294,0.2813834997882787
290,290,14.5,-31.4,-37.9,0.294,2.53,-1.82,4.43,-26.9,-32.6,-6.65,,,,,140,14500000000.0,-13.477418708490038,-21.643317075766724,1.2384118756037736,2.122264794068502,-0.6468745374320939,3.3530225196050787,-9.453436455546381,-17.069882762512645,-5.1874336659529865,0.8725339100318458,0.7363896458401136,2.7562752911551764,1.4736485327528923,2.930149584498495,1.331546204574542,1.7698427929578735,1.358821923182238,0.3170543185310495
291,291,14.6,-8.71,-20.6,-7.1,1.6,-0.48,2.38,-2.94,-17.5,-14.4,,,,,140,14600000000.0,-11.682726665884148,-21.06603776170388,-2.0694248652261384,1.7802453908609284,-0.5920417870402715,2.778279758430535,-7.008144049428345,-17.32309856646253,-9.036857548799336,0.8488109580944384,0.726008999251473,1.9794431205811365,1.3618712138655695,2.6978587040834703,1.1152388282662349,2.5737468557542784,1.171717227614692,0.3865969520095444
292,292,14.6,-4.71,-14.2,-1.9,-0.256,-0.887,2.88,1.22,-12.1,-9.41,,,,,140,14600000000.0,-9.057847699010107,-17.266978759600953,-2.002214239552976,0.4467542629356549,-0.6889611290186688,2.838363717413167,-3.919111317697963,-14.24819040014889,-9.19277316268738,0.43893658472634484,0.5710592543615383,2.0753618357693133,1.5036526510097368,2.696198893918507,1.2576292630104648,2.974928048354154,1.2473464715542482,0.34608718481948997
293,293,14.7,1.08,-7.01,-2.21,-1.04,-1.31,-0.198,6.5,-5.04,-10.1,,,,,140,14700000000.0,-5.241460691767376,-11.591672725549063,-2.084642586452441,-0.5268875020600858,-0.8930261984607933,1.0448509915009732,-0.007539571912037245,-8.827204814038154,-9.571853447281928,0.7439880295701914,0.3123579367677494,3.1509493764761514,1.3275851169585904,2.8395905790878793,1.63388508902825,1.8447522411586108,0.9511108203978048,0.2998988624584384
294,294,14.7,12.0,-2.25,-6.4,-1.13,0.9,-2.8,17.0,0.424,-14.4,,,,,140,14700000000.0,1.249077363744009,-6.4228160852954215,-3.7965391075187895,-0.9218522531614224,-0.3038617167444452,-1.2262172141497074,6.377478231077107,-3.380896089215712,-11.589269797639464,0.6447627081239731,0.629677506566121,2.89417198304702,1.5159409222760187,3.025355840746682,1.7589610603569221,2.1818266749596265,1.2439534255478641,0.330897258297936
295,295,14.8,-0.584,5.24,10.8,0.818,-1.11,-4.3,4.38,9.27,3.41,,,,,140,14800000000.0,0.5590164376387601,0.030356162818808482,1.9938884046090142,0.2175377068349256,-0.5687480073056914,-3.041832667440125,5.627579441668061,4.06685689679283,-5.3219010741042805,0.7897139821801055,0.7781305676314266,2.0286914182285605,3.4087367908061554,3.5237027176574722,2.851828290710348,1.7343968806871752,1.2255631771021396,0.4471396029896376
296,296,14.8,-13.5,-4.73,-1.9,-1.14,-0.618,2.49,-10.3,-0.483,-10.1,,,,,140,14800000000.0,-4.733492291341825,-2.60360451891769,0.4491881199431476,-0.6714830694072514,-0.5849315455177535,0.2256982447435996,-0.3519967975296465,1.3882949277246674,-7.318405596629689,1.0028605057733606,0.677551881375488,2.0939598365462095,1.613829935091921,3.259526911641773,1.927713859372492,1.5359425680657322,1.3453175328179936,0.44509940839420575
297,297,14.9,-0.654,-4.96,16.8,1.2,3.28,2.73,4.61,-1.23,9.37,,,,,140,14900000000.0,-3.1977697362977997,-3.9074256850479054,6.935532903702207,0.5541089584500557,0.6850333921173255,1.7049337782253136,1.5108498893254785,-0.15313053060959425,-0.34524014408934006,0.7828396683733396,0.26730132968442766,2.8602898921775415,1.2356032114668811,3.2882752124797077,1.4408699196730759,1.4623167489036895,0.8677396137463562,0.26915515237785603
298,298,14.9,0.153,-14.4,-6.51,-0.636,-0.551,-0.006640000000000001,5.54,-11.2,-14.1,,,,,140,14900000000.0,-1.9363743789710428,-9.713089407467056,1.6017079897751592,-0.2252665063727384,0.2788893086692409,0.6939450960355515,3.023484614367673,-6.6565710852473785,-6.092596834196378,0.8313773759518135,0.6662595129011679,3.0843115143883906,1.4115566149353398,2.833884962707953,1.4082131266749152,1.7878043315670453,1.4712839286349517,0.24630959396427604
299,299,15.0,6.39,-21.1,-5.28,0.0632,1.89,-3.44,11.8,-17.5,-12.6,,,,,140,15000000000.0,1.1980844624640694,-16.013600261265072,-1.1282563993914776,-0.036356308067763465,0.8082787846590267,-1.7478846494219835,6.31838849898736,-13.040243560831952,-8.811682348388569,0.8918515290959148,0.7642490620852855,2.1894381416030586,1.3180269395445683,2.6871121221738314,1.114713325787215,1.9461492741658408,1.2377180700962336,0.3868195293540225
300,300,15.0,-9.8,-22.3,-7.03,-1.13,-2.28,-2.49,-5.03,-17.6,-14.2,,,,,140,15000000000.0,-2.942138239978324,-19.491938246758387,-3.469470233101801,-0.7525588599710693,-0.20648841643316573,-2.1862357386864053,2.0579448507733185,-15.724633742212912,-11.063163426410437,0.40063587342696977,0.6911947172569297,1.6870940831510428,1.5187342814440947,2.6043966139192785,1.4690551585147065,3.517735165503797,1.2934082760019032,0.3684025134419297
301,301,15.1,-14.9,-18.3,4.07,-1.45,1.34,-2.68,-10.8,-12.5,-2.74,,,,,140,15100000000.0,-7.443668343925992,-18.832424469509046,-0.478572461611733,-1.2092973428106144,0.3016670577652566,-2.4778913796857758,-2.7692206338492182,-13.826248478119956,-7.585371874884733,0.6926988713769486,0.4194828506218404,2.8791353260563914,1.370958756215144,2.7834554443075983,1.457212152537777,2.048450681761123,1.1611576812259017,0.34385172096023126
302,302,15.1,-9.76,-7.23,4.37,-1.54,-0.197,-2.85,-6.21,-0.376,-1.68,,,,,140,15100000000.0,-8.315650162478004,-12.412667491761766,1.444849668794132,-1.4258670194422272,0.13781171590241836,-2.697687635095151,-4.0609676064026194,-5.907906249222362,-5.117842214722983,0.7769894736016402,0.5582275707128544,3.070926279571549,1.209375391874107,3.0399408254393614,1.6780622689568652,2.148091758307172,1.3452376314581784,0.31376912761481346
303,303,15.2,-6.44,-2.0,2.29,-0.774,-0.128,-1.03,-3.58,5.52,-3.31,,,,,140,15200000000.0,-7.609562748851213,-6.65121693694342,1.7801196536046138,-0.9989740229749527,0.050469530031098116,-1.712621507606499,-3.880401381423685,0.8198558847379296,-4.3624445053484955,0.5791828768820432,0.7483602096351839,2.1357602979964074,3.4289184080097157,3.404360561775551,2.371457956783875,1.6084483715165196,1.2357177879298198,0.4076123729252133
304,304,15.2,-8.15,2.33,2.7,0.49,-0.7759999999999999,1.03,-5.55,9.99,-2.85,,,,,140,15200000000.0,-7.813009900572427,-1.6818047372672122,2.145034969002687,-0.02387855603348954,-0.22109733981870489,-0.09261580853014027,-4.507206809464966,6.218442953906827,-3.730477212256917,0.930762927507903,0.7435410293885844,1.9148764939926237,2.085899456600212,3.42591206624906,2.2166483843660982,1.5691264199225354,1.3044988031755853,0.4729800214335993
305,305,15.3,4.2,2.13,5.15,1.47,0.481,2.04,7.34,9.31,-0.755,,,,,140,15300000000.0,-3.290719238728516,0.42731141333573897,3.3371005939531697,0.9544287913349592,0.00960248198885308,1.1670730433289354,-0.05949542543081776,8.038484423786317,-2.487189172741929,0.9058229628046788,0.4426676842933834,2.6091006696272423,1.3792022423522354,3.335100588347695,1.6153947740227277,1.7274853518984725,1.2225294872758021,0.38857773002222606
306,306,15.3,-1.56,-5.21,-1.96,1.89,0.153,1.86,2.36,1.09,-8.37,,,,,140,15300000000.0,-2.639190945703524,-2.691878862885555,1.2357478960371688,1.5671132376059915,0.05672099252079786,1.576369641719156,0.8488382362661854,3.947818187230209,-4.945291744029082,0.7901811594639906,0.4030691788741349,3.3617534943512677,1.372175204458838,3.0440631391969863,1.316099553118918,1.9921702197319138,1.1403603640844078,0.2773560991639643
307,307,15.4,-31.9,-55.8,-4.33,2.84,0.701,6.92,-27.5,-50.9,-11.6,,,,,140,15400000000.0,-13.654405701649564,-32.07722222828479,-0.9721767799757476,2.4006979752480357,0.2684224714432862,4.732733662078677,-9.793961450735779,-28.341831129513373,-7.7259279418281785,0.8186323454464545,0.7677619173871604,2.498755211968949,1.4594040319644057,2.8234218903854003,1.2538493222642575,1.6763548374302444,1.2899304096649902,0.3572243579686562
308,308,15.4,-7.88,-18.7,-7.73,0.863,-1.26,1.98,-2.43,-15.8,-15.3,,,,,140,15400000000.0,-11.480634007837615,-24.67544933056965,-3.6529961719017376,1.3936942826630223,-0.2337967601327232,3.106754931926064,-7.029362589247329,-20.95828653428033,-10.890715554251035,0.5975251113755654,0.7220843168249536,1.706588739125943,1.41601132898235,2.500566917371454,1.332050418920009,3.0616335420420944,1.2253159848211965,0.36808891762507295
309,309,15.5,-2.32,-11.2,-1.64,-0.268,-1.16,2.11,3.29,-8.97,-9.38,,,,,140,15500000000.0,-8.03211852897437,-17.21932570207851,-2.854443291643672,0.3054882202352707,-0.5381347780821225,2.5179938314190373,-3.155238802812547,-13.900621133849384,-10.259470782259696,0.5648689947407775,0.5133779682035203,2.425997892282764,1.4720695990181423,2.603120173583364,1.4039124686515483,2.5161699930112538,1.2890160730090559,0.3280778902601631
310,310,15.5,1.52,-6.71,-3.45,-1.37,-1.51,-0.445,6.58,-4.51,-11.6,,,,,140,15500000000.0,-4.436228957456223,-11.404393051522849,-3.0906998559390484,-0.7917511791375433,-0.8574767220291313,0.7678190740199755,0.4995915929859955,-8.372236277825449,-10.819604265311495,0.7436093331758671,0.32756979607009223,3.11456248045425,1.216432624988228,3.0313532253134627,1.6004189552303851,1.8764752348783802,0.9182414658409396,0.2634813898345937
311,311,15.6,10.1,-1.6,-3.7,-1.62,2.37,-3.85,14.9,1.62,-11.6,,,,,140,15600000000.0,1.035926296361116,-5.979507863007878,-3.332408422698101,-1.3341526298934463,0.2030290361567293,-1.9598242117964508,5.9058328205682775,-2.4896723556376594,-11.14568881798486,0.4949219914686555,0.6907424751384574,2.471747191594665,2.22296798556442,3.355965203228053,1.8964399094015851,1.5752730757235427,1.2198026845873142,0.3473783741115597
312,312,15.6,-6.48,7.88,9.7,1.24,-5.11,-3.56,-2.37,12.3,1.96,,,,,140,15600000000.0,-1.7934398835032648,1.6891197955011048,1.8375303986682288,0.351601799073779,-1.5427614723161276,-2.9050125374800224,2.798896691461718,6.217206833540017,-5.669543307207428,0.8418673079812887,0.7710525849928307,2.0102097243422654,2.787687355788614,3.7465393945365832,2.5750081833309975,1.5544304785492848,1.2319969793177468,0.4739647793411381
313,313,15.7,-7.77,-5.42,4.02,-0.0559,4.78,2.69,-4.8,-0.952,-4.19,,,,,140,15700000000.0,-4.043312527524591,-2.244439272050921,2.70331314725456,0.08473807384686928,0.5348136697514687,0.3998373512971796,-0.05390230810863672,1.9965983124844755,-5.05132367637693,0.98661530473456,0.590609181716846,2.482333764147623,1.4907777958295407,3.573844741238878,1.7402368136451372,1.6353264196312631,1.3558326895403567,0.4705609117846353
314,314,15.7,5.92,-3.24,9.97,0.835,1.42,1.47,11.2,0.628,2.69,,,,,140,15700000000.0,-0.2926291735951647,-2.79529465736704,5.585998156392289,0.5760676513367731,0.8256740752388075,1.0319587174655924,4.171068921192491,1.1908860869247642,-1.8166508807245536,0.6510052278942928,0.20729266212144706,3.1824348371855264,1.3264022997113076,3.2869163592209736,1.2718988656268448,1.2824872709796051,0.7200992637480548,0.2846222776703425
315,315,15.8,-3.06,-24.8,-6.11,-0.905,-1.58,0.845,2.2,-21.1,-13.5,,,,,140,15800000000.0,-1.3344043231726916,-14.970754740923267,0.9462113620130124,-0.3938500863945447,0.03520165210089954,0.9215263651497432,3.4310847632807886,-11.932058649778648,-6.698478958035513,0.820866614152356,0.6988483222669901,2.717562507698103,1.5055689346715844,2.9932839636328357,1.3092660263161704,1.6663735289239752,1.3199552240738108,0.30329674063407136
316,316,15.8,3.27,-15.1,-5.27,0.262,2.44,-3.42,8.81,-11.3,-12.4,,,,,140,15800000000.0,0.39892105412472745,-15.04226786357156,-1.5197513189948328,0.0356513198930119,0.8253863276177962,-1.6429170448112582,5.450452237409836,-11.559957332042453,-9.080830401925086,0.8226616062884878,0.7172395285458176,1.7910034433699162,1.205439789302323,2.731994341704225,1.1030059883693015,2.3445355855272902,1.1480495335803216,0.39183134437302225
317,317,15.9,-7.24,-25.8,-9.24,-1.48,-1.74,-2.76,-2.5,-20.9,-16.3,,,,,140,15900000000.0,-2.476746338890976,-20.994646294882454,-4.582363498786341,-0.9569145125661128,-0.01756540009642626,-2.302753173185613,2.465671348731905,-17.058565874948044,-12.097323425836208,0.4210092391389693,0.5679867575282898,1.9258709500408924,1.4991995771565412,2.8014896443078148,1.2629622307548656,3.282006745115145,1.2023034071485836,0.3723541204173957
318,318,15.9,-16.5,-13.0,5.65,-2.1,2.12,-2.72,-12.7,-6.8,-0.954,,,,,140,15900000000.0,-7.755792191019842,-16.571115113495072,-0.5231986201104997,-1.7054953204199603,0.6848100372982541,-2.5492116396149447,-3.2278670921846166,-11.01921025117559,-7.441142339569013,0.717671450775796,0.3101475092601164,3.1024357337289326,1.2477056389125118,2.9270453281872797,1.5009405127593791,1.8072541809009433,0.9163273875050795,0.31777862789158456
319,319,16.0,-8.38,-8.09,5.68,-1.15,-0.326,-1.8,-4.91,-0.921,-0.0471,,,,,140,16000000000.0,-7.990774908200573,-11.878415136696965,1.9376018631510168,-1.3417139647551621,0.3526713417686712,-2.1066689072205937,-3.8593780490579186,-5.074258030292749,-4.3515793102340465,0.6406403162924692,0.6142081456328428,3.0891764337331717,1.426721797469313,3.2674037569510785,1.6312616482319793,2.1086295724231583,1.2459179571382493,0.3470639070729383
320,320,16.0,-6.53,-1.23,1.38,0.0461,-0.191,-0.111,-3.38,6.28,-4.09,,,,,140,16000000000.0,-7.440867105147082,-5.986522666692845,1.7164019519364064,-0.4328659404240306,0.17402819164592204,-0.9278715319325505,-3.679408651724004,1.6101465411616018,-4.242279788050843,0.7303065599035427,0.7463585848866741,2.0062654461161284,3.1630148958868687,3.8300113129712865,3.1687578700526426,1.6650413677399496,1.1688343066064488,0.446347037413294
321,321,16.1,-4.71,3.37,3.3,0.62,-0.16699999999999998,1.5,-3.28,6.12,-4.25,,,,,140,16100000000.0,-6.4128337534618405,-0.8094494438618884,2.34461314927462,0.2566321891856179,0.06197087865325782,0.5062183519530747,-3.529461534222412,4.265157874743071,-4.245505639394617,0.9126237705725857,0.6720471423896766,1.9851621960283936,1.590503292847564,3.3852352589187755,1.9363862953095998,1.4151174919958738,1.298214246844307,0.44931245131707265
322,322,16.1,4.07,1.79,2.18,1.47,-0.139,1.95,8.02,8.53,-3.76,,,,,140,16100000000.0,-2.4665768940818187,0.6288562768026305,2.279311360789793,1.0512393845573762,-0.004065470617651903,1.3590281885338626,0.8064696051391627,6.775927650348956,-4.042639570389125,0.7373753409620136,0.27777339271819845,2.855726703513269,1.1932841732580364,3.415614789352203,1.3996980711644724,1.50100270341593,0.8899949647068,0.2694381968751952
323,323,16.2,-3.42,-4.07,-1.97,1.48,-0.385,1.72,1.02,1.8,-8.45,,,,,140,16200000000.0,-2.825492507891117,-1.9710758840421825,0.5936152465249742,1.3320250409830672,-0.12923547210990546,1.5722462511094566,0.8866337726318461,3.8465320748208307,-5.884232656524959,0.7470037932054524,0.6376135356997747,3.195962208440949,1.3540491935494596,2.9259594437218253,1.306254163872357,1.7456036389786975,1.409618304852903,0.2420435995750954
324,324,16.2,-24.8,-62.6,-3.14,2.26,1.87,7.27,-19.9,-58.1,-10.4,,,,,140,16200000000.0,-11.097783047918728,-35.51776696690007,-0.8875049429164101,1.9397348780357548,0.5276866354629279,4.9377830504549145,-6.917141941403292,-32.62222380785293,-7.771122941207121,0.7958830167414355,0.7490393777561587,2.0651006420777795,1.2755162720792645,2.6980791416328107,1.1656783014237213,1.7491850142833232,1.1798387152660903,0.39621933553585026
325,325,16.3,-10.1,-17.7,-5.14,0.0541,-1.16,2.19,-4.09,-14.9,-12.4,,,,,140,16300000000.0,-10.722168331538628,-25.65898879476969,-2.5744639609053417,0.7048751811249461,-0.02686466796573339,3.314728559357578,-5.855768508942036,-22.18891201571314,-9.705275545830084,0.35344453168204965,0.6882203072089206,1.6881239702884805,1.4147599141867597,2.6367009594255895,1.4360414266814934,3.618616587339318,1.2596942412747478,0.3938036504277109
326,326,16.3,-1.57,-9.88,-2.45,-0.769,-1.51,1.34,4.36,-7.71,-9.95,,,,,140,16300000000.0,-7.276839796571783,-16.928290041671303,-2.5250892938928797,-0.2603323849758894,-0.5142031496698111,2.1483002021402418,-2.0205362357785224,-13.664981753962573,-9.807532336091144,0.6203680409367833,0.44007103617906856,2.8296585562589205,1.2517844699315337,2.8320397175980094,1.385730363962658,1.9174413405745747,1.215875909430883,0.35706779926587695
327,327,16.4,4.2,-5.99,-3.36,-0.885,-1.29,-1.32,9.57,-3.53,-11.2,,,,,140,16400000000.0,-2.9563900649400865,-10.87600626348453,-2.8562972067130854,-0.6694130923327691,-0.7691196328964205,0.09965213984771903,2.3308149958425664,-7.698381635623801,-10.389367795930989,0.7091204738765312,0.5457189116569803,3.16723232053194,1.1167052500546333,3.1611001755503785,1.5347000064528824,1.903531907874419,1.3203712321212577,0.31920961887719645
328,328,16.4,7.31,0.486,2.66,-0.977,1.65,-3.86,12.3,3.99,-4.98,,,,,140,16400000000.0,0.9083866050344778,-4.589275476139614,-0.6679894883456825,-0.8708448103803142,0.025770799186307317,-2.2392265249964893,6.073474225388432,-0.8172741207467586,-8.129090950313469,0.5691381129568519,0.7395825994996839,2.0465372418920795,3.2814605605672535,3.545220741583487,2.1321984619443746,1.5826337117222238,1.199672980519952,0.40207865388297037
329,329,16.5,-12.9,8.85,1.28,1.05,-3.02,-1.57,-8.76,13.1,-6.53,,,,,140,16500000000.0,-4.289772522633902,2.8468328416800537,0.10477531093360004,0.3870730444020128,-0.9750288480766988,-1.8439292855496987,0.504649994803235,7.376012603721173,-7.460919007879039,0.8674707845776063,0.7534454557195569,1.8376785425133615,1.9680521152679658,3.6621578869273343,2.3178355671247246,1.463047562848585,1.2658704938695784,0.4798082206611813
330,330,16.5,-6.63,-5.02,1.42,0.358,3.71,2.83,-2.52,-0.917,-6.49,,,,,140,16500000000.0,-5.170749866417422,-1.5059776524924766,0.62652315952212,0.3680337709218085,0.5644091448821683,0.916857069425128,-0.6308725104472976,2.493804522970104,-7.055225337131784,0.8531526763895706,0.48412365335483515,2.460639074875872,1.245167101826026,3.3139257841670355,1.5495798279679962,1.5719998515374418,1.2446758112823648,0.3803767845970237
331,331,16.6,-0.0622,-5.97,-7.07,-0.141,0.0684,0.6409999999999999,5.64,-2.86,-14.4,,,,,140,16600000000.0,-3.2476391788714425,-3.9759732460631607,-2.42667729669495,0.034679048632945915,0.4014271577082994,0.7539143986800354,1.7233558362040229,-0.6580521611063141,-10.124201958680024,0.699033419414326,0.38972677967772007,3.465852809921728,1.289975676831897,2.9606308159047923,1.2234502272081706,1.738724730921889,1.0417629892660898,0.23675531367792974
332,332,16.6,2.18,-41.6,-6.1,-0.631,-0.0238,-0.0671,7.77,-38.4,-13.5,,,,,140,16600000000.0,-1.2044074768056785,-24.793785895530338,-3.8838794358669264,-0.4012591150846325,0.261703186105238,0.26895939467483543,3.9934037963542486,-22.87724548352613,-11.534762020970554,0.7614491072673396,0.7493471658181861,2.3860457791451726,1.3811673183574076,2.695671584703119,1.2061517323189301,1.465294760105815,1.2361221202146984,0.33908666431040274
333,333,16.7,-1.52,-14.6,-0.737,-0.655,-1.32,-3.69,4.03,-10.7,-7.84,,,,,140,16700000000.0,-1.3232120951990891,-19.15344529576086,-2.635516590624607,-0.5674282714020323,-0.2580233979039137,-2.069510176718512,4.00714292366552,-15.708337138173215,-9.990924543899,0.5656408101401847,0.7216259646397468,1.5967772423798843,1.3704151171383836,2.414487766624397,1.2537468714133744,2.607198507126814,1.1899442541601892,0.36480990124159474
334,334,16.7,-8.44,-23.2,-6.0,-2.18,-0.597,-2.65,-4.29,-18.1,-13.3,,,,,140,16700000000.0,-4.002322689792239,-21.39245170405391,-3.970202635012927,-1.6234651219010563,-0.3694065882892781,-2.412392701219044,0.8922064677496473,-17.116341463846204,-11.373604992608476,0.5027290227941461,0.5289033732051355,2.3063775235887674,1.4005136837940078,2.3753477136700765,1.3386512253378946,2.4657915811393183,1.2677851551010046,0.3353039932999845
335,335,16.8,-12.2,-11.7,7.35,-1.31,1.88,-3.49,-8.68,-5.34,0.774,,,,,140,16800000000.0,-7.088333571465378,-16.029504851966095,0.5205064905579984,-1.418183855383749,0.3697184076027037,-3.0489114458618154,-2.701418018649297,-10.183450910241806,-6.2977899616581485,0.6826526519640841,0.34050851996960024,3.262350391078013,1.2239838232455003,2.777269270335967,1.446090697234803,1.6470161977348352,0.9575938192325215,0.28975468280387484
336,336,16.8,-7.98,-6.06,3.21,-0.415,1.09,-1.21,-4.99,1.02,-2.89,,,,,140,16800000000.0,-7.424000897713814,-10.513261330722266,1.587424964412456,-0.7612213989060529,0.6063933411575658,-1.962707249107391,-3.56060374456362,-3.5878286538712287,-4.873862281809037,0.4711673111023902,0.6936790825460013,2.700986523525008,2.07545673844389,3.1300102684709867,1.7182641676547383,1.6244692815911272,1.2220326430498498,0.3698263782393959
337,337,16.9,-7.88,1.35,3.84,-0.14400000000000002,-0.257,0.35100000000000003,-5.0,8.61,-2.1,,,,,140,16900000000.0,-7.5956615430826755,-3.9491802470532704,2.4810184180170736,-0.35701704001483364,0.3226938072970811,-0.5960516693928228,-4.100985889650346,3.5931969663563,-3.7148179789082962,0.7906237668152806,0.7572443571401076,2.0686846437378015,2.758716977604421,3.652913791920409,2.7155789179218517,1.557641771974166,1.1862464115561426,0.4705443734785133
338,338,16.9,-4.74,4.67,3.77,0.474,-0.7040000000000001,2.18,-1.52,11.7,-2.26,,,,,140,16900000000.0,-6.5206492958051046,0.8199129075410809,2.992355670771861,0.1871972563517869,-0.014664080263394719,1.0437005413787963,-3.132024982237146,8.365780858418319,-3.1069296730071465,0.8823789383381505,0.6186634852292358,2.4090966952776784,1.5016577680286987,3.2824721333502156,1.6964950644354142,1.4516908932235335,1.3445300304986778,0.44597825790989726
339,339,17.0,2.07,-1.39,1.89,1.77,0.415,2.13,5.95,4.92,-4.54,,,,,140,17000000000.0,-3.286704287346001,-0.4028577105457869,2.5550526528034925,1.2237390147006115,0.12651780197987048,1.6853536140838563,0.2775740215305436,6.337203356903203,-3.705730813110525,0.5865926806782592,0.23468492214001369,3.3427237968479515,1.2396750880050367,3.0845975454155554,1.2880273036492589,1.2428961283651714,0.79282949775865,0.2975145215370283
340,340,17.0,-16.5,-15.9,0.474,1.59,-1.27,2.49,-11.9,-10.6,-6.42,,,,,140,17000000000.0,-8.260841931185912,-8.977607352219895,1.7295018665026758,1.4635950842035998,-0.33235931170675226,2.160640399503471,-4.294164539490385,-3.633956335112544,-4.839874436066191,0.7156663519587972,0.699872588331621,2.8914142735676034,1.3828251056622318,2.7581669376793103,1.1982830024246485,1.4947602287931798,1.2997601446586784,0.3090059462848754
341,341,17.1,-4.44,-37.4,-1.68,2.29,2.06,3.65,1.03,-34.0,-9.09,,,,,140,17100000000.0,-6.822488184342082,-24.70405005392448,0.3769570815144838,2.0047889750701557,0.453738024852364,3.0403721502214966,-2.2953518926478425,-21.510854746113353,-6.615767875797943,0.7229985675173553,0.7161458028145543,1.8541203680208829,1.2143669303607825,2.5629261818107114,1.031817624844003,2.012708568258494,1.100479302462943,0.3817485914973607
342,342,17.1,-7.59,-13.4,-2.54,-0.204,0.6759999999999999,2.62,-1.52,-11.2,-9.93,,,,,140,17100000000.0,-7.111417627561387,-18.449386904042484,-0.7801958552525896,0.5583029610270751,0.5267703445612872,2.7920675738510172,-2.004267121744335,-15.440715735882664,-8.00060305989579,0.34583294223323113,0.6074275384680002,1.9544783102255245,1.4586359898186119,2.544895693693402,1.3052124004161905,3.272429959548658,1.2329611171323507,0.35274493140229635
343,343,17.2,-2.41,-8.71,-2.0,-1.29,-2.01,0.16,3.57,-6.9,-9.56,,,,,140,17200000000.0,-5.341571672222907,-13.060470384188244,-1.2640905192431136,-0.6521088811424339,-0.30677854659518355,1.2373636132640722,0.08843971772635406,-10.412681542568127,-8.652189324814511,0.6375946260388778,0.3258099538422236,3.0580318919980938,1.1758378461180532,2.6935804632893103,1.4301837061915692,1.6090155122598255,0.9640062406565291,0.29995903847398814
344,344,17.2,6.09,-4.17,-5.09,-1.14,-0.496,-2.29,11.3,-1.63,-13.0,,,,,140,17200000000.0,-1.0381629709708982,-8.141269312172916,-2.7818237262153227,-0.9716177469939422,-0.368954189275164,-0.8461718429285077,4.297514929150414,-5.242198764811512,-10.468899928277944,0.5867789385557616,0.6374296910470536,3.1192227714582246,1.2825026040512464,3.0102292098197765,1.4284370475382762,1.7850933450308624,1.280281301451442,0.29143307556202513
345,345,17.3,5.16,3.03,7.38,-0.0907,0.501,-4.19,10.3,6.85,-0.0618,,,,,140,17300000000.0,1.2951318911158012,-1.9600755246319728,1.2493581271005487,-0.3947246094543696,-0.08309885224142644,-2.821297030771702,6.55098463858987,1.8766412646932704,-6.120346091714429,0.6975947553062648,0.757175925914615,1.8473936682975045,3.0682224828811098,3.2449114636195726,2.7954422489084405,1.6220418967461772,1.1511009624003246,0.39332616422439454
346,346,17.3,-14.1,2.11,-6.27,-0.481,-2.09,0.42,-10.5,6.5,-14.3,,,,,140,17300000000.0,-4.500356882788368,0.2919447481459581,-1.7335611233186503,-0.4512244183410572,-0.7425397688013984,-0.9067347474893692,0.14965656785052414,4.5984747488577575,-9.538173003811877,0.8648890257690905,0.6981440272426443,1.9889685835488766,1.4306468728576185,2.970750850052037,1.8899744183789506,1.3284972580421406,1.277733825737088,0.4328719477502708
347,347,17.4,-4.76,-4.84,3.52,0.6829999999999999,4.07,3.26,-0.0816,-0.653,-4.01,,,,,140,17400000000.0,-4.598099472514809,-2.5476203122982755,0.3505195024434609,0.29155355635994784,0.8387966555620481,1.5544630786477882,0.06283758293263386,1.5068609193395477,-7.228254093286915,0.6999592035369595,0.31737753322994655,3.104468073787569,1.0681824097030033,3.2509342115109146,1.351726891822161,1.4267246211349913,0.9310573255959604,0.34618334233656234
348,348,17.4,0.354,-8.94,-5.02,-0.976,-1.23,0.365,5.92,-5.71,-12.4,,,,,140,17400000000.0,-2.7338844463302934,-6.084598431483989,-1.779958355047352,-0.5385386484861614,0.1590176663639742,0.8518736161361914,2.261749814592246,-2.7418022126471158,-9.389241688204057,0.696493343299007,0.6203231780220043,3.110144425455375,1.2410584607262856,2.9649774283734933,1.2167712649943214,1.7087425000079066,1.3730523766641984,0.2717809939953458
349,349,17.5,6.88,-29.4,-7.01,0.375,1.31,-1.89,12.3,-25.8,-14.4,,,,,140,17500000000.0,0.8852569198518614,-18.985282258293875,-3.8547089337310867,0.0597171810745798,0.5372150881016673,-0.7676903284803923,6.030337686549048,-16.3164729960828,-11.482961434412589,0.7473531686266874,0.7360625332774279,2.1367533459109143,1.2120072451167136,2.599232000990079,1.0680323236423317,1.599595485025567,1.132998682296798,0.36972971519149816
