,Unnamed: 0,Time (s),Acceleration x (m/s^2),Acceleration y (m/s^2),Acceleration z (m/s^2),Gyroscope x (rad/s),Gyroscope y (rad/s),Gyroscope z (rad/s),Linear Acceleration x (m/s^2),Linear Acceleration y (m/s^2),Linear Acceleration z (m/s^2),Still,Walk,Run,Cycle,SPM/RPM,Timestamps,Acceleration x (m/s^2)_kalman,Acceleration y (m/s^2)_kalman,Acceleration z (m/s^2)_kalman,Gyroscope x (rad/s)_kalman,Gyroscope y (rad/s)_kalman,Gyroscope z (rad/s)_kalman,Linear Acceleration x (m/s^2)_kalman,Linear Acceleration y (m/s^2)_kalman,Linear Acceleration z (m/s^2)_kalman,Acceleration x (m/s^2)_kalman_max_freq,Acceleration y (m/s^2)_kalman_max_freq,Acceleration z (m/s^2)_kalman_max_freq,Gyroscope x (rad/s)_kalman_max_freq,Gyroscope y (rad/s)_kalman_max_freq,Gyroscope z (rad/s)_kalman_max_freq,Linear Acceleration x (m/s^2)_kalman_max_freq,Linear Acceleration y (m/s^2)_kalman_max_freq,Linear Acceleration z (m/s^2)_kalman_max_freq
0,0,0.0453,0.402,4.69,7.8,-0.0589,0.0586,0.266,2.59,-0.368,-0.314,0.0,0.0,0.0,1.0,90.0,45300000.0,0.33448926859812045,3.031464881810142,7.238333273726663,-0.2922405258367045,0.12475584690136682,0.28107652193465155,2.1243239795341347,-0.7377036842769398,-0.010955580753236306,,,,,,,,,
1,1,0.0953,0.828,3.71,10.1,-1.63,-0.00733,0.264,2.81,-0.84,1.63,0.0,0.0,0.0,1.0,90.0,95300000.0,0.6218045123467414,3.4952814876612037,8.512524936616096,-1.443591796856475,0.025896394103732845,0.2676843638473799,2.507905574573474,-0.7796295859278028,1.2273721851755548,,,,,,,,,
2,2,0.145,0.596,1.35,8.24,-1.67,1.03,0.377,2.67,-2.55,-0.515,0.0,0.0,0.0,1.0,90.0,145000000.0,0.6048930693794726,1.916100078350527,8.365179692303744,-1.6409276393498233,0.8067743175242856,0.3557244820242035,2.6111788528480866,-1.692519232150664,-0.1464326652520067,,,,,,,,,
3,3,0.195,-2.59,-2.28,6.59,-2.08,2.42,1.6,-0.117,-5.44,-2.36,0.0,0.0,0.0,1.0,90.0,195000000.0,-1.5160242158270791,-1.1878750129243416,7.3711667992218945,-2.0236991813612404,2.0636745413322632,1.3588251704955554,0.8458601999127184,-3.713384165702609,-1.8950867468873005,,,,,,,,,
4,4,0.245,0.498,-0.232,14.5,-1.95,1.44,1.38,0.845,-4.65,-2.29,0.0,0.0,0.0,1.0,90.0,245000000.0,-0.1770980918408005,-0.4805534118872985,11.38935812686379,-1.9594500181676708,1.5777121487625976,1.3758963653366263,0.8453025477078219,-4.223107174847607,-2.2070829378940733,,,,,,,,,
5,5,0.295,-4.21,-0.91,10.2,0.0742,-0.00855,1.18,-0.7859999999999999,-3.17,1.34,0.0,0.0,0.0,1.0,90.0,295000000.0,-2.8586097007813485,-0.7983393581157994,10.718135068956453,-0.1865618921876533,0.34170338727822736,1.2179639799034692,-0.21252598960374086,-3.648905353300548,0.5952554674841317,,,,,,,,,
6,6,0.345,-2.16,0.165,8.39,-0.92,1.31,1.95,1.35,-2.23,-0.447,0.0,0.0,0.0,1.0,90.0,345000000.0,-2.3940896698797434,-0.08547735544800916,9.403924317273251,-0.8259559539174856,1.096196131505723,1.80813407984506,0.8007334439839894,-2.8749523075963936,-0.22816846026048565,,,,,,,,,
7,7,0.395,0.242,7.54,12.5,-0.838,0.377,1.95,3.93,5.33,3.72,0.0,0.0,0.0,1.0,90.0,395000000.0,-0.6412953778319546,5.557304187222184,11.151709128602462,-0.8364556688659308,0.5358014234921787,1.9225069314946623,2.829992669341145,1.6008633257767362,2.8910441886152314,,,,,,,,,
8,8,0.445,2.98,4.48,11.8,-0.0357,0.639,2.03,6.67,2.1,2.99,0.0,0.0,0.0,1.0,90.0,445000000.0,1.7665845312020432,4.76010922291386,11.517683035118965,-0.1383757600812716,0.6162133350274477,2.0091682054668585,5.320152460065384,1.873147717529157,2.9692232859020184,,,,,,,,,
9,9,0.495,1.51,-1.74,10.9,-0.139,-0.511,0.387,5.17,-4.36,2.23,0.0,0.0,0.0,1.0,90.0,495000000.0,1.5959757548547056,-0.04991054976066423,11.168987224059578,-0.13891995647513433,-0.26210671066896296,0.7013703806427123,5.222781958018499,-1.5271133910064514,2.3852070334302184,,,,,,,,,
10,10,0.545,-5.18,0.0215,6.23,0.17600000000000002,0.157,0.792,-1.86,-2.66,-2.6,0.0,0.0,0.0,1.0,90.0,545000000.0,-2.9095213526803154,0.002932586803019707,8.380819968813167,0.1356198346225158,0.06445954414178072,0.7744363010864411,0.6297543690416498,-2.1451178715724586,-1.5533078975953043,,,,,,,,,
11,11,0.595,-1.05,0.469,6.63,-1.35,2.42,1.77,2.68,-2.28,-2.01,0.0,0.0,0.0,1.0,90.0,595000000.0,-1.6730841503048233,0.34781810318073725,7.3924434720807275,-1.1595085255919777,1.8998871820931025,1.5770633074472826,1.9592933974178193,-2.218697828530189,-1.9141131056817575,,,,,,,,,
12,12,0.645,-3.62,-0.232,10.3,-1.88,3.79,-0.0708,1.23,-2.47,2.1,0.0,0.0,0.0,1.0,90.0,645000000.0,-2.967631792819033,-0.08124184167598086,9.033823507886627,-1.78761599891794,3.3726554013038057,0.2485500046024096,1.4863627575311305,-2.3557864833604425,1.2571983809564962,,,,,,,,,
13,13,0.695,-6.0,0.0,3.26,-1.83,1.69,0.066,0.317,-1.66,-4.06,0.0,0.0,0.0,1.0,90.0,695000000.0,-4.9839209638264785,-0.02112364198599706,5.774372501912726,-1.8245654090169392,2.061537175350236,0.1013775364226056,0.7280568509943762,-1.9762257863414008,-2.943603160372641,,,,,,,,,
14,14,0.745,-4.99,-2.88,13.3,-3.02,-0.0202,0.619,1.4,-3.67,5.89,0.0,0.0,0.0,1.0,90.0,745000000.0,-4.987962898208275,-2.1366653765704684,10.022755687959762,-2.8667170792708068,0.4394560041748514,0.5186866357197145,1.1637971190291314,-2.9002019420308502,4.035300192745543,,,,,,,,,
15,15,0.795,-2.76,-2.65,13.9,-1.07,1.97,0.417,3.93,-2.81,6.72,0.0,0.0,0.0,1.0,90.0,795000000.0,-3.5065407299977047,-2.5165282464389334,12.211545594287571,-1.3003815436658277,1.6320497062171107,0.4367065021412857,2.9576186029352707,-2.8509955648763814,6.156321362223589,,,,,,,,,
16,16,0.845,-3.72,-5.12,10.3,1.02,-0.204,1.23,3.47,-5.4,3.6,0.0,0.0,0.0,1.0,90.0,845000000.0,-3.648474572736287,-4.443072803516701,11.132435958741016,0.7224723525681882,0.20140721781861104,1.0762625783161803,3.2898866348542986,-4.241511067235145,4.136724110933587,,,,,,,,,
17,17,0.895,-0.16,-7.73,5.08,1.03,1.86,1.82,6.93,-9.11,-1.55,0.0,0.0,0.0,1.0,90.0,895000000.0,-1.3289101165133514,-6.87536806707554,7.715702026178187,0.9905676788495412,1.4937760041866892,1.6758663952010733,5.650419601419714,-6.8973356355221425,-0.3560176969793636,,,,,,,,,
18,18,0.945,-3.52,-6.74,1.23,-1.49,0.6990000000000001,-2.78,4.14,-8.15,-4.72,0.0,0.0,0.0,1.0,90.0,945000000.0,-2.785814576816268,-6.775196799657505,4.054379874915036,-1.1719327376308752,0.8744897629172329,-1.916469037460836,4.670945780648173,-7.580680316477901,-3.8037398971582936,,,,,,,,,
19,19,0.995,-8.03,-5.86,2.53,-0.7190000000000001,1.13,-1.89,0.00799,-5.86,-3.09,0.0,0.0,0.0,1.0,90.0,995000000.0,-6.272790108375647,-6.097959863667843,3.1938337225318305,-0.7770766417725642,1.0735823006035727,-1.8951295930733831,1.6471219990303254,-6.642026641905839,-3.239856468687328,,,,,,,,,
20,20,1.05,-9.68,-2.65,2.48,0.201,1.56,-2.86,-1.3,-1.58,-2.51,0.0,0.0,0.0,1.0,90.0,1050000000.0,-8.538320068388124,-3.5465020237479195,2.790858817436356,0.07558751486896652,1.4525969564121866,-2.6730114882457325,-0.2640214607650089,-3.8806245434978655,-2.6632403577203645,,,,,,,,,
21,21,1.1,-13.7,-2.35,2.09,-1.01,0.527,-2.07,-5.39,-0.17600000000000002,-2.61,0.0,0.0,0.0,1.0,90.0,1100000000.0,-11.970435911410847,-2.6611016950188864,2.395208473860448,-0.8708020730459163,0.731375566317418,-2.186861411667256,-3.5881051827395174,-1.8597031218477889,-2.6211782408239808,,,,,,,,,
22,22,1.15,-13.6,-2.26,6.06,-1.93,1.92,-1.9,-5.27,1.05,2.07,0.0,0.0,0.0,1.0,90.0,1150000000.0,-13.053969628279095,-2.3642902014212788,4.464064269303517,-1.794185803096765,1.65754687527128,-1.9555926943713016,-4.6787767927657535,-0.2724218190700889,1.0850420850755342,,,,,,,,,
23,23,1.2,-16.0,0.0407,3.45,-0.8859999999999999,0.123,0.338,-7.73,4.12,0.153,0.0,0.0,0.0,1.0,90.0,1200000000.0,-15.012850849199529,-0.5846200439562648,3.8916026000265016,-1.0024508163443828,0.4618341707246152,-0.10649004529983852,-6.657427628938032,2.123702001115868,0.3486911722067281,,,,,,,,,
24,24,1.25,-11.7,-2.51,6.79,-1.0,0.511,1.61,-3.16,1.38,3.93,0.0,0.0,0.0,1.0,90.0,1250000000.0,-12.810062394563394,-2.009383118196362,5.527811980660183,-1.0003142524480384,0.5001439682121516,1.2773503919187836,-4.389423153567222,1.7180027738442123,3.1780699179731107,,,,,,,,,
25,25,1.3,-4.87,-4.49,18.4,0.358,2.23,1.36,4.06,-1.27,15.9,0.0,0.0,0.0,1.0,90.0,1300000000.0,-7.530537956824016,-3.84501613953323,12.794446445538131,0.18383209137174886,1.8480407936288363,1.3439828136674872,1.0898410086261103,0.08800796529887789,13.228908468834453,,,,,,,,,
26,26,1.35,-0.603,-6.18,3.59,0.255,-0.0312,3.16,8.78,-3.89,1.89,0.0,0.0,0.0,1.0,90.0,1350000000.0,-2.9242636393378687,-5.5728821354361715,7.598332911720952,0.2458745917467927,0.3837439826174525,2.808062446313466,6.076739003839619,-2.082047765884662,4.270712566994447,,,,,,,,,
27,27,1.4,-5.98,-3.68,1.59,-0.857,-1.14,1.52,3.53,-2.41,-0.436,0.0,0.0,0.0,1.0,90.0,1400000000.0,-4.956090828835211,-4.172167185517996,4.20649618602153,-0.7155854646378743,-0.80355114324771,1.7696218708543754,4.4252350192664345,-2.2609500704789025,0.5522194512321401,,,,,,,,,
28,28,1.45,-8.3,-0.249,4.59,-0.373,-0.826,1.2,1.16,0.394,2.09,0.0,0.0,0.0,1.0,90.0,1450000000.0,-7.179530653611673,-1.269060319247559,4.422992652610455,-0.41692753153936096,-0.8210431821452587,1.310390715733575,2.3078022429587968,-0.8126398857529873,1.7671281579650049,,,,,,,,,
29,29,1.5,-9.9,-4.23,3.65,0.444,-0.341,0.6920000000000001,-0.481,-3.98,0.918,0.0,0.0,0.0,1.0,90.0,1500000000.0,-8.98843107046751,-3.460127883349364,3.9866212668305536,0.3336087939170121,-0.446995472517906,0.8118418819804899,0.4993256114760358,-2.5404765036620027,1.0962825867261654,,,,,,,,,
30,30,1.55,-5.92,-5.7,4.2,0.0205,-0.464,0.778,3.49,-5.76,1.44,0.0,0.0,0.0,1.0,90.0,1550000000.0,-6.948162949040875,-5.117612068152186,4.1070781708271085,0.06064793129076485,-0.4602453210258489,0.7845584331464432,2.438711870541248,-4.296769047140443,1.3678332778840714,,,,,,,,,
31,31,1.6,1.29,-3.26,4.12,0.113,-2.32,-1.24,10.5,-3.48,0.698,0.0,0.0,0.0,1.0,90.0,1600000000.0,-1.470424913500317,-3.742996580255807,4.114372764431418,0.10628722856285176,-1.9093585790990224,-0.847647838494973,7.666279083734231,-3.8512107981046544,0.8386379316209641,,,,,,,,,
32,32,1.65,-12.4,-5.25,3.08,1.17,0.858,-2.24,-3.41,-4.52,-0.7040000000000001,0.0,0.0,0.0,1.0,90.0,1650000000.0,-8.73774260575609,-4.858164954737098,3.5304464307416192,1.0336069018834178,0.2469559971040507,-1.97016714838261,0.4835568064599665,-4.2160440949516484,-0.3801083686464427,,,,,,,,,
33,33,1.7,-12.4,-3.4,3.65,1.29,1.01,-1.9,-3.27,-1.91,0.439,0.0,0.0,0.0,1.0,90.0,1700000000.0,-11.172858875218349,-3.779136656164933,3.5979371171900136,1.2571243255614075,0.8415167848586318,-1.9135981226861551,-1.950541823868608,-2.9580666879853093,0.26702035067054464,,,,,,,,,
34,34,1.75,-6.68,-0.354,4.03,0.348,-0.417,-1.99,2.41,1.83,1.05,0.0,0.0,0.0,1.0,90.0,1750000000.0,-8.185456810509102,-1.244567706422802,3.8418462838483127,0.4645711678637241,-0.13911439102179202,-1.9751935976567347,0.8771732450912769,-0.34611330143779595,0.8856058758220003,,,,,,,,,
35,35,1.8,-10.4,-2.98,3.33,-0.327,0.884,-2.09,-1.57,0.13,0.293,0.0,0.0,0.0,1.0,90.0,1800000000.0,-9.657955655462644,-2.528771315894025,3.5528976990413637,-0.2255019033849889,0.6580921993813964,-2.067750861445835,-0.7097645606038001,-0.08638723505064673,0.4174232969704914,,,,,,,,,
36,36,1.85,-11.4,-5.26,5.39,0.0644,0.381,-1.1,-2.8,-1.4,2.54,0.0,0.0,0.0,1.0,90.0,1850000000.0,-10.81627949286342,-4.549855055538044,4.589982482219769,0.0272277418683452,0.4421830898815653,-1.2875466681650465,-2.065236021999812,-0.8029802653032311,2.0943446345900325,,,,,,,,,
37,37,1.9,0.0287,-9.25,3.57,-0.448,-0.967,-0.428,8.41,-5.02,0.7340000000000001,0.0,0.0,0.0,1.0,90.0,1900000000.0,-3.6052110418645658,-8.02791816333896,4.0141797863233535,-0.3870646092045458,-0.6558466696583121,-0.5945770665420982,4.727722957011092,-3.1034199931530484,1.0196174238259983,,,,,,,,,
38,38,1.95,2.57,-5.86,3.3,0.14800000000000002,0.0819,-0.789,10.8,-1.4,0.313,0.0,0.0,0.0,1.0,90.0,1950000000.0,0.5008242965605048,-6.4236791857402835,3.611009482881809,0.07939210140677883,-0.08099745358030053,-0.7513215118496956,8.66546055758534,-2.1741819661663717,0.4613610998274534,,,,,,,,,
39,39,2.0,-10.8,-3.31,5.5,-0.121,-0.069,-3.29,-2.99,1.83,2.48,0.0,0.0,0.0,1.0,90.0,2000000000.0,-7.0133456460085295,-4.119585794487018,4.6773863864576155,-0.09530500658288893,-0.07164908501760682,-2.798013175778494,1.1071519427756609,0.010151992981746629,2.0561674183168988,,,,,,,,,
40,40,2.05,-9.01,-5.61,4.54,0.382,0.698,-2.41,-1.88,0.42,1.57,0.0,0.0,0.0,1.0,90.0,2050000000.0,-8.340965756309883,-5.222478405068423,4.599828712803066,0.32079824220546266,0.5280583741681624,-2.485195632189866,-0.8299500787844134,0.2337294650210948,1.6720755534804854,,,,,,,,,
41,41,2.1,-17.6,-14.3,5.46,0.34600000000000003,0.42,-2.75,-11.3,-7.27,2.79,0.0,0.0,0.0,1.0,90.0,2100000000.0,-14.497504135947453,-11.939759256201775,5.0854144402869155,0.3427685281051968,0.44385971665360696,-2.6986818624638205,-7.619546208676687,-3.8596536558930183,2.5552810109141566,,,,,,,,,
42,42,2.15,-2.31,-16.3,2.36,-0.16,0.4320000000000001,0.0984,3.61,-8.89,-0.276,0.0,0.0,0.0,1.0,90.0,2150000000.0,-6.3937611049684815,-15.166295883854538,3.546857683477377,-0.09553321579695173,0.4346186822243623,-0.4436644440163429,-0.3374337114694201,-6.603773945809834,0.3184546069702248,,,,,,,,,
43,43,2.2,-2.06,-3.54,2.83,-0.0785,1.46,0.393,4.21,3.71,0.765,0.0,0.0,0.0,1.0,90.0,2200000000.0,-3.512146767908116,-6.562946113900018,3.1421756317456158,-0.08068406221167376,1.2335916798916298,0.2308574343786013,2.61147658573118,-0.9774745645532424,0.6712435008593518,,,,,,,,,
44,44,2.25,-4.51,-6.1,1.31,0.981,0.649,-0.964,1.72,1.28,-0.382,0.0,0.0,0.0,1.0,90.0,2250000000.0,-4.175641762628782,-6.220370267755826,2.1078719545693128,0.8448670730617314,0.7780802031526755,-0.7324409003106713,2.0333737383332,0.25400749085495145,-0.16086142534762093,,,,,,,,,
45,45,2.3,-5.48,-9.74,2.82,0.0504,0.162,-0.161,0.7170000000000001,-2.34,1.09,0.0,0.0,0.0,1.0,90.0,2300000000.0,-5.042938623661995,-8.824863038387505,2.5098839403182143,0.15226941314790646,0.2980330055980877,-0.27174319743140984,1.1797344632664035,-1.1610576715739704,0.8273696737914945,,,,,,,,,
46,46,2.35,-4.43,-9.15,2.76,0.0217,-0.0745,0.0587,1.7,-1.69,1.05,0.0,0.0,0.0,1.0,90.0,2350000000.0,-4.635381964620772,-9.065461053502668,2.651079979510185,0.03844207806261657,0.007756795615283919,-0.005338708297827288,1.517115197905302,-1.4496027009407575,1.0032565902148698,,,,,,,,,
47,47,2.4,-3.59,-8.11,2.89,0.0351,0.0648,-0.0402,2.53,-0.652,1.13,0.0,0.0,0.0,1.0,90.0,2400000000.0,-3.9402841519935152,-8.358428595037317,2.7859556716911453,0.03552853482277763,0.052204630641257986,-0.03344400560134843,2.173948590729994,-1.0144999409391706,1.103389001821741,,,,,,,,,
48,48,2.45,-4.3,-6.83,3.13,0.21600000000000005,0.202,-0.126,1.85,0.5820000000000001,1.28,0.0,0.0,0.0,1.0,90.0,2450000000.0,-4.1794673593080764,-7.227405735641017,2.98017636482182,0.1928593073519473,0.1689245809518406,-0.1080629816003968,1.9638751037351836,-0.1435882125615393,1.2429188045498294,,,,,,,,,
49,49,2.5,-5.01,-3.21,2.8,-0.0168,-0.114,-1.01,0.8190000000000001,4.47,0.996,0.0,0.0,0.0,1.0,90.0,2500000000.0,-4.73170716551715,-4.254563257243203,2.8784627971125603,0.010083267699856737,-0.05152910615570125,-0.8352078303015262,1.2214489021826511,2.373184732593181,1.0478429646740786,,,,,,,,,
50,50,2.55,-3.08,-6.18,2.77,-0.397,-0.342,-0.679,2.43,1.73,0.967,0.0,0.0,0.0,1.0,90.0,2550000000.0,-3.633450226451024,-5.67936823314683,2.817233139774714,-0.3448023385388549,-0.2778628555895716,-0.7092725338764528,2.005167625783256,2.0223190105656705,0.983973761781474,,,,,,,,,
51,51,2.6,-6.51,-15.1,4.11,-0.239,-0.701,-0.917,-1.32,-6.96,2.37,0.0,0.0,0.0,1.0,90.0,2600000000.0,-5.546132402062407,-12.650547529617644,3.5470286847159693,-0.2525663482818396,-0.6075695846326563,-0.8767431580116638,-0.15113013382544382,-2.877654188830832,2.078990408254122,,,,,,,,,
52,52,2.65,-1.35,-14.8,3.53,-0.36,-0.654,-0.853,3.43,-6.48,1.68,0.0,0.0,0.0,1.0,90.0,2650000000.0,-2.7560305093276964,-14.241122307828467,3.5374155996188694,-0.3462244849281684,-0.643747963888698,-0.85760132702009,2.171153665252456,-4.842781226449983,1.763771821272285,,,,,,,,,
53,53,2.7,-1.61,-9.12,3.14,-0.0382,-0.00611,0.121,2.84,-0.5660000000000001,1.34,0.0,0.0,0.0,1.0,90.0,2700000000.0,-1.9940093038265057,-10.451539820927913,3.313065767871997,-0.07769600113028857,-0.14690304611717436,-0.06864943081711318,2.604885677476118,-2.5097407999848227,1.4289749844101274,,,,,,,,,
54,54,2.75,-3.13,-7.58,1.85,0.217,0.299,-0.136,1.33,0.96,0.0111,0.0,0.0,0.0,1.0,90.0,2750000000.0,-2.7493548995173187,-8.326627270970569,2.487132813890379,0.179213017090755,0.20054279670718386,-0.12294770700657792,1.7781505159519884,-0.6169515624356525,0.3087964508584482,,,,,,,,,
55,55,2.8,-0.417,1.72,3.26,-0.253,0.632,-0.4920000000000001,3.95,10.3,1.47,0.0,0.0,0.0,1.0,90.0,2800000000.0,-1.198520167652687,-0.8922174428929068,2.923433419510409,-0.19758009150552025,0.5367325239034676,-0.420478999099401,3.1865469436370013,5.338389226456368,1.226194200993365,,,,,,,,,
56,56,2.85,-7.24,-4.09,0.769,-0.397,-0.0483,-1.14,-3.57,4.87,-0.7709999999999999,0.0,0.0,0.0,1.0,90.0,2850000000.0,-5.215634538028064,-3.258546609498418,1.7072081263453494,-0.3714296780976604,0.08087755046306139,-1.000559396947687,-1.1949243994980492,5.082876679548047,-0.3516699453549101,,,,,,,,,
57,57,2.9,0.268,-7.39,2.55,-0.542,-0.487,0.318,3.9,1.62,1.19,0.0,0.0,0.0,1.0,90.0,2900000000.0,-1.5694437739674494,-6.3157832106083776,2.1829827422544734,-0.5201288587729199,-0.3616103268883393,0.062467904989553125,2.1090215475178478,3.1938319008872886,0.866311654866667,,,,,,,,,
58,58,2.95,-1.88,-7.63,3.62,-0.7909999999999999,-0.519,-2.32,1.41,1.54,2.48,0.0,0.0,0.0,1.0,90.0,2950000000.0,-1.775939523540816,-7.288291374267052,2.99421068531494,-0.7562679397661249,-0.4842477176004107,-1.8582862039375616,1.6557214993214622,2.2916448227367674,2.1411906710064867,,,,,,,,,
59,59,3.0,6.06,-2.85,2.69,0.184,-0.29600000000000004,-1.79,8.23,6.65,1.6,0.0,0.0,0.0,1.0,90.0,3000000000.0,3.434351183638088,-4.003997378101729,2.822477061094768,0.0634354779799825,-0.33756586180242704,-1.8032335908603687,5.918995531416352,4.669184956139113,1.7136281904773238,,,,,,,,,
60,60,3.05,1.47,-15.6,2.25,0.15,-0.453,-0.8370000000000001,2.97,-5.94,1.04,0.0,0.0,0.0,1.0,90.0,3050000000.0,2.1282103421131944,-12.584930672825847,2.499301105341561,0.13890039219564812,-0.42751168160377095,-1.024252617336563,4.00663711490136,-1.1182650276544852,1.181434668852299,,,,,,,,,
61,61,3.1,5.75,-15.7,1.85,0.505,0.721,0.8859999999999999,6.84,-6.07,0.472,0.0,0.0,0.0,1.0,90.0,3100000000.0,4.53641896584643,-14.890052572197186,2.132756291853356,0.4580573931294348,0.4674039791686266,0.5157998702191828,5.844010433038478,-3.8195016865350224,0.6209526147854324,,,,,,,,,
62,62,3.15,-4.22,-2.05,1.03,0.32,0.627,0.0251,-2.69,7.52,-0.465,0.0,0.0,0.0,1.0,90.0,3150000000.0,-1.2859189259719708,-5.38853424731019,1.5102259722154256,0.33770220709448706,0.5917605318501962,0.12019587655371765,0.30989321510969603,2.366345639054784,-0.2369938365741189,,,,,,,,,
63,63,3.2,1.19,-11.4,2.52,0.124,-0.319,-0.0744,2.69,-1.86,0.929,0.0,0.0,0.0,1.0,90.0,3200000000.0,0.3603747603565086,-9.836962152942947,2.0802657214691194,0.151401660493527,-0.1179003886045218,-0.036688016693201216,1.853339906494724,0.06081848949117141,0.6841884274249017,,,,,,,,,
64,64,3.25,0.0718,-8.88,2.35,-0.00886,0.112,-0.0451,1.49,0.679,0.698,0.0,0.0,0.0,1.0,90.0,3250000000.0,0.16849497444911274,-9.128819233733275,2.232536630414286,0.011689323647997962,0.06123706532846451,-0.043469787583068006,1.6177220124212632,0.3980446462955646,0.6951001388035241,,,,,,,,,
65,65,3.3,0.0407,-9.59,2.73,-0.0541,-0.184,-0.0916,1.39,-0.013000000000000001,1.09,0.0,0.0,0.0,1.0,90.0,3300000000.0,0.08352124898743388,-9.470088781554335,2.5133657098794497,-0.04566425677980529,-0.1298506625481969,-0.08227253800363321,1.4700493103023031,0.1738143844895535,1.0070870132438408,,,,,,,,,
66,66,3.35,-0.0168,-9.87,3.03,0.0101,-0.13699999999999998,-0.0531,1.24,-0.293,1.35,0.0,0.0,0.0,1.0,90.0,3350000000.0,0.01681541614411837,-9.76601924192827,2.805017170846566,0.002949706961208956,-0.13542139304855033,-0.05875353418338133,1.3208674223971557,-0.08083900987371867,1.2780021485758282,,,,,,,,,
67,67,3.4,-0.0168,-9.91,2.55,0.108,-0.18600000000000005,-0.0103,1.17,-0.333,0.812,0.0,0.0,0.0,1.0,90.0,3400000000.0,-0.005536222480113442,-9.872563537495628,2.6610543137594327,0.09453007768418176,-0.17483204207633446,-0.01969012144780586,1.2230332050190322,-0.21839614939188726,0.9098416018057046,,,,,,,,,
68,68,3.45,0.591,-9.89,2.31,0.0895,-0.14300000000000002,0.0636,1.74,-0.322,0.482,0.0,0.0,0.0,1.0,90.0,3450000000.0,0.3911140141219647,-9.885466610013992,2.4628763611864364,0.09014497680771254,-0.15002864907627791,0.0474586759380699,1.5582747537896482,-0.27491341106938344,0.5718294422196238,,,,,,,,,
69,69,3.5,-0.261,-9.06,1.86,-0.0785,-0.12,-0.134,0.84,0.502,0.004370000000000001,0.0,0.0,0.0,1.0,90.0,3500000000.0,-0.042491125493215376,-9.274629383187479,2.1225393366220238,-0.056875739443187766,-0.1266304453028171,-0.09883396156436287,1.0924894314226212,0.14890306056517486,0.12351355225547878,,,,,,,,,
70,70,3.55,-0.11,-10.3,2.91,-0.16,-0.208,-0.203,0.6829999999999999,-0.6990000000000001,1.02,0.0,0.0,0.0,1.0,90.0,3550000000.0,-0.08737927960684125,-10.033394148888727,2.5670783365899514,-0.1467770349062083,-0.19003327595559694,-0.1828129903283945,0.8269446023075184,-0.3136392132726779,0.8317740575164241,,,,,,,,,
71,71,3.6,0.6609999999999999,-9.1,2.51,-0.118,0.0776,-0.241,1.26,0.502,0.615,0.0,0.0,0.0,1.0,90.0,3600000000.0,0.4102347834299034,-9.342691528890493,2.534856348468661,-0.12168989508964093,0.018505489996567648,-0.2297235633519661,1.1077714518462032,0.1313026928841009,0.6605137998713104,,,,,,,,,
72,72,3.65,-0.153,-9.65,2.95,-0.138,0.055,-0.191,0.299,-0.0369,1.08,0.0,0.0,0.0,1.0,90.0,3650000000.0,0.03572743102228704,-9.570096628506471,2.7692141435428947,-0.13590865692819482,0.046941864082472716,-0.1985044875206265,0.5833010343504204,0.03954591194917173,0.9919248831253168,,,,,,,,,
73,73,3.7,0.0383,-10.0,3.13,-0.261,-0.175,-0.24,0.364,-0.377,1.3,0.0,0.0,0.0,1.0,90.0,3700000000.0,0.0374379895301714,-9.888221085087894,2.9728857993894087,-0.2449603464831129,-0.1259943347751286,-0.23195831405882636,0.4410891549068604,-0.18768536470224084,1.2353166369602904,,,,,,,,,
74,74,3.75,0.0383,-9.85,2.77,-0.29100000000000004,-0.161,-0.274,0.204,-0.213,0.985,0.0,0.0,0.0,1.0,90.0,3750000000.0,0.038011159581186935,-9.859938123438985,2.8583522700194632,-0.2850966382408036,-0.15327060606709286,-0.2658524630821543,0.28734207468439266,-0.2014948309995669,1.0375563898812747,,,,,,,,,
75,75,3.8,0.0479,-9.25,2.7,-0.204,-0.242,-0.191,0.0622,0.394,0.944,0.0,0.0,0.0,1.0,90.0,3800000000.0,0.04458646901465562,-9.408589641585452,2.7689589400908643,-0.2143984980363448,-0.22240818926441228,-0.20550613881783628,0.14134241357533986,0.12335542939291652,0.9636430658243442,,,,,,,,,
76,76,3.85,0.596,-10.1,2.36,-0.0308,-0.221,-0.00359,0.5379999999999999,-0.417,0.619,0.0,0.0,0.0,1.0,90.0,3850000000.0,0.4112336197030165,-9.92022709429046,2.538092519037337,-0.054341656738066464,-0.22131093454580766,-0.04272062419841177,0.3985660849722436,-0.17141556312986098,0.6913611308914729,,,,,,,,,
77,77,3.9,0.821,-10.2,1.98,0.0339,-0.173,-0.0573,0.728,-0.519,0.227,0.0,0.0,0.0,1.0,90.0,3900000000.0,0.6836964007396529,-10.127256275309495,2.2230369660172715,0.022585338915197137,-0.18366724462431905,-0.05447457033073064,0.6121966894343225,-0.3610274423762059,0.3244970713572,,,,,,,,,
78,78,3.95,-0.292,-10.5,2.78,0.313,-0.16,0.0105,-0.443,-0.838,0.96,0.0,0.0,0.0,1.0,90.0,3950000000.0,0.03493413180027971,-10.40308313018934,2.537454894372726,0.2757619865703122,-0.16522582072661945,-0.002091839003194637,-0.07207503860631659,-0.6212222466570301,0.8265700484182982,,,,,,,,,
79,79,4.0,-1.38,-10.5,3.43,0.593,0.344,0.5429999999999999,-1.43,-0.862,1.39,0.0,0.0,0.0,1.0,90.0,4000000000.0,-0.9058870888116416,-10.474800703454644,3.041316374143902,0.5523226013175937,0.2315608844923892,0.43736314113743796,-0.9526593345602395,-0.7525696721846059,1.2717024668155557,,,,,,,,,
80,80,4.05,0.00718,-12.2,5.81,1.19,0.5720000000000001,1.52,0.49,-2.76,3.36,0.0,0.0,0.0,1.0,90.0,4050000000.0,-0.2987684415451486,-11.751431835990383,4.604299451161729,1.1082347703046866,0.4968296846359709,1.310188841082073,-0.01712662987396818,-1.847649317638876,2.9215418223108705,,,,,,,,,
81,81,4.1,-1.31,-12.4,3.7,1.86,0.423,1.67,0.007490000000000002,-3.16,0.545,0.0,0.0,0.0,1.0,90.0,4100000000.0,-0.9711587932488588,-12.231365902708507,4.093802448107692,1.7636059826516517,0.4393018996576837,1.6002698522122685,-0.0011632892363737345,-2.5635539250652752,1.0439777608911014,,,,,,,,,
82,82,4.15,-2.7,-9.59,6.64,2.19,-0.472,1.46,-0.653,-0.8740000000000001,2.64,0.0,0.0,0.0,1.0,90.0,4150000000.0,-2.1207038555717266,-10.276780059451056,5.53118717518658,2.135326282064113,-0.2707808501696969,1.4871838254458984,-0.4238649899900082,-1.641880040651614,2.3048999072019822,,,,,,,,,
83,83,4.2,-2.34,-9.98,5.53,2.12,-0.693,1.42,0.183,-1.92,0.547,0.0,0.0,0.0,1.0,90.0,4200000000.0,-2.2665186900460035,-10.05716526453822,5.530517106992368,2.121965091002709,-0.5997723153666938,1.4330199500148588,-0.030326455597613045,-1.7935981136069066,0.91608793741511,,,,,,,,,
84,84,4.25,-0.812,-9.22,5.75,2.01,-1.08,1.6,2.08,-1.93,-0.142,0.0,0.0,0.0,1.0,90.0,4250000000.0,-1.2993767961510507,-9.437671030342203,5.654420051825782,2.0243565566009125,-0.9739638147793706,1.5676398839192436,1.3381735672796002,-1.8680071083258432,0.08015570632949265,,,,,,,,,
85,85,4.3,-0.321,-6.1,5.77,2.27,-1.52,1.15,2.65,0.313,-1.03,0.0,0.0,0.0,1.0,90.0,4300000000.0,-0.6488322762394356,-6.967825749936299,5.719667476729735,2.238502701411562,-1.3994329828907637,1.2309370936397117,2.1888640819342555,-0.6782390440886967,-0.7969121399571991,,,,,,,,,
86,86,4.35,-2.0,-3.19,5.95,1.81,-0.955,0.755,0.831,2.35,-1.63,0.0,0.0,0.0,1.0,90.0,4350000000.0,-1.5472537948343987,-4.17227022456483,5.8496951700064646,1.8649441009576595,-1.0531325904701905,0.8472348993484237,1.3083192117788962,0.9737051375454971,-1.4550852103271696,,,,,,,,,
87,87,4.4,-0.237,-1.88,5.49,1.24,-0.8170000000000001,0.557,2.43,2.94,-2.62,0.0,0.0,0.0,1.0,90.0,4400000000.0,-0.6760368612935641,-2.4760117874397998,5.646639166166838,1.3201325788605232,-0.8691390108688022,0.6132464684234833,2.0357044592709195,2.0463448819439862,-2.3754148774351598,,,,,,,,,
88,88,4.45,-1.31,-2.92,7.39,0.647,-0.172,0.0166,1.19,1.48,-1.01,0.0,0.0,0.0,1.0,90.0,4450000000.0,-1.0975730365483725,-2.804558950560539,6.63080481897162,0.7333114826325855,-0.325931122973799,0.1322279472460713,1.4872838429607076,1.7373963092389155,-1.2966819409297683,,,,,,,,,
89,89,4.5,2.57,-6.34,7.9,0.6459999999999999,-0.111,0.0318,5.04,-2.17,-0.626,0.0,0.0,0.0,1.0,90.0,4500000000.0,1.3410779311545258,-5.4207522296761645,7.3472936084128655,0.6571954150754827,-0.15845766397286412,0.0512625777848129,3.7911417379582737,-0.3941398190924228,-0.766816095470116,,,,,,,,,
90,90,4.55,-0.8240000000000001,-7.02,10.2,0.937,0.0275,-0.388,1.55,-3.14,1.49,0.0,0.0,0.0,1.0,90.0,4550000000.0,-0.0985306159082706,-6.6041805429692015,8.957709318660715,0.9011224337730296,-0.013560205825830065,-0.3028724957804901,2.3378108148362577,-1.8920427255465349,1.016159824402658,,,,,,,,,
91,91,4.6,-0.0934,-0.948,7.05,0.903,0.166,-0.7040000000000001,2.19,2.57,-1.81,0.0,0.0,0.0,1.0,90.0,4600000000.0,-0.09511915611412716,-2.4186600830849807,7.880765345503869,0.90275924924065,0.12635237404875235,-0.626262924075987,2.2419588048521604,0.5420602409657937,-1.2166205955083351,,,,,,,,,
92,92,4.65,-2.34,-1.17,8.48,0.302,-0.218,-0.474,-0.0784,2.15,-0.468,0.0,0.0,0.0,1.0,90.0,4650000000.0,-1.5877903798636588,-1.4946633192105159,8.219046295798504,0.37903149019845617,-0.14196559639965592,-0.5035080146150323,0.7372573947111507,1.419212583259708,-0.625180069493389,,,,,,,,,
93,93,4.7,-1.49,-5.58,10.6,0.523,-0.648,-0.103,0.642,-2.37,1.55,0.0,0.0,0.0,1.0,90.0,4700000000.0,-1.52276738422212,-4.517774030676279,9.563147508814485,0.5045398437854854,-0.5362655547087962,-0.18061701807933492,0.6754850919217456,-0.6478526638484063,1.0933000457764352,,,,,,,,,
94,94,4.75,0.7659999999999999,-4.23,7.83,0.8190000000000001,-0.455,-0.376,2.51,-1.31,-1.37,0.0,0.0,0.0,1.0,90.0,4750000000.0,-0.000914983173350592,-4.304823965313109,8.584747385309695,0.7786787976782105,-0.4729437739871168,-0.33813546789313803,1.8651274644210332,-1.0090627147517848,-0.852806534994101,,,,,,,,,
95,95,4.8,-0.611,-3.81,8.52,0.695,0.569,-0.0409,1.07,-1.2,-0.782,0.0,0.0,0.0,1.0,90.0,4800000000.0,-0.4065741022715534,-3.938658836798192,8.548196313461059,0.7057295888562419,0.3389345971833299,-0.09850316806139243,1.3495049085257471,-1.1132215415599684,-0.7968665152326564,,,,,,,,,
96,96,4.85,-3.02,-0.232,7.76,0.341,1.2,0.112,-0.959,2.14,-1.52,0.0,0.0,0.0,1.0,90.0,4850000000.0,-2.144299186542911,-1.1957661113555689,8.103242200421658,0.3877669258719933,1.0098733071572348,0.07120524316998841,-0.14750950562668996,0.6614536612380779,-1.3681711746268579,,,,,,,,,
97,97,4.9,-5.23,-2.76,9.64,-0.18,0.125,0.902,-2.67,-0.502,0.444,0.0,0.0,0.0,1.0,90.0,4900000000.0,-4.196050408201846,-2.353284488168001,8.970776142556975,-0.1071988978294891,0.32038361174626795,0.7409949614118625,-1.7832888985776223,0.02677439837522566,0.06351728686597502,,,,,,,,,
98,98,4.95,-0.426,-3.2,8.3,-0.251,-0.486,0.731,2.08,-0.93,-0.901,0.0,0.0,0.0,1.0,90.0,4950000000.0,-1.6892599082436932,-2.979846048534888,8.592108290063768,-0.2325612965048653,-0.307947232157081,0.7329369927015204,0.7219685315176154,-0.4951586257725384,-0.6984903635477514,,,,,,,,,
99,99,5.0,-1.5,-3.14,7.76,-0.259,0.13699999999999998,0.563,0.967,-0.816,-1.44,0.0,0.0,0.0,1.0,90.0,5000000000.0,-1.563416779235104,-3.0983585458311707,8.122364895545639,-0.2556099376708513,0.0387538439310019,0.5959331990411294,0.8808660290579022,-0.6701818076121732,-1.2843129856203002,,,,,,,,,
100,100,5.05,-2.81,-2.18,8.88,-0.7709999999999999,0.308,0.593,-0.168,0.294,-0.239,0.0,0.0,0.0,1.0,90.0,5050000000.0,-2.3922976939815332,-2.418781897973352,8.550066724349989,-0.7049148647091512,0.2485493564482417,0.5935684392341358,0.20069958857826772,-0.1442079483164277,-0.4584734805164591,,,,,,,,,
101,101,5.1,-3.41,-2.49,9.77,-1.01,0.343,0.655,-0.5529999999999999,0.301,0.8170000000000001,0.0,0.0,0.0,1.0,90.0,5100000000.0,-3.0689906850027344,-2.4714826315385454,9.238746283837667,-0.9708808831306952,0.3221449111006576,0.6430947606023053,-0.2880579220061141,0.09865884347811184,0.5492020881710881,,,,,,,,,
102,102,5.15,-2.97,-2.67,8.45,-1.14,0.149,0.546,0.0946,0.463,-0.324,0.0,0.0,0.0,1.0,90.0,5150000000.0,-3.003169592418209,-2.6183836758717014,8.79348146348052,-1.1183149287494107,0.18723110102326745,0.5648166197341182,-0.039912715912063135,0.29741173684296673,-0.14066284793867945,,,,,,,,,
103,103,5.2,-2.89,-2.05,8.24,-1.41,0.0544,0.302,0.293,1.52,-0.32299999999999995,0.0,0.0,0.0,1.0,90.0,5200000000.0,-2.927920679168569,-2.1977850595881963,8.481028813274687,-1.3725990665427328,0.0837296459024262,0.3529329079338785,0.17597383182882298,0.964349706583108,-0.2847165771538087,,,,,,,,,
104,104,5.25,-3.91,-3.67,7.87,-1.46,0.0721,0.123,-0.6629999999999999,0.451,-0.413,0.0,0.0,0.0,1.0,90.0,5250000000.0,-3.5809271537893133,-3.287210342608044,8.136089476614247,-1.4487931725854175,0.07466787184276343,0.16756017631558448,-0.3680821503854675,0.6843106914912694,-0.3860656552826191,,,,,,,,,
105,105,5.3,-3.68,-3.39,7.77,-1.58,-0.0617,0.0147,-0.405,1.3,-0.194,0.0,0.0,0.0,1.0,90.0,5300000000.0,-3.6468029406031865,-3.3632738011452203,7.929423863788045,-1.5631762281504684,-0.031589422390441574,0.044323754525123014,-0.3920225608209921,1.0201772823836508,-0.2343260308437975,,,,,,,,,
106,106,5.35,-3.52,-4.12,6.26,-1.75,-0.0745,0.0422,-0.259,1.17,-1.33,0.0,0.0,0.0,1.0,90.0,5350000000.0,-3.5624888280087976,-3.923243995258411,6.986997318808116,-1.7260447869584232,-0.06502517212185464,0.042611575285929466,-0.3057603718325198,1.101907522282226,-1.0999527760712389,,,,,,,,,
107,107,5.4,-4.83,-3.16,6.35,-1.76,-0.11,0.066,-1.6,2.77,-0.77,0.0,0.0,0.0,1.0,90.0,5400000000.0,-4.4052851910412905,-3.358450671860554,6.627398197500397,-1.7556461326764463,-0.10006937530108452,0.061467406816187925,-1.1450461859859673,2.011873901470669,-0.8392767346637926,,,,,,,,,
108,108,5.45,-4.39,-6.36,6.0,-1.52,-0.556,0.0593,-1.25,0.127,-0.6409999999999999,0.0,0.0,0.0,1.0,90.0,5450000000.0,-4.39512163824318,-5.579569078244723,6.2732180461991645,-1.5502153743516278,-0.4553286661670438,0.059720037053054426,-1.21310641509927,0.9836503957701304,-0.6826300805332143,,,,,,,,,
109,109,5.5,-2.5,-7.31,5.84,-1.4,-0.583,-0.353,0.434,-0.334,-0.404,0.0,0.0,0.0,1.0,90.0,5500000000.0,-3.1350130446084137,-6.860071663091617,6.028656968853152,-1.4192611324351303,-0.5548096555065988,-0.2730163239136781,-0.14499431218109926,0.2648547764677441,-0.4625010687097886,,,,,,,,,
110,110,5.55,-0.97,-9.84,6.57,-1.06,-0.4920000000000001,-0.45,1.65,-2.44,0.688,0.0,0.0,0.0,1.0,90.0,5550000000.0,-1.69544766171326,-9.065190753177113,6.334257173380978,-1.1060656990297757,-0.5058686370311148,-0.41570118819745866,1.0190198179304997,-1.21067911644489,0.4464412852577182,,,,,,,,,
111,111,5.6,-2.3,-9.39,4.8,-0.813,-0.0929,-0.574,0.0168,-1.65,-0.77,0.0,0.0,0.0,1.0,90.0,5600000000.0,-2.0974279469453254,-9.305546798766002,5.468135191498443,-0.8505779537655327,-0.1840851488138151,-0.5433222583166568,0.3691024127193627,-1.4503344244846648,-0.5145964708688232,,,,,,,,,
112,112,5.65,-4.5,-10.9,6.54,-0.578,-0.0996,-0.0463,-2.36,-2.9,1.26,0.0,0.0,0.0,1.0,90.0,5650000000.0,-3.694951625524332,-10.485426907800829,6.073226548233506,-0.6129509292303723,-0.1182546648843076,-0.14262113370978974,-1.4006601260551763,-2.2411461176441017,0.8874064442233299,,,,,,,,,
113,113,5.7,-2.87,-7.14,4.93,-0.5429999999999999,-0.26,0.434,-0.6829999999999999,0.96,-0.147,0.0,0.0,0.0,1.0,90.0,5700000000.0,-3.146422836719076,-8.009842322702452,5.427849793507134,-0.5519693436748259,-0.2287020482202724,0.3222528789251395,-0.935273411442772,-0.4948788125527388,0.0701835534848465,,,,,,,,,
114,114,5.75,-1.81,-13.3,6.75,0.29,-0.462,0.158,0.35,-5.1,1.76,0.0,0.0,0.0,1.0,90.0,5750000000.0,-2.2578054839329025,-11.924509451622779,6.174232811571676,0.18203966839116847,-0.4104868765789336,0.18983162518625665,-0.10180201002552558,-3.0070329465567798,1.4052068234151884,,,,,,,,,
115,115,5.8,-0.153,-8.75,4.3,0.625,0.56,0.177,2.13,-0.762,-0.919,0.0,0.0,0.0,1.0,90.0,5800000000.0,-0.8582734284088267,-9.575402277371918,5.116187066674125,0.5682020400422956,0.3457125670751173,0.17948672384301095,1.3454723492124634,-1.7823379550883969,-0.431010510585274,,,,,,,,,
116,116,5.85,-0.421,-8.76,5.61,0.524,-0.544,0.364,1.91,-0.915,0.21,0.0,0.0,0.0,1.0,90.0,5850000000.0,-0.5675205875463443,-8.972012421018606,5.3949554587811255,0.5296677343005223,-0.3475478830911509,0.32824198233868906,1.7115560341417408,-1.3091937028566083,0.07541369054179159,,,,,,,,,
117,117,5.9,-1.2,-9.02,5.7,1.14,-0.133,0.58,1.17,-1.46,-0.0707,0.0,0.0,0.0,1.0,90.0,5900000000.0,-0.9880702699168168,-9.007523117431377,5.5671597377198525,1.061740998824239,-0.1803730429609917,0.5312101849151578,1.3603688855043543,-1.3914605425462871,-0.04002202719876506,,,,,,,,,
118,118,5.95,-2.53,-8.46,7.67,1.2,0.901,0.334,0.107,-1.31,1.5,0.0,0.0,0.0,1.0,90.0,5950000000.0,-2.01333367697071,-8.602361181952674,6.754259592717503,1.1822719773339638,0.6622284682014249,0.3722186202000297,0.5475868607675617,-1.3470227137963688,1.1766576058813556,,,,,,,,,
119,119,6.0,-3.43,-5.33,5.67,1.29,-0.0421,0.454,-0.43,1.39,-0.816,0.0,0.0,0.0,1.0,90.0,6000000000.0,-2.9553067176766223,-6.180844589977141,6.142171127837184,1.2761866939045978,0.11341857885541184,0.438151058588777,-0.08635662031358815,0.14605917306548097,-0.3976224131018209,,,,,,,,,
120,120,6.05,-5.4,-7.28,7.21,1.13,-0.506,0.534,-2.39,-1.03,0.281,0.0,0.0,0.0,1.0,90.0,6050000000.0,-4.580837803314986,-6.994209423666242,6.7449841523631475,1.1487445772293423,-0.369229854143792,0.5154248021056572,-1.580218514038001,-0.4954965607582717,0.13851670684352735,,,,,,,,,
121,121,6.1,-4.05,-6.17,10.5,1.31,-0.14,0.561,-0.945,-0.4370000000000001,3.14,0.0,0.0,0.0,1.0,90.0,6100000000.0,-4.227872049593302,-6.384302248871997,8.864773604027464,1.2893232023540049,-0.19061488110375752,0.5521676815126512,-1.16829334013758,-0.4635859208806027,2.509809879897066,,,,,,,,,
122,122,6.15,-3.21,-7.13,8.94,1.12,-0.532,0.498,-0.0717,-1.98,1.2,0.0,0.0,0.0,1.0,90.0,6150000000.0,-3.5510662747234365,-6.9361116646341845,8.907240330571536,1.1417112315083588,-0.4566207865348035,0.5084974992957476,-0.4571767911630121,-1.290809759182926,1.4750071836260268,,,,,,,,,
123,123,6.2,-2.18,-7.66,3.02,1.04,-2.13,0.578,0.631,-2.97,-5.12,0.0,0.0,0.0,1.0,90.0,6200000000.0,-2.6394138107147977,-7.471782120001633,5.583763014105901,1.053041745075802,-1.7605111782696945,0.5645306717348354,0.2484817998782446,-2.2068301401401604,-3.735314902280937,,,,,,,,,
124,124,6.25,0.6609999999999999,-3.02,7.13,1.21,-0.909,0.552,2.85,1.17,-1.47,0.0,0.0,0.0,1.0,90.0,6250000000.0,-0.4448951379649997,-4.1775051551756714,6.456648037247666,1.1898742837424936,-1.0970171025271926,0.5544283881292442,1.935508802330116,-0.3647249014391893,-1.9456246117323277,,,,,,,,,
125,125,6.3,-0.417,-2.51,8.31,1.37,0.385,0.329,1.57,1.09,-0.593,0.0,0.0,0.0,1.0,90.0,6300000000.0,-0.4263470364770611,-2.943566997100921,7.502906425966658,1.3469036397890917,0.05776461116536403,0.37268721070524496,1.698484455065428,0.42884668674912,-0.8769965053715074,,,,,,,,,
126,126,6.35,-2.8,-4.85,6.66,1.43,0.221,0.736,-0.517,-1.96,-2.43,0.0,0.0,0.0,1.0,90.0,6350000000.0,-2.0046417365090883,-4.35430944047944,7.027067029687446,1.4193450413995976,0.18495696536216644,0.6655912845453704,0.2617917311673445,-0.8743006258744032,-2.103932075037224,,,,,,,,,
127,127,6.4,-0.362,-4.36,6.69,0.972,0.172,0.7659999999999999,2.11,-2.14,-2.54,0.0,0.0,0.0,1.0,90.0,6400000000.0,-0.9124126462550796,-4.358520499869438,6.836785272770332,1.0293601856428736,0.17486095500535512,0.7465411288543324,1.460313883675597,-1.5647563413864076,-2.4484433269276478,,,,,,,,,
128,128,6.45,-2.78,-2.41,8.98,0.111,0.7609999999999999,0.6890000000000001,-0.0176,-0.613,-0.259,0.0,0.0,0.0,1.0,90.0,6450000000.0,-2.1542130617403936,-2.9166336970272466,8.04667710423347,0.22875543289362965,0.6315781063541509,0.7001512730266239,0.5019193891910726,-1.0455607239719482,-0.7186946268779639,,,,,,,,,
129,129,6.5,-1.76,-1.47,7.25,-0.364,0.364,0.682,1.32,0.282,-1.89,0.0,0.0,0.0,1.0,90.0,6500000000.0,-1.8920920090252895,-1.8461383714410904,7.596935268123939,-0.28799476929674184,0.4230823243563041,0.6855176366734872,1.0324266213271338,-0.3213588827261007,-1.6440731922627418,,,,,,,,,
130,130,6.55,-0.594,-1.15,6.44,-1.22,0.335,0.468,2.67,0.797,-2.6,0.0,0.0,0.0,1.0,90.0,6550000000.0,-1.0289617034420129,-1.3310024981505872,6.943819767193194,-1.1004949767546963,0.3544489406314901,0.5101541342685804,2.09435681969041,0.2887205943613895,-2.399293923600694,,,,,,,,,
131,131,6.6,-1.34,-2.51,5.18,-1.89,0.8759999999999999,0.138,2.23,0.0434,-3.59,0.0,0.0,0.0,1.0,90.0,6600000000.0,-1.2357780178112792,-2.2034495674764254,5.948104421977769,-1.7887668262349288,0.7608394027233203,0.2101221347931456,2.182318437039916,0.15489498348230266,-3.3399997720400605,,,,,,,,,
132,132,6.65,-2.11,-3.1,6.43,-2.33,1.26,-0.234,1.88,0.358,-1.84,0.0,0.0,0.0,1.0,90.0,6650000000.0,-1.8170676184782817,-2.866888395171177,6.220145031300922,-2.2606010777951844,1.1497833100806845,-0.14793071970622512,1.9862716081757672,0.26569144733946826,-2.1549393641869767,,,,,,,,,
133,133,6.7,-3.18,-0.7020000000000001,6.81,-2.6,1.42,-0.691,1.27,3.79,-0.6809999999999999,0.0,0.0,0.0,1.0,90.0,6700000000.0,-2.723311764480459,-1.264891334988273,6.553131167738045,-2.5564809716699104,1.3603350265024283,-0.5857551073050508,1.5217852861120025,2.188248102682985,-0.9904677007360244,,,,,,,,,
134,134,6.75,-4.75,-9.42,3.91,-2.11,1.5,-1.29,-0.0983,-3.81,-2.65,0.0,0.0,0.0,1.0,90.0,6750000000.0,-4.0709019194660385,-7.299595198038382,5.061025244851097,-2.1672492975807454,1.469161407926216,-1.1535198327535223,0.4711957771654853,-1.0838751103430786,-2.3015653534477893,,,,,,,,,
135,135,6.8,-1.06,-4.76,3.21,-1.57,1.64,-1.3,3.49,1.68,-2.63,0.0,0.0,0.0,1.0,90.0,6800000000.0,-2.068886123302295,-5.420318776704248,4.016080598237815,-1.6465814894091624,1.6022781354819178,-1.2716126300670243,2.428823612166559,0.4238550912563957,-2.5610420865324013,,,,,,,,,
136,136,6.85,-4.54,-4.42,7.58,-1.5,0.0593,-2.29,-0.264,2.87,2.6,0.0,0.0,0.0,1.0,90.0,6850000000.0,-3.7119847619174915,-4.680092334955928,6.0279918388959945,-1.5187952034796524,0.39999582582841775,-2.092640146416868,0.6825870067593225,1.7582592544712712,1.5163896418588705,,,,,,,,,
137,137,6.9,-5.6,-20.8,8.29,-0.861,-0.294,-1.17,-1.93,-12.9,3.87,0.0,0.0,0.0,1.0,90.0,6900000000.0,-4.9673680883689375,-16.60867201917533,7.3049454266261105,-0.9453448577987116,-0.14076290938507985,-1.3488043194300159,-1.0116179000276029,-6.238013783482952,3.375836842706728,,,,,,,,,
138,138,6.95,-3.29,-8.13,6.68,-0.523,0.612,-0.732,0.212,0.0372,2.54,0.0,0.0,0.0,1.0,90.0,6950000000.0,-3.852048655432084,-10.334534454598447,6.952149821795954,-0.5771545717446398,0.4457868904788487,-0.8515344613610771,-0.218128733054588,-2.8148021169335857,2.7154919310422536,,,,,,,,,
139,139,7.0,-1.79,-9.63,3.76,0.188,0.404,-0.17600000000000002,1.53,-1.3,-0.223,0.0,0.0,0.0,1.0,90.0,7000000000.0,-2.480946544181277,-9.81318566096858,5.150110678645715,0.08988913518416786,0.41322672569983454,-0.3069161570167793,0.9154941015392704,-1.988457609600996,0.3939645585285319,,,,,,,,,
140,140,7.05,0.299,-9.51,4.53,0.799,-0.0935,0.3,3.66,-1.26,0.431,0.0,0.0,0.0,1.0,90.0,7050000000.0,-0.6324981632602573,-9.588831289215412,4.80004461127204,0.7080752872068728,0.018387311794314187,0.18238183330837585,2.695245584117408,-1.5910743958325335,0.4232240493557716,,,,,,,,,
141,141,7.1,-5.31,-8.32,5.26,1.89,-0.11,0.236,-1.86,-0.374,0.66,0.0,0.0,0.0,1.0,90.0,7100000000.0,-3.7426732940651473,-8.649907828213635,5.059699724860068,1.7384493683880833,-0.08165156086318938,0.22560899259298856,-0.2587305244073295,-0.9271443098687526,0.6102866390933457,,,,,,,,,
142,142,7.15,-6.79,-8.19,9.56,1.87,1.13,0.616,-3.02,-0.787,4.35,0.0,0.0,0.0,1.0,90.0,7150000000.0,-5.768908678750867,-8.309580044995629,7.600218947453049,1.8531321110894936,0.8624624220073465,0.5403436190676715,-2.0493527482850986,-0.8506937455607818,3.5648112389897766,,,,,,,,,
143,143,7.2,-7.65,-14.1,9.6,1.06,0.307,0.52,-3.54,-7.3,3.88,0.0,0.0,0.0,1.0,90.0,7200000000.0,-7.019688265484161,-12.594436701316507,8.72913977268219,1.1616981896027287,0.4296483622564927,0.5239425050953852,-3.0160045258848633,-4.368875249097696,3.8138231872359785,,,,,,,,,
144,144,7.25,-7.15,-6.06,4.33,1.55,-0.932,0.865,-2.66,0.29,-1.63,0.0,0.0,0.0,1.0,90.0,7250000000.0,-7.106335504043689,-7.759014881633179,6.245728083721027,1.5002105097944047,-0.6313425096944547,0.7989042873800107,-2.785143513514216,-1.8273975198810264,-0.487017109344329,,,,,,,,,
145,145,7.3,10.5,0.85,2.89,1.69,-0.841,0.747,14.5,6.48,-4.1,0.0,0.0,0.0,1.0,90.0,7300000000.0,4.600509177245029,-1.38842472089324,4.351345460375379,1.6656645618140324,-0.7947067925804416,0.7570588479766892,8.423890087006537,2.704397117656772,-3.3414195166215386,,,,,,,,,
146,146,7.35,-1.65,-5.63,15.1,3.07,0.29,-0.269,2.03,-0.833,7.37,0.0,0.0,0.0,1.0,90.0,7350000000.0,0.44440640270353615,-4.527150668618901,10.419198765350053,2.8899310229999813,0.05049233844052658,-0.07015346721995086,4.277593639542741,0.7747004547829199,5.121034654711143,,,,,,,,,
147,147,7.4,-11.6,-7.8,12.3,2.74,0.6779999999999999,0.183,-7.95,-4.22,3.91,0.0,0.0,0.0,1.0,90.0,7400000000.0,-7.564187973348894,-6.949028571271214,11.480952745620208,2.7592247009852393,0.5394437448461535,0.1339397639008634,-3.6517305060182337,-1.9499742318618571,4.164268407936777,,,,,,,,,
148,148,7.45,-1.44,-4.7,6.79,1.16,-0.8809999999999999,1.09,2.07,-2.13,-2.0,0.0,0.0,0.0,1.0,90.0,7450000000.0,-3.492079003445732,-5.2847684137768685,8.832806204363132,1.3650582888776237,-0.5673602517215834,0.9047189792642896,0.058685244748077015,-2.0481807189673806,-0.7057527296296584,,,,,,,,,
149,149,7.5,2.32,-2.01,3.23,0.237,0.315,0.59,5.71,0.0893,-5.73,0.0,0.0,0.0,1.0,90.0,7500000000.0,0.37250175338326,-2.8614705422636137,5.669898261172693,0.3816436763849953,0.12017127921913152,0.6509913892198782,3.723438005221369,-0.8821568696322166,-4.675111115849246,,,,,,,,,
150,150,7.55,0.654,-0.247,5.03,-0.6559999999999999,1.23,0.108,4.47,1.83,-3.76,0.0,0.0,0.0,1.0,90.0,7550000000.0,0.5596761978453615,-0.9267868956796548,5.308661666052505,-0.522949627813319,0.984945336263372,0.21322978764077927,4.2075668252137515,0.5973604033537254,-3.9521363475679214,,,,,,,,,
151,151,7.6,-1.94,-0.429,5.36,-1.79,1.15,-0.371,2.37,2.16,-3.06,0.0,0.0,0.0,1.0,90.0,7600000000.0,-1.1024142277767124,-0.5584292616350366,5.337643365785898,-1.6275342307212948,1.1135552428643742,-0.25777835424924583,3.015945271496743,1.4498009059595611,-3.2473125369567697,,,,,,,,,
152,152,7.65,-4.68,-1.3,7.69,-2.59,1.27,-0.6679999999999999,0.0396,2.28,-0.13,0.0,0.0,0.0,1.0,90.0,7650000000.0,-3.48123058909018,-1.107184606749217,6.6656007176019,-2.466589117652617,1.2354563488449006,-0.5885005012727605,1.0858511342233357,1.9026854170430405,-0.7845096598050105,,,,,,,,,
153,153,7.7,-3.11,-4.15,7.02,-2.7,0.8190000000000001,-0.7090000000000001,1.91,0.562,0.0453,0.0,0.0,0.0,1.0,90.0,7700000000.0,-3.2343910309935624,-3.358839485452052,6.865666935843271,-2.670071262391709,0.9109552537737624,-0.6856476220455472,1.6202934399500581,1.1713238731929454,-0.1289264967877588,,,,,,,,,
154,154,7.75,-2.07,-7.12,5.93,-2.62,1.1,-1.33,3.02,-1.3,-0.11,0.0,0.0,0.0,1.0,90.0,7750000000.0,-2.4601614517314423,-6.142062850839454,6.337462170474348,-2.6264202168019213,1.0582581725972888,-1.2051268528338432,2.5279722009859267,-0.17681578276380885,-0.11397379904335962,,,,,,,,,
155,155,7.8,-4.01,-11.4,5.48,-2.3,0.914,-1.44,0.888,-4.5,0.508,0.0,0.0,0.0,1.0,90.0,7800000000.0,-3.4906837793884944,-10.032886668177893,5.853405831568392,-2.3418547275380317,0.9458527693546168,-1.3944824718952886,1.4644864762581082,-2.5351696427892243,0.3774106486891061,,,,,,,,,
156,156,7.85,-5.28,-11.5,6.49,-1.33,0.713,-1.25,-0.698,-3.83,2.41,0.0,0.0,0.0,1.0,90.0,7850000000.0,-4.680440133389143,-11.118536752306836,6.2127771825309415,-1.4597436740244314,0.7644148346264527,-1.2780001852900174,0.062161774175121476,-3.2415165939330755,1.9832384400501493,,,,,,,,,
157,157,7.9,-4.7,-13.5,7.57,-0.422,0.426,-0.617,-0.423,-5.43,4.02,0.0,0.0,0.0,1.0,90.0,7900000000.0,-4.6934457975970085,-12.880797185178126,6.978959561688041,-0.555063202140313,0.5007233660067165,-0.7450994540971372,-0.2524549203496293,-4.435362986803375,3.5923623619544935,,,,,,,,,
158,158,7.95,-3.69,-11.3,8.68,0.617,0.0464,0.0398,0.472,-3.14,5.14,0.0,0.0,0.0,1.0,90.0,7950000000.0,-4.0262323717259045,-11.711022258604011,7.9392346633672535,0.466713844935228,0.14671643968268375,-0.1123107019074936,0.21733808831020626,-3.7287254948175166,4.815058529865153,,,,,,,,,
159,159,8.0,-0.117,-8.16,6.81,1.17,0.608,0.35600000000000004,4.21,-0.266,2.92,0.0,0.0,0.0,1.0,90.0,8000000000.0,-1.4268966835185892,-9.083299031069668,7.301756701546829,1.079822093320666,0.5061467055173512,0.2652430691928425,2.8064911327295743,-1.8397631882454852,3.3178857730895044,,,,,,,,,
160,160,8.05,-4.34,-12.8,6.61,1.43,0.638,0.17,0.23,-5.16,2.44,0.0,0.0,0.0,1.0,90.0,8050000000.0,-3.3638840733752176,-11.833622976160724,6.911244827420523,1.3850988890936808,0.6088862672229945,0.18845776694081492,1.135693571294095,-3.6509959620247616,2.624320582588516,,,,,,,,,
161,161,8.1,-6.59,-10.1,8.27,2.38,0.139,0.765,-1.76,-3.01,3.51,0.0,0.0,0.0,1.0,90.0,8100000000.0,-5.509000520490332,-10.550758540979974,7.678292416421661,2.2524303165903854,0.2427527906775972,0.6532681697806944,-0.7420997143198123,-3.3013242275273496,3.32404310471357,,,,,,,,,
162,162,8.15,-3.17,-4.3,6.42,2.55,-0.585,0.378,1.88,1.99,0.8390000000000001,0.0,0.0,0.0,1.0,90.0,8150000000.0,-3.953747020783737,-5.925256078682025,6.967958575516205,2.5118445080280734,-0.40222881302628416,0.43134597774837546,0.9582740040296244,-0.414837251243966,1.360758621974555,,,,,,,,,
163,163,8.2,-5.01,-4.13,5.86,2.54,-2.34,-0.542,-0.463,1.4,-0.845,0.0,0.0,0.0,1.0,90.0,8200000000.0,-4.656073308299807,-4.596783528991043,6.342491543275603,2.536389768739047,-1.9121322031461427,-0.35336903410756226,0.03660922011190515,0.5751803296625918,-0.3818798456961556,,,,,,,,,
164,164,8.25,-0.464,-8.11,7.69,3.06,-0.528,-0.181,3.56,-3.51,0.0177,0.0,0.0,0.0,1.0,90.0,8250000000.0,-1.8686703726989349,-7.196530461866822,7.103189886449258,2.9928607712185498,-0.8336219967592629,-0.21440449650012836,2.3214502436918827,-1.6533392736560613,-0.06619562096503108,,,,,,,,,
165,165,8.3,-0.713,-3.15,7.15,2.33,0.764,-0.17,3.29,0.382,-1.08,0.0,0.0,0.0,1.0,90.0,8300000000.0,-1.1002393974725204,-4.202136001989424,7.129615284136299,2.414994315275618,0.4112385884017116,-0.1786054337366346,2.9495333328577398,-0.5430349263039744,-0.8671420816836158,,,,,,,,,
166,166,8.35,-0.7040000000000001,-1.76,5.27,1.43,0.214,0.449,3.57,0.939,-3.13,0.0,0.0,0.0,1.0,90.0,8350000000.0,-0.8367709927945051,-2.3949782938150506,6.07982133815909,1.5562994526380591,0.2575510807416984,0.3273723167797333,3.3518922121045005,0.265434627213232,-2.654891368630806,,,,,,,,,
167,167,8.4,1.64,0.51,2.61,-0.141,0.281,-0.248,5.97,2.86,-5.87,0.0,0.0,0.0,1.0,90.0,8400000000.0,0.8100892041862571,-0.24532165154148175,4.121030432178473,0.07663381155211567,0.2758223745092697,-0.13649490362837158,5.0496771214176706,1.680804111169805,-5.1949570180841365,,,,,,,,,
168,168,8.45,-2.21,0.34,3.53,-1.59,0.8,-0.884,2.32,3.09,-4.72,0.0,0.0,0.0,1.0,90.0,8450000000.0,-1.1980354095646175,0.1878108749906543,3.7873806721699617,-1.3762982735737899,0.6842594656012091,-0.739136193752242,3.279541785433612,2.449538959036209,-4.819721615242462,,,,,,,,,
169,169,8.5,-2.04,-1.12,6.98,-2.47,1.23,-1.11,2.54,4.15,-4.16,0.0,0.0,0.0,1.0,90.0,8500000000.0,-1.7578763962666706,-0.7799568910290015,5.589684867238705,-2.329761673038725,1.1094982935141755,-1.03812793489904,2.7999652552749783,3.377162877698116,-4.298514759598438,,,,,,,,,
170,170,8.55,-1.48,-1.72,5.98,-2.58,1.33,-1.69,3.47,3.33,-0.8190000000000001,0.0,0.0,0.0,1.0,90.0,8550000000.0,-1.5731102030033042,-1.4755799824860172,5.810026398474804,-2.547913479103516,1.2813123631696657,-1.5636695759450223,3.2344679993198966,3.3514348658882267,-1.549557498419733,,,,,,,,,
171,171,8.6,-5.92,-8.68,7.56,-2.39,0.395,-1.85,-1.16,-2.39,1.73,0.0,0.0,0.0,1.0,90.0,8600000000.0,-4.463454112534773,-6.806783346110551,6.797925147888432,-2.4102483232310488,0.5907013695047646,-1.7945102091251257,0.3847526325868165,0.21940656335396724,1.0414254658348456,,,,,,,,,
172,172,8.65,-7.59,-12.7,8.16,-2.37,-0.682,-1.14,-3.44,-5.42,3.1,0.0,0.0,0.0,1.0,90.0,8650000000.0,-6.5423642225570235,-11.167708170553244,7.566846424810928,-2.3751606843668442,-0.400982366109192,-1.266841721511387,-2.0955149671709186,-2.8569639424046587,2.667782458546396,,,,,,,,,
173,173,8.7,-6.51,-9.3,6.74,-1.59,-0.466,-0.0164,-2.75,-1.37,2.37,0.0,0.0,0.0,1.0,90.0,8700000000.0,-6.5208446822111865,-9.785621809917547,7.1000732111253155,-1.690676143704834,-0.4516438357388214,-0.25873112464628045,-2.519934048116553,-2.045805554089433,2.4325221926274216,,,,,,,,,
174,174,8.75,-1.11,-12.3,5.54,-0.616,-0.573,0.318,2.63,-4.15,1.56,0.0,0.0,0.0,1.0,90.0,8750000000.0,-2.9230535287251427,-11.646238192754225,6.219377376056527,-0.7537988206460754,-0.5462040779682438,0.2062315657668028,0.8196844527911242,-3.1936713560792125,1.7431943570183883,,,,,,,,,
175,175,8.8,-1.35,-10.1,6.84,0.7509999999999999,-0.621,0.503,2.43,-2.02,2.8,0.0,0.0,0.0,1.0,90.0,8800000000.0,-1.8770952114594104,-10.50203673708378,6.5697326524481685,0.5580492953156347,-0.6044847510243371,0.4454873578513772,1.8639385436106015,-2.553418181820022,2.578113482339516,,,,,,,,,
176,176,8.85,-2.09,-8.79,5.79,1.42,0.217,0.306,1.8,-1.02,1.24,0.0,0.0,0.0,1.0,90.0,8850000000.0,-2.0186602910279734,-9.235145605535882,6.129556312398468,1.3094775565914518,0.035612832633557516,0.33303214547552235,1.8224757800745264,-1.716918381813267,1.5209497662655274,,,,,,,,,
177,177,8.9,-5.35,-13.1,10.2,2.21,-0.0819,0.5710000000000001,-1.31,-5.77,5.05,0.0,0.0,0.0,1.0,90.0,8900000000.0,-4.233742210155111,-12.095101834975624,8.427411644669236,2.0945318207952424,-0.05595269083580778,0.5248826664220437,-0.2088655045861878,-3.9279277105754633,4.309042208926687,,,,,,,,,
178,178,8.95,-2.93,-9.88,5.73,2.17,-0.706,0.923,1.37,-3.34,-0.175,0.0,0.0,0.0,1.0,90.0,8950000000.0,-3.3668550164114537,-10.45594736947434,6.904663154983621,2.160323266322441,-0.5624668970945901,0.8458462697509006,0.8149938883787542,-3.607205363713016,0.7664676681129485,,,,,,,,,
179,179,9.0,-2.95,-10.1,9.02,3.32,-0.655,0.8590000000000001,1.26,-4.64,2.06,0.0,0.0,0.0,1.0,90.0,9000000000.0,-3.089678861702924,-10.192549941960877,8.098817822524415,3.1713020382136947,-0.6345682936393584,0.8564508761274454,1.1035705118127497,-4.170608350917638,1.7884104361533155,,,,,,,,,
180,180,9.05,-0.618,-0.618,5.59,2.87,-0.526,0.382,3.44,3.53,-2.32,0.0,0.0,0.0,1.0,90.0,9050000000.0,-1.4462045072665506,-3.1074729025100734,6.6825347897304574,2.908633926534018,-0.5499723369910453,0.4739468789881499,2.618693441469003,0.030174786902863463,-1.4573997746731513,,,,,,,,,
181,181,9.1,0.0239,-0.8640000000000001,5.78,2.26,0.0977,0.155,4.07,2.15,-2.63,0.0,0.0,0.0,1.0,90.0,9100000000.0,-0.4686992715910074,-1.4473240454376497,6.173034068585648,2.34317015650126,-0.04530867653868576,0.2168107631399808,3.5598337849477515,1.1865673780085528,-2.383801427338692,,,,,,,,,
182,182,9.15,1.24,-2.08,3.03,0.818,0.269,0.0306,5.41,0.11,-5.57,0.0,0.0,0.0,1.0,90.0,9150000000.0,0.667452943990595,-1.915498252276452,4.398721843072655,1.0135627953057174,0.1995993658044974,0.06668697873627233,4.759625591390777,0.5992857112252823,-4.901027188202778,,,,,,,,,
183,183,9.2,-0.982,-0.7609999999999999,4.94,-0.813,0.7070000000000001,-0.421,3.38,1.44,-3.56,0.0,0.0,0.0,1.0,90.0,9200000000.0,-0.42930505779834893,-1.0611803738581091,4.704285360065081,-0.5787915978423774,0.5949638973469755,-0.32648801425756224,3.864968956623767,1.0579064461806869,-3.84156147401439,,,,,,,,,
184,184,9.25,-1.98,0.584,4.4,-2.07,0.795,-0.848,2.63,3.47,-3.76,0.0,0.0,0.0,1.0,90.0,9250000000.0,-1.4603966813525886,0.1562376423423628,4.532509601832558,-1.8787918604678688,0.7508312309877944,-0.7469328379656965,3.0641189528733843,2.3737352253905497,-3.77712460614636,,,,,,,,,
185,185,9.3,-2.32,-0.117,4.97,-2.62,1.41,-1.11,2.52,3.92,-2.54,0.0,0.0,0.0,1.0,90.0,9300000000.0,-2.0319660323454816,-0.04595564534601726,4.779482484003981,-2.5249595383195085,1.2644528388273977,-1.0396388966077743,2.7112698235349555,3.2172430419695384,-2.7997461455076813,,,,,,,,,
186,186,9.35,-2.1,-4.38,6.06,-2.89,1.43,-1.66,2.96,0.946,-0.443,0.0,0.0,0.0,1.0,90.0,9350000000.0,-2.0772032695745817,-3.253107840362668,5.502362895678595,-2.843193296248173,1.3934464751419258,-1.5397762143610991,2.8725658712577324,1.9782500744803582,-0.937821446658615,,,,,,,,,
187,187,9.4,-4.63,-18.7,6.49,-3.05,-0.158,-2.21,0.16899999999999998,-12.1,1.13,0.0,0.0,0.0,1.0,90.0,9400000000.0,-3.77461475868714,-14.683663501729724,6.059905743853006,-3.023482462301589,0.18456566254017925,-2.080113062892362,1.1193631471306014,-5.701620742225237,0.6958410521632363,,,,,,,,,
188,188,9.45,-6.36,-10.7,11.6,-1.95,-0.044000000000000004,-1.3,-2.38,-2.88,7.2,0.0,0.0,0.0,1.0,90.0,9450000000.0,-5.493695087323769,-11.735789790096106,9.187411632125816,-2.087645807021391,0.006468224627698777,-1.451183077554704,-1.1498965988886196,-4.162389572632232,5.8343893003852925,,,,,,,,,
189,189,9.5,-7.19,-10.7,9.34,-0.006409999999999999,-0.4970000000000001,-0.421,-3.6,-2.43,5.39,0.0,0.0,0.0,1.0,90.0,9500000000.0,-6.621606049267996,-10.969314934038147,9.273551224938489,-0.2732735079971469,-0.3858321828116385,-0.620645791770657,-2.738734450154303,-3.2173483083809917,5.483303690028642,,,,,,,,,
190,190,9.55,-4.2,-10.3,5.53,1.15,-0.257,0.5920000000000001,-0.665,-2.21,1.31,0.0,0.0,0.0,1.0,90.0,9550000000.0,-5.011426115775191,-10.47402831124297,7.1602339246575335,0.9675027532842396,-0.28544666743830155,0.35699359730876845,-1.3939634986349407,-2.667826575759776,2.1862250883862866,,,,,,,,,
191,191,9.6,-4.1,-9.44,6.17,1.27,-0.35200000000000004,0.959,-0.342,-1.75,1.39,0.0,0.0,0.0,1.0,90.0,9600000000.0,-4.405398524749702,-9.708856763619368,6.6012250278607025,1.231212703157102,-0.3373047530086228,0.8423333095718141,-0.7117884210613459,-2.167140105091455,1.557175082164056,,,,,,,,,
192,192,9.65,-1.41,-8.5,5.63,1.64,-0.363,0.973,2.77,-1.38,0.354,0.0,0.0,0.0,1.0,90.0,9650000000.0,-2.413691296944667,-8.814314114011475,6.05294709503746,1.5875838164625953,-0.3573263896194225,0.94767725557548,1.546074416888026,-1.7377448206926056,0.6066181491891882,,,,,,,,,
193,193,9.7,-5.8,-11.3,9.94,2.14,-1.29,0.931,-1.61,-4.89,3.85,0.0,0.0,0.0,1.0,90.0,9700000000.0,-4.665323514981381,-10.653698461341572,8.247274147395228,2.06916731020012,-1.0840618578901795,0.934231987753254,-0.5005701086451031,-3.457341414654805,3.1690207995782234,,,,,,,,,
194,194,9.75,-2.53,-6.16,7.14,2.96,-1.71,0.474,1.38,-0.708,-0.0203,0.0,0.0,0.0,1.0,90.0,9750000000.0,-3.2454993236620293,-7.328403698868384,7.622193339214728,2.8457742757019067,-1.5717903516311071,0.563191315526482,0.7189380467837709,-1.9575395089652283,0.6493284881856516,,,,,,,,,
195,195,9.8,-1.97,-6.4,8.1,3.25,-0.415,0.241,1.52,-2.24,-0.0649,0.0,0.0,0.0,1.0,90.0,9800000000.0,-2.3973914289308857,-6.641393753294093,7.891925976625696,3.1981687301001207,-0.6704239904777792,0.3034395196623745,1.238409009167387,-2.111625427666469,0.08505911820374468,,,,,,,,,
196,196,9.85,-0.7020000000000001,-0.599,5.44,2.21,0.0409,0.475,2.79,2.3,-3.26,0.0,0.0,0.0,1.0,90.0,9850000000.0,-1.2700879153099134,-2.1700791185171857,6.507759594614674,2.336706566456545,-0.11616321983439648,0.4417521889044933,2.244581454847096,0.29497425004048683,-2.5576727499677747,,,,,,,,,
197,197,9.9,1.74,0.5720000000000001,4.06,0.715,0.128,0.465,5.32,2.62,-4.84,0.0,0.0,0.0,1.0,90.0,9900000000.0,0.7313865996514277,-0.1409663089436224,5.1259451627434816,0.9229410004112376,0.07408777644312747,0.4604946604030962,4.2389225319396715,1.563306318871167,-4.360803625855012,,,,,,,,,
198,198,9.95,1.48,0.0934,2.29,-0.8590000000000001,0.55,0.0386,5.2,2.04,-6.57,0.0,0.0,0.0,1.0,90.0,9950000000.0,1.2291563385894175,0.032462559269440805,3.52499140748066,-0.630513167499744,0.4449166619206668,0.12036167449290885,4.862159908349972,1.823348971805942,-6.106158169674561,,,,,,,,,
199,199,10.0,-1.98,-1.5,4.72,-2.16,1.12,-0.41,2.09,1.09,-3.82,0.0,0.0,0.0,1.0,90.0,10000000000.0,-0.9046832118667956,-1.1015453393085382,4.199600055514833,-1.9638837960769857,0.9709388672151612,-0.3072178051891245,3.0644754114583987,1.4232974790219204,-4.300000780273862,,,,,,,,,
200,200,10.0,-2.62,-2.03,5.05,-2.79,1.6,-0.865,1.91,1.69,-2.8,0.0,0.0,0.0,1.0,90.0,10000000000.0,-2.0452354791758203,-1.7885930455528969,4.679669730178871,-2.6840723887592013,1.461100771489149,-0.7569038171866669,2.3158235971395515,1.5687872437803974,-3.1149395118328265,1.2287338950641855,0.7199378333532288,0.2487340495125987,2.7778632417607594,3.232861501533248,2.9674090772852084,2.4470267477878678,2.815834365794946,3.2557629783746114
201,201,10.1,-2.33,-4.45,5.41,-3.33,1.39,-1.66,2.53,0.6559999999999999,-1.41,0.0,0.0,0.0,1.0,90.0,10100000000.0,-2.234581701852496,-3.7580090506116512,5.091957225508106,-3.2471767821117687,1.4056993273001943,-1.484983169170703,2.454712242960249,1.0708498048815445,-1.767968375280442,1.1553139429282624,0.7168256957829697,0.26190313615095007,2.607359382552976,3.331364464552854,2.9452450025466494,2.3046699832746675,2.7875229798327297,3.378585015438849
202,202,10.1,-5.44,-17.0,8.52,-3.06,0.166,-1.77,-0.7290000000000001,-10.4,2.98,0.0,0.0,0.0,1.0,90.0,10100000000.0,-4.365935771313806,-13.556957963701713,7.027163407968768,-3.084000427398082,0.4397306298335781,-1.7147647441864031,0.39014522517260586,-5.186649449399159,1.9831185195130197,1.2110656231212444,0.7213127209663786,0.2494724516716971,2.6178760976471533,3.217792750285555,2.931337893458331,2.370207084760233,2.829364373108839,3.573424385986429
203,203,10.2,-5.37,-11.5,10.2,-2.01,-0.249,-1.27,-1.3,-3.92,5.53,0.0,0.0,0.0,1.0,90.0,10200000000.0,-5.033560367745331,-12.034828392723727,8.818299692934739,-2.147712172477447,-0.09692548460211857,-1.3561937981998853,-0.7058765735136017,-4.495675554173577,4.7852983827300966,1.1732953811172695,0.7092809585646123,0.21300918304103528,2.56052859998932,3.20768722361151,2.955003502012083,2.365498914762642,2.8158274004643955,3.602682173539161
204,204,10.2,-4.96,-8.88,9.0,-0.299,-0.215,-0.88,-1.41,-0.74,4.84,0.0,0.0,0.0,1.0,90.0,10200000000.0,-4.984648465940745,-9.700285101868126,8.920873532809079,-0.5360484906196676,-0.18892867134625665,-0.9722846477722662,-1.162485034188937,-2.44690514036971,4.828514991391517,1.2455593055348215,0.6319161360696006,0.22399820982911112,2.6586668804693514,3.293003986578353,2.961915719859042,2.5658637191622855,2.857589265165204,3.5938321947013554
205,205,10.3,-4.24,-11.9,6.64,1.18,-0.319,0.405,-0.902,-3.81,2.3,0.0,0.0,0.0,1.0,90.0,10300000000.0,-4.489514960708487,-11.328053181044364,7.633269928820501,0.9599620716448498,-0.2902797280399863,0.13808717182101682,-0.9935662522227224,-3.1904912859767407,2.8308859343737742,1.1925488310193268,0.548955516084285,0.2474964619184783,2.7753734876166543,3.326391716906463,3.1460991191201506,2.4970185873801767,2.676850498329347,3.4962133486366875
206,206,10.3,-2.57,-9.22,5.87,1.69,-0.139,0.73,0.952,-1.52,0.919,0.0,0.0,0.0,1.0,90.0,10300000000.0,-3.2131866591843337,-9.768113826797695,6.6378650118230045,1.5963919724474342,-0.1724031758253395,0.6152894304380543,0.2680904833443315,-2.2792163045181235,1.3204188111298938,1.3029035611945285,0.5501353757658877,0.2427954256996558,2.7189633314653987,3.5585902252164754,3.157319046831337,2.736551915351177,2.7171737428378964,3.4595587677972532
207,207,10.4,-2.11,-7.46,6.82,1.69,-0.0782,0.675,1.63,-0.336,1.22,0.0,0.0,0.0,1.0,90.0,10400000000.0,-2.479653204782565,-8.06013130460515,6.740684335700308,1.6779972933807596,-0.09900044102207878,0.6634283152066947,1.15125870625658,-1.2191662458052317,1.2410839150618074,1.1650544948930859,0.579349267658345,0.23348995063354058,2.7212231435551084,3.4942718232498766,3.0840853279777094,2.532125749287374,2.599127066145218,3.22601863492124
208,208,10.4,-6.96,-12.3,9.76,2.63,-0.713,1.0,-3.11,-5.89,3.39,0.0,0.0,0.0,1.0,90.0,10400000000.0,-5.4587356199992,-11.1975944528717,8.445154900221771,2.5079309036070545,-0.5774264090665135,0.934773613615804,-1.612073331208016,-3.7671674285793055,2.938814541767897,1.1541273941424757,0.6122994046984989,0.2523543421701901,2.4860833067694004,3.39217792132645,3.166192134464102,2.5870493284091762,2.7172005582030603,3.349224921100179
209,209,10.5,-4.13,-7.79,6.56,3.35,-1.37,0.926,-0.244,-2.63,-0.815,0.0,0.0,0.0,1.0,90.0,10500000000.0,-4.57522978299457,-8.676006538966545,7.380943254869162,3.2420268018760283,-1.194996543311896,0.9277002941090142,-0.7249080094526841,-3.1468276997977496,-0.026850634291773368,1.1163213472445248,0.6151015400299709,0.2780038008367763,2.4112069679053314,3.4531487287625424,3.0623367296001773,2.66333727753111,2.7896510319614927,3.546752827371212
210,210,10.5,-0.943,-1.03,4.75,2.94,-1.52,0.467,2.59,2.73,-3.59,0.0,0.0,0.0,1.0,90.0,10500000000.0,-2.1600792998747718,-3.0180335021932034,5.895717629760592,2.9787270079765182,-1.4482379049801846,0.5562820721966608,1.424736526009846,0.05905912784356593,-2.8418825506447267,1.0385497344174186,0.6231499550523245,0.23689132394628593,2.4808137421433685,3.5742722820480513,2.9796742167469983,2.517032990034199,2.8879031610525727,3.5044048829716568
211,211,10.6,0.711,-1.9,3.12,1.83,-0.465,0.999,3.81,0.647,-5.83,0.0,0.0,0.0,1.0,90.0,10600000000.0,-0.2510346994559489,-2.1906991952440245,4.3287636051434175,1.9772939279612332,-0.682102916307694,0.9132028624826776,2.9715271421109377,0.3797886157635473,-5.202616023833782,1.1498540090375948,0.5863967355944338,0.21027209734325203,2.4688642001923746,3.5204214740730793,2.78960924957306,2.5684273926636436,2.6254244681026147,3.403332850566697
212,212,10.6,0.0814,0.108,2.28,0.56,0.405,0.511,3.19,1.89,-6.85,0.0,0.0,0.0,1.0,90.0,10600000000.0,-0.02999146265381764,-0.4896833816628488,3.1721912453975625,0.7417305048444156,0.16496327204339534,0.588945455358261,3.113201999733712,1.2036287842051268,-6.504115859701831,1.2213208401440172,0.6166522678663201,0.2170557611196497,2.6725689084390964,3.6019382362812373,2.6337741212332886,2.666141110236907,2.8551576554291653,3.612473890065138
213,213,10.7,3.19,-0.218,5.28,-1.19,0.512,0.227,6.53,1.53,-3.77,0.0,0.0,0.0,1.0,90.0,10700000000.0,2.1110526285244537,-0.2886402274255092,4.362095999512887,-0.9423066470346352,0.4353729032158156,0.2971437306532484,5.3289201343839725,1.3816685600789502,-4.344053831084146,1.2072179902417768,0.5585375438278217,0.21612998449825507,2.7154024918824438,3.42017519891121,3.0326043291053915,2.531183011228678,2.722525690258659,3.400791747892106
214,214,10.7,-2.95,-1.49,2.97,-2.55,1.02,-0.486,0.754,1.02,-5.76,0.0,0.0,0.0,1.0,90.0,10700000000.0,-1.2541540375976248,-1.1776351811407393,3.5762270512683747,-2.343855759571066,0.8909119532463148,-0.33422955260435216,2.3621855293138583,1.1843735925655503,-5.462708703097391,1.2865973468418386,0.5832791614118862,0.2501575638929973,2.5189389029746967,3.3482110271529093,3.3217857576001437,2.675457313918697,2.9104858507828975,3.37894610633789
215,215,10.8,-4.1,-3.86,2.86,-2.93,1.57,-0.563,0.046,-0.133,-5.21,0.0,0.0,0.0,1.0,90.0,10800000000.0,-3.1464203496086496,-3.1625598725094037,3.1719009892077885,-2.8548425447098467,1.4200546484676555,-0.5186651259469757,0.8601903967991336,0.4657289676549733,-5.263058645943787,1.1478226423159623,0.5672504823298202,0.25853529686387505,2.295320726150068,3.372997203876146,3.1949043552545433,2.5587355068436626,2.8482194987504266,3.4202870168024315
216,216,10.8,-1.61,-5.42,5.94,-3.66,1.48,-1.39,2.92,-0.254,-1.06,0.0,0.0,0.0,1.0,90.0,10800000000.0,-2.124820242849297,-4.8330444179064145,4.734554102703399,-3.556759902642886,1.466763838343769,-1.2211384123666382,2.1959314561709427,0.07310734366974607,-1.9424724267441664,1.0527834234267435,0.5795471829566239,0.25928103201735364,2.5947440348385924,3.5082418548830567,3.116043955672772,2.4326336641310755,2.9403484591458944,3.4012783668234636
217,217,10.9,-4.99,-17.2,5.32,-3.61,0.3,-1.98,-0.58,-10.5,-0.282,0.0,0.0,0.0,1.0,90.0,10900000000.0,-4.029941936897896,-13.98447594346498,5.065051350078925,-3.603173272611352,0.5576261925475781,-1.8329353591286364,0.3958012603432757,-5.6946617967227064,-0.6306321148209764,1.1077907837529013,0.6053737330959589,0.22959285133557222,2.6153552001631684,3.28617875270459,3.3427663199167013,2.5574278255961773,2.991452176474774,3.245501257465114
218,218,10.9,-8.7,-15.7,12.6,-1.47,-0.299,-1.02,-5.05,-7.79,8.03,0.0,0.0,0.0,1.0,90.0,10900000000.0,-7.135167448014412,-15.253947489278033,9.31869664045033,-1.7435231408391954,-0.10985346171619847,-1.1775439440099134,-3.135680639079447,-6.837696329022326,6.2116170171479546,1.0905667071325607,0.5695515266812693,0.2074816646521266,2.3756322462991006,3.4003037362242714,2.796689469007411,2.666972256342819,2.897461816158689,3.3704867477407796
219,219,11.0,-4.75,-8.59,11.1,-0.122,0.412,-0.321,-1.38,-0.435,6.81,0.0,0.0,0.0,1.0,90.0,11000000000.0,-5.549216479037511,-10.322689058326947,10.324281978472127,-0.3299175049801057,0.2967726414629981,-0.4869951547433001,-1.9971605386655915,-3.344941258281687,6.6843637087801016,1.1890135116761855,0.5639410674311696,0.21499059895628528,2.448193531528057,3.559129738273091,2.512293275959196,2.751061284801122,2.8624970538195647,3.2488148741022513
220,220,11.0,-3.86,-11.7,6.76,1.33,-0.147,0.5529999999999999,-0.461,-3.66,2.26,0.0,0.0,0.0,1.0,90.0,11000000000.0,-4.426018742818037,-11.341886076167865,8.312166141385564,1.1171594707674226,-0.04901320249565533,0.3514526443799392,-1.0009943725582249,-3.516809993165319,3.1889375847744286,1.2495586961268688,0.5293534373524182,0.2317882274209344,2.60496641925255,3.589736266051883,2.5373408333962444,2.783077311427228,2.800186701227452,3.2539916754576237
221,221,11.1,-1.54,-7.98,4.46,1.47,-0.422,0.81,2.1,-0.457,-0.674,0.0,0.0,0.0,1.0,90.0,11100000000.0,-2.5070405654295724,-8.8541219740017,6.13753322290055,1.4247575487632818,-0.33964299670095577,0.7211351676402734,1.0099318902684666,-1.8476433845909517,0.13706077365374458,1.2653041600161514,0.5019149409021548,0.2731583953230879,2.558397342443108,3.320065413431945,2.9331168527998277,2.756049734096631,2.74203098347696,3.3705089122275025
222,222,11.1,-4.21,-8.71,9.19,2.01,-0.246,0.7390000000000001,-0.396,-1.73,3.45,0.0,0.0,0.0,1.0,90.0,11100000000.0,-3.6393762545372312,-8.74747309528748,7.860717957320321,1.9349581088381127,-0.2666767584096187,0.7355378775766995,0.09821612917630096,-1.7834673811561812,2.7544166745140304,1.2377976317492285,0.5228773545385913,0.26551377857879255,2.337035878394146,3.3151210930753385,3.19843166242141,2.7211901521166157,2.9325104099797863,3.193574597575346
223,223,11.2,-2.87,-10.6,7.6,2.98,-0.853,1.25,1.09,-4.53,0.964,0.0,0.0,0.0,1.0,90.0,11200000000.0,-3.1278007679169506,-10.118325885233217,7.713536853332765,2.8460010030530447,-0.7235374409442371,1.1502990842862393,0.7413660745596049,-3.2817371685767363,1.3399151411723047,1.1803202469508132,0.5335986866544493,0.2626645006506389,2.115731242548293,3.4580868600048773,2.938639523412219,2.603734576837417,2.976363420381072,3.3444898469399496
224,224,11.2,-3.29,-8.42,9.8,3.56,-0.7040000000000001,0.557,0.527,-3.71,2.1,0.0,0.0,0.0,1.0,90.0,11200000000.0,-3.2356506251688337,-8.861580739946211,8.891391529150642,3.468448441901036,-0.7083139431542279,0.6719792214122118,0.6023544187738629,-3.5153601975306623,1.9404128189871857,1.1706152416856987,0.529702344900689,0.2564325305576513,2.417868031228171,3.4176282657908237,2.8494108158522535,2.494827288556096,2.9097245535037755,3.2597031644200016
225,225,11.3,-1.33,-1.68,2.46,2.45,-0.976,0.534,2.34,1.65,-6.0,0.0,0.0,0.0,1.0,90.0,11300000000.0,-1.9685411021153159,-3.5472784141928266,5.2607288647752,2.580589147849069,-0.91689384252435,0.5607398621208646,1.729179123957998,-0.6975882748184894,-4.33283417650083,1.1720164536862885,0.5280452172178114,0.24004293605489233,2.473138508448562,3.408174046854979,2.932917922507276,2.511617582340343,2.807166255242203,3.5231189032253525
226,226,11.3,-1.47,-1.1,1.61,1.71,-0.391,0.7509999999999999,2.0,1.24,-7.26,0.0,0.0,0.0,1.0,90.0,11300000000.0,-1.637050036673189,-1.7363153939933529,3.1998117283047014,1.8216300913683965,-0.5071194934062253,0.7141282567103078,1.904800477457544,0.3593916223903497,-6.6454136433371485,1.065795202231504,0.5737560426661311,0.21168321473008547,2.4222365394330385,3.1907439232650416,3.0001151832613724,2.2681291101536205,2.7569487496767904,2.923896544916823
227,227,11.4,3.22,1.46,0.00239,0.104,-0.153,0.475,6.58,3.21,-9.04,0.0,0.0,0.0,1.0,90.0,11400000000.0,1.5925107490142631,0.6289280010046727,1.3947964827983792,0.3242406830109932,-0.231191016814712,0.5213421944118692,4.936564005551117,1.9144360116434205,-8.537233599114021,1.161568627299512,0.6218816357066888,0.2235195003829248,2.3231185094959184,3.3574660069241733,2.796434739365354,2.3620155309391833,2.8563453678696304,2.633262507535787
228,228,11.4,1.08,-0.108,2.49,-1.67,1.08,0.128,4.71,1.86,-6.4,0.0,0.0,0.0,1.0,90.0,11400000000.0,1.251730963668264,0.08360820056674312,2.0130630834218093,-1.4142912808454366,0.7904837439521608,0.20422831260853985,4.789642279311772,1.8847404590145758,-6.848732766515652,1.1551503050861103,0.5664421790087906,0.22382090062140822,2.4305839792824626,3.5779216765278212,2.8884565782971854,2.249902688668624,2.721124728629197,2.7405410796065546
229,229,11.5,-3.34,-1.64,4.17,-3.18,1.53,-0.514,0.831,1.34,-4.19,0.0,0.0,0.0,1.0,90.0,11500000000.0,-1.80141318394701,-1.1918456664472383,3.2307016955923453,-2.953594563232913,1.3667117918356548,-0.374809925685798,2.2225502202878893,1.5875773910174895,-4.748226487987026,1.3117742494372444,0.5981702579827213,0.24296323333944056,2.3336019734556386,3.1891536072716584,2.771135032124056,2.5706207957248153,2.9309716130036922,2.9808100748305195
230,230,11.5,-4.44,-4.12,4.59,-3.67,1.53,-0.957,1.39,2.83,-3.17,0.0,0.0,0.0,1.0,90.0,11500000000.0,-3.5558683740349784,-3.358652282793053,3.9980557222380937,-3.578139995964558,1.493945279696955,-0.8441736637571525,1.6826597908923668,2.265335226102718,-3.5013638473345097,1.1295145141003906,0.5506261903582929,0.24109880439560222,2.067132408783759,3.27979128591181,2.7518103008197525,2.3448832607875096,2.9756292595598564,3.158614336671866
231,231,11.6,-3.32,-15.3,6.91,-3.6,0.8059999999999999,-1.58,1.48,-9.3,0.846,0.0,0.0,0.0,1.0,90.0,11600000000.0,-3.399034193467556,-12.195137562883167,5.64191255023642,-3.597196948862928,0.9579011008677784,-1.4373995275210356,1.5512394072539168,-4.0437073805120285,-0.06677072050303723,1.0949182888875577,0.5329114983033815,0.23053331768856444,2.1496988886872654,3.3612802980287917,2.7050705843388823,2.316660576032403,2.9924687345548473,2.9546758568772873
232,232,11.6,-3.1,-13.0,7.93,-2.64,0.0794,-1.56,1.23,-5.73,3.0,0.0,0.0,0.0,1.0,90.0,11600000000.0,-3.2001996334327996,-12.790728205824767,6.933588397532986,-2.762735311953868,0.2733766050808444,-1.536240421649815,1.3429227627834823,-4.963602197260381,2.3561020755111404,1.2262474913613641,0.5041785946694203,0.2230186687290579,2.4651508537462687,3.0848912867126295,2.8410773675915,2.4803714997297557,2.9685232119137077,2.867637624415155
233,233,11.7,-7.48,-9.06,9.09,-1.26,0.273,-1.26,-3.61,-1.0,5.06,0.0,0.0,0.0,1.0,90.0,11700000000.0,-6.045934248117828,-10.030024688851963,8.150930501345169,-1.452686094672752,0.27308315741406075,-1.313534396099835,-1.868938130910801,-2.8014050592697783,4.492290653942193,1.1067575330843875,0.48793119076989444,0.22143783861333352,2.6169697318418677,3.288566320276919,2.990949454549902,2.2502646095780454,2.7114720777418375,2.590625761268927
234,234,11.7,-5.95,-10.9,7.79,0.34700000000000003,-0.168,0.0337,-2.32,-2.59,4.06,0.0,0.0,0.0,1.0,90.0,11700000000.0,-5.982145302656853,-10.673797964650845,7.947177233331544,0.11623780676797035,-0.07060704979953564,-0.2273891976543212,-2.16144174213612,-2.686080771678894,4.150763523451717,1.1122932918993194,0.5903702534695074,0.2321593759070708,2.32076748841495,3.2274973144888874,3.020455386741071,2.2533938328110126,2.8601515582278245,2.176190350442389
235,235,11.8,-5.24,-12.0,9.08,1.29,-0.0953,0.7759999999999999,-1.49,-3.92,5.0,0.0,0.0,0.0,1.0,90.0,11800000000.0,-5.488676206453363,-11.655175013048744,8.586680683409691,1.1394959750913811,-0.08984769376203128,0.5815467876642071,-1.726026616099475,-3.3591999839939213,4.821694657186509,1.1872941249420526,0.5707130095484935,0.23971282406739888,2.2061240758126726,3.211003086651507,3.192097182461335,2.2913846865429517,2.764715511403173,2.3100938763141254
236,236,11.8,-2.96,-9.84,7.47,1.31,0.13,1.05,1.13,-2.28,2.75,0.0,0.0,0.0,1.0,90.0,11800000000.0,-3.807303092505815,-10.311962667264527,7.9562896346453025,1.2881373134686758,0.08145673467419501,0.9592154077421902,0.12604352872532745,-2.770482180732792,3.1849721617657307,1.2448477061877659,0.5378893151496189,0.24106987659515283,2.018880664825789,3.037018073290708,3.0818437992485688,2.3613709137501937,2.6515614092456423,2.503300736042712
237,237,11.9,-3.04,-10.1,5.6,2.0,-0.687,0.9,1.39,-3.11,0.386,0.0,0.0,0.0,1.0,90.0,11900000000.0,-3.297106148232221,-10.155112566857158,6.626111995611009,1.908722417156092,-0.5173216209745499,0.9114757145963891,0.9456913600950838,-2.9556935601190157,0.9736710546117472,1.2656145762209452,0.5540808795788043,0.25455165910493066,1.7858747638763406,2.8761739953882937,2.712104529052606,2.4924538157542266,2.781062873002663,3.0246657798263925
238,238,11.9,-3.98,-9.96,6.72,3.19,-1.41,0.877,0.495,-3.86,0.482,0.0,0.0,0.0,1.0,90.0,11900000000.0,-3.7511774953280783,-10.010731128413171,6.679113731067683,3.0257100499623304,-1.212892970750438,0.8836812491834842,0.6534279755665351,-3.4490045615876066,0.5852310479895944,1.1524080418411886,0.5599166685049457,0.2423660592404195,1.6932311621313354,3.098931167093221,2.569556948672561,2.4686093522658195,2.9460845558531976,2.8869658161080296
239,239,12.0,-0.991,-5.08,6.09,3.7,-1.36,0.474,3.13,-0.28300000000000003,-1.41,0.0,0.0,0.0,1.0,90.0,12000000000.0,-1.9158739898229864,-6.362036354057072,6.346546093495769,3.613540169546636,-1.3275181830072915,0.5533947635438541,2.259430280207665,-1.7219074217288792,-0.991082079935338,1.0215351165110906,0.499397478807719,0.2375871020135425,1.944840484008755,2.9970050517693,2.81199930043637,2.0596353362394884,2.780949064937251,2.7764299139388187
240,240,12.0,-1.27,-2.08,6.49,2.81,-0.377,0.16699999999999998,2.52,1.35,-1.88,0.0,0.0,0.0,1.0,90.0,12000000000.0,-1.4864179736011152,-3.19336961917018,6.427528865597192,2.9130327481293112,-0.5868782694866014,0.24188191704162956,2.4284039730411475,-0.04614150062407396,-1.6933631537900349,1.1368745858285183,0.5175454158274594,0.22144178465382502,2.331986197013657,3.2724052101874377,3.055612249037555,2.314804010181578,2.822567392498324,2.589024348505466
241,241,12.1,1.4,-1.13,4.84,1.46,-0.0336,0.373,5.25,1.23,-3.87,0.0,0.0,0.0,1.0,90.0,12100000000.0,0.4328256200106633,-1.66649547984526,5.531333814338171,1.646313095524064,-0.15576608286474494,0.3475897821260757,4.2581466447493765,0.6500104854325073,-3.4129941287927545,1.1776070510442425,0.5653014539841983,0.23538353291311764,2.505954443462812,3.1257182057269097,3.5109253670855436,2.309975911346225,2.76631128038956,2.4959358773470766
242,242,12.1,1.81,0.7020000000000001,1.18,-0.684,0.285,0.038,5.77,2.77,-7.55,0.0,0.0,0.0,1.0,90.0,12100000000.0,1.3485395056179987,0.08616894286344046,3.074909659085514,-0.3851989233541537,0.18767706012305616,0.09799738935377196,5.2385501242472206,1.8064926427225607,-6.681396092269552,1.1358179042849463,0.5634036965420623,0.24927202082419347,2.2904195777698466,3.282083121786356,2.883929352213175,2.146049290289762,2.6929958435281116,2.152235944633341
243,243,12.2,-3.0,-0.0718,3.11,-2.02,0.77,-0.508,1.19,2.6,-5.35,0.0,0.0,0.0,1.0,90.0,12200000000.0,-1.5429012811956944,-0.03072659167904565,3.0947188729927952,-1.8103799351098502,0.6414207204279276,-0.3905598906488473,2.6131548708486383,2.239361292321775,-5.62953930291899,0.9950940201710584,0.48969159916494953,0.23579868588231034,2.2542716517931245,3.2462379299017177,2.8214577943777135,1.8746186947734984,2.393948650999892,1.9356710786930478
244,244,12.2,-2.6,-0.716,5.52,-2.84,1.45,-0.65,1.91,3.06,-2.33,0.0,0.0,0.0,1.0,90.0,12200000000.0,-2.245789704203272,-0.5378224918513631,4.463843669937153,-2.707978353390107,1.2714624558445586,-0.5997214173085751,2.1571744538106272,2.6870304712748743,-3.0227698604478475,1.0204924122112635,0.504154248581758,0.25499764971349115,2.11243687597015,3.1772955128846663,2.5608594462313428,1.9683514555733348,2.575677643073936,2.6734786276983606
245,245,12.3,-1.7,-5.31,3.63,-3.55,1.54,-1.36,3.12,-0.175,-3.2,0.0,0.0,0.0,1.0,90.0,12300000000.0,-1.8828820033895008,-4.0691889777954975,3.9931205505150134,-3.442032927626668,1.4807057924065232,-1.2126607467200088,2.781545469733431,1.1257552021104054,-3.1627888701558344,1.1982438023668496,0.5303008315830042,0.2572746550167035,1.79572682899486,2.9170291493561664,2.3600351505664072,2.3197001567669275,2.7897816135308933,2.8787990564107386
246,246,12.3,-7.05,-21.3,6.47,-3.44,0.433,-1.84,-2.31,-14.7,1.05,0.0,0.0,0.0,1.0,90.0,12300000000.0,-5.318613990617691,-16.819826710974528,5.39137363341935,-3.4402607191436423,0.6643376829896708,-1.7184239277394462,-0.5202092170479995,-7.507402337207794,0.16548453648672326,0.9281991187818399,0.5337216484993819,0.25934482659231417,1.560292257486186,2.9909176538541606,2.2098425078841477,1.8480716871629947,2.883956441304153,2.76692358244463
247,247,12.4,-6.8,-11.6,11.7,-2.12,-0.162,-1.17,-2.67,-3.87,7.42,0.0,0.0,0.0,1.0,90.0,12400000000.0,-6.303620674932731,-12.957204259901,8.952732563626611,-2.2892884574889987,0.020458708370893697,-1.2762825572809628,-1.9143010830796658,-5.5231514514577205,5.8968449646239565,1.0910305427737237,0.5558092793176985,0.24340518218470764,1.7602997518925245,3.180298811055009,2.314267747547204,2.1218390741113526,2.803942934648174,2.534692788086229
248,248,12.4,-4.6,-9.67,9.16,-0.29,-0.0458,-0.532,-0.875,-1.43,5.37,0.0,0.0,0.0,1.0,90.0,12400000000.0,-5.170845274331006,-10.524704042586675,9.069739527024678,-0.5463559181869344,-0.031169809044369064,-0.6762392966398876,-1.2403372972314608,-3.2902834625276185,5.480616062591514,1.0363881210561188,0.6301005946486762,0.22412451520118604,2.410978607037683,3.3141921510363708,2.9157781227286654,2.0614080698082997,2.789019885814707,2.426882284269847
249,249,12.5,-1.95,-8.75,5.57,1.27,0.0183,0.32299999999999995,1.69,-0.565,1.59,0.0,0.0,0.0,1.0,90.0,12500000000.0,-3.0292335345018984,-9.211439721864233,7.09405929820689,1.037100323180436,0.007376866160761394,0.12935101630520796,0.6599217223845555,-1.803605482553153,2.4068721814804874,1.1437565738222546,0.6627054183621504,0.24148611993041094,2.41480653136033,2.9860318210858785,3.307366233289202,2.2133379119774865,2.76086477277093,2.463472124761978
250,250,12.5,-3.6,-10.8,7.41,1.74,0.0281,0.624,0.234,-3.01,2.83,0.0,0.0,0.0,1.0,90.0,12500000000.0,-3.4087488085853703,-10.386959546587924,7.272414722187253,1.6498716946717362,0.023524248618774654,0.5281388099495734,0.3837208957576676,-2.4617095561894438,2.741160196239239,1.0788760150366492,0.5831405300683035,0.23569824741559078,2.181341953277025,2.968787330345992,3.2026566394727363,2.05706992377383,2.3988909213499623,2.2513551224211255
251,251,12.6,-5.34,-10.6,7.99,2.18,-0.168,0.7509999999999999,-1.2,-3.41,2.77,0.0,0.0,0.0,1.0,90.0,12600000000.0,-4.692880848416996,-10.544607763188257,7.677507344726533,2.1120251085012494,-0.12571066807967918,0.7078102896277177,-0.6432871389169468,-2.9790145144395703,2.7639447915448323,1.036185055897109,0.5373255840558139,0.22293764558233523,2.1344217698793395,3.224990933602461,2.804182980518709,2.009624818332487,2.3802651562404176,2.3432857829011264
252,252,12.6,-6.34,-10.4,8.44,2.8,-1.48,1.17,-2.08,-4.13,2.26,0.0,0.0,0.0,1.0,90.0,12600000000.0,-5.788087165543711,-10.43759909452686,8.107951066858455,2.711785354207709,-1.18096744276405,1.080429255821289,-1.5749636312994355,-3.60689229993264,2.3658080345090644,1.0915266730536204,0.48326804500370263,0.2287837248717603,2.063565397592117,2.98743842159441,2.3958067426777525,2.1897408745221245,2.461115944380407,2.8691385561417553
253,253,12.7,-2.99,-6.2,6.8,3.54,-1.84,0.8240000000000001,0.95,-1.19,-0.649,0.0,0.0,0.0,1.0,90.0,12700000000.0,-3.9275766843842943,-7.3018154295829865,7.36958388466753,3.433803319028212,-1.6944829669564694,0.8736950716144108,0.062419479091185615,-2.2884457884144034,-0.01601213111667743,0.9714213586328514,0.4886937905084557,0.23004440042858146,1.8762251215468466,2.930583419363761,2.002717667781825,2.063271748882084,2.5879804925575525,2.8262113937250737
254,254,12.7,0.826,-0.539,6.78,2.88,-0.451,0.649,4.2,2.99,-1.73,0.0,0.0,0.0,1.0,90.0,12700000000.0,-0.7668176711515993,-2.297395519913397,7.03675086729784,2.9510107444997167,-0.7255660816253766,0.6925450908261451,2.745548890745372,0.5910158299228567,-1.370131824077348,1.0385252148344757,0.4906945349921954,0.2176383944944063,1.7253160854303433,2.968761639361855,2.0496694100215143,2.150052595677286,2.6168059114345374,2.4292379605846794
255,255,12.8,1.44,0.35200000000000004,6.04,1.56,0.365,0.541,4.81,2.68,-2.87,0.0,0.0,0.0,1.0,90.0,12800000000.0,0.7005445962567736,-0.3368677238488482,6.474062947717291,1.7383603289791023,0.1241985976105472,0.5703689024491172,4.084299777643665,1.7305842107539828,-2.555088201637433,0.9637379965567234,0.565560815350998,0.20087421773848002,2.1197109533157352,3.3912983135627055,2.4086950801155953,2.0468822013550003,2.7469798709287714,2.521647167547952
256,256,12.8,-0.139,-0.711,2.66,-0.303,0.236,0.326,3.46,1.15,-6.27,0.0,0.0,0.0,1.0,90.0,12800000000.0,0.14231269317908868,-0.6137221124674445,4.32094015125826,-0.041249471218785416,0.21131379844533527,0.37335782161766107,3.6794551923879153,1.4138678734602772,-5.4900186251794185,1.0676178472945648,0.6181857794642,0.20531639775013727,2.406236588262119,3.12750145001938,3.090041010818183,2.171988373289085,2.6585246483177856,2.532580921682315
257,257,12.9,1.4,1.64,5.17,-2.02,0.802,-0.205,5.12,3.9,-3.62,0.0,0.0,0.0,1.0,90.0,12900000000.0,0.9785769842966924,1.0540110696953842,4.800253247647515,-1.7662775046757166,0.6715740824484134,-0.0929163253155838,4.61361659267846,2.7700857044498215,-4.012628254268465,1.2115409890328035,0.6205200333878321,0.19983328005499207,2.0229010745632663,2.760222788753011,2.9384270646792143,2.21302969720516,2.4719282138803402,2.2566937942152623
258,258,12.9,-3.48,-2.97,6.8,-3.01,1.56,-0.588,0.737,0.35700000000000004,-1.41,0.0,0.0,0.0,1.0,90.0,12900000000.0,-1.986030186004727,-1.9237193432547528,5.929154601984617,-2.8505254395713298,1.3638319128974548,-0.4920545576295514,2.0997163905787226,1.4537157059852892,-1.9564467359961435,1.0687037207130663,0.5962149827227963,0.20210877644362016,1.9282516073807165,3.157001425046918,2.8683917521463838,1.9888856921513531,2.41570260515218,2.300686103269503
259,259,13.0,0.5870000000000001,-3.21,3.29,-3.53,1.21,-1.21,5.17,1.57,-3.94,0.0,0.0,0.0,1.0,90.0,13000000000.0,-0.2751650894009916,-2.875554974718089,4.439293468380443,-3.442875313724975,1.2439667394219924,-1.070864776831764,4.090727513477741,1.5171503466506429,-3.523534014255296,1.0966500704924733,0.5774161624105849,0.19899828095919259,1.968362075854442,3.029609605701879,2.463399650073374,2.0474557097505692,2.5117237231877447,2.530243425473201
260,260,13.0,-3.7,-10.2,5.17,-3.48,1.01,-2.19,0.912,-3.79,-0.682,0.0,0.0,0.0,1.0,90.0,13000000000.0,-2.552414145938356,-8.295575349659371,4.8517935010211195,-3.4752397564103084,1.0616607966717182,-1.973115650382589,2.0293929649812488,-1.377969959787806,-1.2786073031980862,1.0822807889460826,0.5531724209463003,0.2055458002840148,1.918433280079632,2.8587046360045663,2.049145749499865,2.1257047210401567,2.685774971836753,2.7698361952423416
261,261,13.1,-10.6,-18.1,12.0,-2.18,-0.988,-1.39,-6.56,-10.4,7.34,0.0,0.0,0.0,1.0,90.0,13100000000.0,-7.903433504680263,-15.55075777472882,8.887114082794376,-2.346080338011632,-0.5354265718755797,-1.5030057118746,-3.540638526853965,-6.2996058193305995,5.530440860899294,1.0461063532500134,0.42468071143490604,0.20250337672013843,1.7885139309479605,2.6213762493589403,2.092042238609058,2.1167019087289694,2.126926039230797,2.447463206420881
262,262,13.1,-6.59,-13.3,14.1,-0.133,0.374,-0.5529999999999999,-3.14,-5.15,9.85,0.0,0.0,0.0,1.0,90.0,13100000000.0,-7.030102410391033,-13.88521830520324,11.829903630703127,-0.4167690871130756,0.17319493794539575,-0.7371076810198063,-3.2808333635480458,-5.672480774368,8.943067433595102,0.9465191164540836,0.49441096737098067,0.2008707666006284,1.9526559338802223,3.16956142214823,1.9937514188145178,2.1255733198015205,2.3533247289512396,2.4670212266527596
263,263,13.2,-3.54,-10.8,5.53,1.09,0.299,0.473,-3.12,-5.25,9.68,0.0,0.0,0.0,1.0,90.0,13200000000.0,-4.709455545662372,-11.602185881682965,8.273468888484642,0.8967967010161744,0.271221728632216,0.23848545985295175,-3.1765364071786983,-5.442011954407729,9.52527418126764,1.0028911941854468,0.5446646896246358,0.17737665284032791,2.2400219167035598,3.355095714114312,2.47960158061321,2.2813690214240894,2.318850700238941,2.3950300022263016
264,264,13.2,-0.4,-4.97,2.89,1.19,-0.618,0.664,3.23,2.7,-2.03,0.0,0.0,0.0,1.0,90.0,13200000000.0,-1.8440025584338555,-6.694430473827798,5.234381757073514,1.1524044729281349,-0.4216562165076331,0.5815367866066685,0.9779608932733416,-1.0004373028002878,0.39614065726975933,0.9545398912810384,0.6028118500865242,0.1667217282167729,2.0596522338099854,2.9377288601033866,2.8942291526350306,2.171494639299326,2.2343217503015467,2.3991531759511138
265,265,13.3,-5.28,-8.73,8.32,1.82,-0.439,0.608,-1.51,-1.49,2.9,0.0,0.0,0.0,1.0,90.0,13300000000.0,-4.128673938271842,-8.200732463206732,6.976281291379478,1.734398556588962,-0.435170430501587,0.6028715083156527,-0.6354267607418635,-1.2675001992998778,2.3742907931935533,1.0260398634020997,0.6366568973803568,0.1719705700266395,1.6828996800969023,2.921306283997412,2.816020939154037,2.308842568990263,2.2973006518675856,2.295193606525789
266,266,13.3,-6.77,-13.5,9.56,2.93,-1.33,1.41,-2.86,-7.15,3.21,0.0,0.0,0.0,1.0,90.0,13300000000.0,-5.8849504631000435,-12.122140661437856,8.43484785310182,2.776695759680164,-1.13241803862527,1.2535813638044035,-2.0780132796385047,-4.476481274216697,3.0345348673390964,0.9121412282085918,0.6168474479071965,0.16123364414593055,1.9012094834185305,3.0156272959862074,2.619455746844653,2.275852430179602,2.2503476585362927,2.393289872535435
267,267,13.4,-4.2,-6.23,8.4,3.63,-1.44,0.5539999999999999,-0.499,-1.17,0.861,0.0,0.0,0.0,1.0,90.0,13400000000.0,-4.7645892388378615,-7.762011934274138,8.41517525435623,3.5205863743946977,-1.3720847011855901,0.6895763774513225,-1.0540580692587551,-2.6727522204625567,1.3173544917111373,0.8802066396481789,0.6133437833261771,0.17510159530564395,1.9819810297464076,3.0444088677221077,2.1724374186971347,2.3583832800881313,2.4086787022592615,2.7292616889319086
268,268,13.4,-1.34,-3.47,4.93,2.69,-0.469,0.884,2.07,0.0779,-3.55,0.0,0.0,0.0,1.0,90.0,13400000000.0,-2.4875035888272907,-4.585963441360948,6.447716685593807,2.796500809134153,-0.6684047704436595,0.8463214013720423,0.971824509768572,-1.1722352506662301,-2.5280522066606164,0.8752585572829722,0.5238006603942952,0.171764578777875,1.759754513115129,2.8484982323722874,1.800173429407049,2.342621432391264,2.311172399398033,2.3992343606033115
269,269,13.5,1.18,0.6609999999999999,2.87,1.39,-0.444,0.662,4.49,3.17,-6.01,0.0,0.0,0.0,1.0,90.0,13500000000.0,-0.04889878894939104,-0.703259772548058,4.428016465545823,1.570346557948962,-0.4935494870655819,0.6977208274413819,3.253283421935332,1.1965112403223068,-5.278931848159008,0.7687087943589568,0.478738261421504,0.15707426070785827,1.7510270183955323,2.8911647960889253,1.855685731306952,2.047201133084569,2.189258756344047,2.059512286420066
270,270,13.5,1.22,-1.23,1.23,-0.123,0.077,0.333,4.37,2.73,-6.16,0.0,0.0,0.0,1.0,90.0,13500000000.0,0.794820301262746,-1.0930426070099368,2.6226654884660925,0.09412695656427772,-0.0489796389481586,0.40368159281477417,3.977449371337302,2.0330495414788405,-5.975011171128031,0.8701619666645088,0.5180695225114778,0.17918046656187356,2.04093326370506,3.1364578001780794,2.159747736219404,2.167308428577183,2.1766448121164625,2.561532467459308
271,271,13.6,-2.42,-1.56,0.364,-1.49,1.1,-0.013999999999999999,1.11,0.8109999999999999,-8.47,0.0,0.0,0.0,1.0,90.0,13600000000.0,-1.342785382194458,-1.438586649086959,1.3475988876236118,-1.2868775771922127,0.8463006586071553,0.06694519554720235,2.1179718283457705,1.3664054353732935,-7.946153378269764,0.9711339188457392,0.5974331632720793,0.17687436148386262,2.0672816400459286,2.95942851126519,2.624703344043771,2.2948728398170024,2.443682558785006,2.6381645543967425
272,272,13.6,-1.84,-0.294,4.75,-3.06,1.65,-0.5710000000000001,2.13,3.07,-3.56,0.0,0.0,0.0,1.0,90.0,13600000000.0,-1.67339447988756,-0.5916032803313443,3.2683295265862613,-2.832643843521258,1.472539910235711,-0.4473684910792982,2.125771906076787,2.29573864397228,-4.480914921757359,0.9603587591832007,0.6293565268781582,0.18241255467369571,1.6500392433408226,2.725167254360206,2.5543114789147774,2.2069654665402725,2.3147166591840325,2.408832233094625
273,273,13.7,-1.23,-3.61,4.14,-3.77,1.79,-1.09,3.24,1.26,-3.11,0.0,0.0,0.0,1.0,90.0,13700000000.0,-1.3785716256881757,-2.8251884217626113,3.760406701975577,-3.6498088203205854,1.7199034961008668,-0.96546034339717,2.848324208900448,1.7307295838119638,-3.397836652639004,0.9124528093023122,0.6041806185621219,0.18601525703062,1.6907087480618583,3.1012656250485624,2.452382297449386,2.106257330424528,2.162580363952122,2.303474372559092
274,274,13.7,-6.51,-18.7,7.03,-3.77,0.446,-1.43,-1.93,-12.2,1.24,0.0,0.0,0.0,1.0,90.0,13700000000.0,-4.790572813380722,-14.572400433206305,5.606164512424192,-3.754588639909653,0.7272830614406034,-1.3399738369744527,-0.25031341490255965,-5.868666552523901,0.2662417233602441,0.9220847683924307,0.6493737417700758,0.19434789158421967,1.9585034655350526,2.9853850327045763,2.3575882951410505,2.252319552239862,2.3443972997442724,2.469725510314508
275,275,13.8,-7.92,-14.5,12.1,-2.25,-0.29600000000000004,-1.33,-3.84,-6.82,7.5,0.0,0.0,0.0,1.0,90.0,13800000000.0,-6.871398712665747,-14.518824792731564,9.272078408554671,-2.442923743333909,-0.07005495664101624,-1.3319329284621941,-2.5781457845995717,-6.38763155612468,5.98120307480357,0.9074123376461333,0.6454410632349302,0.20645682784930966,1.8386825836847733,3.076400732370796,2.038081999152441,2.3199388528096256,2.450207219578514,2.378820796767104
276,276,13.8,-5.2,-10.8,9.71,-0.358,0.361,-0.657,-1.56,-2.59,5.71,0.0,0.0,0.0,1.0,90.0,13800000000.0,-5.7600483491506775,-11.76692952026188,9.519294848839367,-0.6253363974096364,0.2658213200442215,-0.7877995870941736,-1.9179007052186272,-4.315973539320167,5.766941716652895,0.7733718458955601,0.5087104124987847,0.16840803387844386,1.6709701644436727,2.9459997145901884,1.6995164366906883,2.0981836589294653,2.1353280551113643,1.8322014093946704
277,277,13.9,-4.72,-9.45,8.02,1.18,0.421,0.191,-1.64,-2.62,5.59,0.0,0.0,0.0,1.0,90.0,13900000000.0,-5.0684968938273895,-10.052423298346188,8.672910022756179,0.9485132564966748,0.3867359216507632,0.0013121473312759366,-1.7376882296719194,-3.390797601431064,5.627150730913022,0.7671783852220025,0.5642258399713876,0.1657093095330454,1.8564055040715517,3.0841135409166847,1.759571554342395,2.18728294607758,2.297845753125274,2.26767067826818
278,278,13.9,-3.5,-7.04,5.63,1.58,0.055,0.501,0.201,0.7240000000000001,0.932,0.0,0.0,0.0,1.0,90.0,13900000000.0,-4.025568368757321,-7.823258326725341,6.955120115139433,1.4990285458095929,0.12824863546946375,0.4041622744404708,-0.4804917507154156,-1.146121394044349,1.917791909883646,0.7919338642470612,0.5774714175254809,0.15336410442555648,1.9162785975649506,2.905979253399756,2.3141953298164384,2.241266810795165,2.3495220657656573,2.597744708896454
279,279,14.0,-6.17,-11.0,9.09,2.41,-0.708,0.794,-2.3,-3.82,3.7,0.0,0.0,0.0,1.0,90.0,14000000000.0,-5.451448781180236,-10.174017324030082,8.160307088398147,2.293192052784474,-0.5233529161345689,0.7184508696325084,-1.6604026118674595,-2.60475731083375,3.325808356969912,0.8199284636953319,0.6082652458190889,0.13974299266470774,1.7133095725317016,2.718245239967296,2.6047143466428566,2.309871295681178,2.213242833708467,2.4854074143695315
280,280,14.0,-5.99,-10.4,9.63,3.02,-1.02,1.07,-2.02,-4.29,3.12,0.0,0.0,0.0,1.0,90.0,14000000000.0,-5.809543331332913,-10.341242099181628,8.989981289573814,2.9268060656844415,-0.910338296595708,1.0018710806233369,-1.893593559301041,-3.5240793455657347,3.1632113479281765,0.8259880192030795,0.659861750343933,0.14438363531258303,1.625202138228068,3.0734013564727016,2.258275718229997,2.3140529395815,2.3354216564276804,2.3311266577763217
281,281,14.1,-4.3,-5.88,6.89,3.15,-1.25,0.76,-0.373,-0.988,-0.645,0.0,0.0,0.0,1.0,90.0,14100000000.0,-4.805814470058664,-7.039964937424773,7.8044953555650665,3.1213813576247302,-1.175001319571698,0.8068737409738996,-0.9075222356208904,-2.14061468832256,0.15457051003679068,0.7552339666365695,0.6530307671773211,0.12868663202484967,2.049303058599149,3.220723167916817,2.524477519795785,2.217638429259542,2.1578832061099673,2.183460659535788
282,282,14.1,-0.943,-0.5770000000000001,4.4,2.41,-1.23,0.86,2.57,2.94,-4.06,0.0,0.0,0.0,1.0,90.0,14100000000.0,-2.2373430919279227,-2.257431610220848,5.882582523865602,2.5012159399530383,-1.2178560833675611,0.8497043329153321,1.347574044422896,0.6309274885485046,-3.1751104565725714,0.7884836984843193,0.6621162706301872,0.16272283358015727,2.0945865952479297,3.004873877304539,2.371039404639775,2.331414242773574,2.3168298216544567,2.4166004888187658
283,283,14.2,3.0,-0.934,3.62,1.38,-0.365,0.933,6.15,1.55,-5.33,0.0,0.0,0.0,1.0,90.0,14200000000.0,1.2450829987108003,-1.2781046616850975,4.605304609520879,1.5237663187327208,-0.55331408643001,0.916857620896224,4.4618412142017645,1.1322936075142822,-4.877560213716076,0.7901330725210668,0.5813137150946849,0.16164132980494955,1.823371975015885,2.9332781613696177,1.9257607314258909,2.2986913702575054,2.20731856096127,1.9410074324277635
284,284,14.2,1.7,-0.192,1.36,-0.502,0.29100000000000004,0.501,4.84,1.81,-7.72,0.0,0.0,0.0,1.0,90.0,14200000000.0,1.5475674784580469,-0.474397415664131,2.7732584271577583,-0.24224896590508105,0.1045720352250432,0.5815917062945577,4.707068929169434,1.5019913283202384,-7.123202340828562,0.6954741636000851,0.556468778611298,0.14502013422640841,1.9819206743245685,3.0078428240155435,1.7829918601762647,2.0897278178524545,2.2726289779924254,1.8813171601118472
285,285,14.3,-0.342,-0.953,2.54,-1.89,1.01,-0.0121,3.1,1.49,-6.31,0.0,0.0,0.0,1.0,90.0,14300000000.0,0.2911519643177929,-0.8285588389940749,2.6415788672497604,-1.678719449348948,0.8100778291328262,0.10295532519597883,3.6649201798515,1.4954499061834945,-6.48073958522899,0.7759452387204792,0.5352542622240781,0.13363819237533858,1.9846756046694758,2.862474982047054,2.1060495536479986,2.20445033283059,2.27025103912921,2.54001119463198
286,286,14.3,-2.6,-0.7879999999999999,5.29,-3.07,1.73,-0.682,1.41,2.73,-2.94,0.0,0.0,0.0,1.0,90.0,14300000000.0,-1.6312393176185265,-0.7985456699561804,4.136671119240759,-2.8916049674291973,1.5268774719898002,-0.5298784559279811,2.2026542509149976,2.168913232710498,-3.683412278420483,0.9122988182444887,0.5996043311132596,0.12638028941537408,1.6868670552154474,2.7346978553352717,2.3365608764518675,2.439719926674577,2.432993669154492,2.712190915609691
287,287,14.4,-2.05,-5.05,4.33,-3.52,1.59,-1.42,2.42,-0.0847,-2.85,0.0,0.0,0.0,1.0,90.0,14400000000.0,-1.9096825920817784,-3.9445820790325934,4.245809502948598,-3.439424922016362,1.5760623160499576,-1.2474975999746656,2.343598215753982,0.9395375672275011,-3.0249828253112128,0.807590340211808,0.6695549241340872,0.12421415110462883,1.4211484588279886,2.719404659295661,2.446531104367318,2.2180991204260496,2.493093786859455,2.412865872584527
288,288,14.4,-4.8,-18.8,7.32,-3.52,0.37,-1.77,-0.435,-12.3,1.46,0.0,0.0,0.0,1.0,90.0,14400000000.0,-3.8315191491129528,-14.93745123069753,5.981258091279682,-3.5096683583341552,0.63630345009015,-1.6687408919227633,0.5417386728981706,-6.282804439841528,0.518334872948337,0.8874489666905968,0.7015437611416385,0.15132480749497043,1.884097390845722,2.9793603801700845,2.4692796982949865,2.36675805280975,2.3392455410359294,2.482332664161074
289,289,14.5,-5.87,-13.1,10.8,-2.13,-0.13699999999999998,-0.976,-2.06,-5.41,5.96,0.0,0.0,0.0,1.0,90.0,14500000000.0,-5.186950400658338,-13.577754862476645,8.70154452606112,-2.306906117258264,0.0337485394951802,-1.110250711209853,-1.1454313260146556,-5.8066780533236395,4.817470248681656,0.8814949769452756,0.7110825238256355,0.16888848563546538,2.314962520619106,2.974006885899626,2.8464742157080285,2.3333913594253284,2.3146906600370496,2.218409414610312
290,290,14.5,-5.86,-7.48,8.92,-0.507,0.644,-0.6709999999999999,-2.31,0.6709999999999999,4.79,0.0,0.0,0.0,1.0,90.0,14500000000.0,-5.634476161116508,-9.065473557993881,8.824867513188458,-0.7377904331674351,0.5092539999381562,-0.7561252168214978,-1.9006283392893029,-2.2730194622445654,4.795767612025181,0.9018152121220132,0.6751733786391375,0.1776306028367054,1.8330239414481202,2.952865039616006,2.2550235221870096,2.443277211139819,2.2617061568154844,1.924046053972046
291,291,14.6,-5.99,-10.3,8.24,0.912,-0.18600000000000005,0.405,-2.46,-2.15,4.05,0.0,0.0,0.0,1.0,90.0,14600000000.0,-5.870871729170095,-9.97901166962027,8.494696744125106,0.7004579631833491,-0.03248510306610908,0.179978094916468,-2.263368524973839,-2.2059107793492414,4.206581213081875,0.7118548596149163,0.6174143542524045,0.1827076855719837,1.7939058843152949,3.009972417369174,1.9399956616668146,2.23748442633864,2.2760073772227902,1.8979674618847595
292,292,14.6,-4.24,-11.7,9.14,1.67,-0.0788,0.952,-0.565,-4.02,4.32,0.0,0.0,0.0,1.0,90.0,14600000000.0,-4.786468634409224,-11.252526726749418,8.858984890488339,1.5456818107014063,-0.06857348328308735,0.8023849390743009,-1.1620140656175073,-3.195520302328412,4.296186773568464,0.6373128686802321,0.5574315016189731,0.13966734312373363,1.765102556252163,2.680920774793239,2.0944023588182374,2.22905979863113,2.251394349668137,2.1759650596994806
293,293,14.7,-2.51,-9.72,5.47,1.91,-0.527,0.991,1.51,-2.64,0.0075400000000000016,0.0,0.0,0.0,1.0,90.0,14700000000.0,-3.2727939216685433,-10.118471542437828,6.945827886909371,1.863285788047771,-0.4257775753571973,0.9544470744171892,0.5707280034463902,-2.892476727017831,0.9079825202825133,0.7774412369811671,0.5307378992079914,0.14154042463445102,1.5185355293154024,2.4830974966639965,2.23675839366761,2.6151491379694876,2.21027005259407,3.0476649722571567
294,294,14.7,-4.43,-11.0,7.47,2.78,-1.26,1.03,-0.35700000000000004,-4.81,1.08,0.0,0.0,0.0,1.0,90.0,14700000000.0,-4.042245907321384,-10.770794320341992,7.241734513278433,2.6624555960525718,-1.0758003009204082,1.0153580907057036,-0.03088310147824913,-3.938510865362048,1.043883314312683,0.7157567675345763,0.6285982653611623,0.13529376352440856,1.385857429481972,2.4614126088876263,2.327851455902958,2.3510260214579977,2.4294276930273155,2.491675987917472
295,295,14.8,-2.84,-5.44,6.49,3.37,-1.21,0.8690000000000001,1.08,-0.532,-1.04,0.0,0.0,0.0,1.0,90.0,14800000000.0,-3.2428457648385556,-6.826056640776197,6.817363634022682,3.2792760230458544,-1.1803681923870837,0.8973636877178909,0.6895000693079537,-2.080214380066536,-0.6024686826382406,0.7253974592262487,0.603431830920631,0.1480016385854378,1.6102481008940006,2.89380122827027,2.1815530911681056,2.4097248047489255,2.208182372387403,2.424591465528553
296,296,14.8,-0.433,-0.7809999999999999,2.85,2.69,-0.266,0.7809999999999999,3.4,2.67,-5.49,0.0,0.0,0.0,1.0,90.0,14800000000.0,-1.3745167216185823,-2.352771524622062,4.577699109099457,2.7655591317529953,-0.4678962039624598,0.8035508802903727,2.4471994394380965,0.5110900927898494,-4.463815745456541,0.7136733318415104,0.6592482992061051,0.1564129707950536,2.281069840546794,3.2617371124728347,2.8534909978517673,2.211984938373971,2.1642218368190984,2.052350093056105
297,297,14.9,0.929,-1.83,2.86,1.64,-0.269,0.59,4.65,0.597,-5.88,0.0,0.0,0.0,1.0,90.0,14900000000.0,0.15714287381519942,-1.9659255388451924,3.6080199325738818,1.7843232100243525,-0.31291708293652537,0.6313853741818642,3.875666987205719,0.5579550788394873,-5.582658624323576,0.8661839069790808,0.6853309997061894,0.18621968001956718,2.065353594290384,2.719755191243702,2.6751870100470487,2.382172103164175,2.190698298195811,1.9411320415877977
298,298,14.9,3.49,2.05,2.0,-0.485,0.345,0.307,7.14,4.04,-6.88,0.0,0.0,0.0,1.0,90.0,14900000000.0,2.3732338272027302,1.0058216007709315,2.7002571349065274,-0.1940192640460228,0.19972924126436392,0.3698647320922698,5.9925147240223255,2.4574563672408845,-6.607610826498708,0.7151673766307525,0.6340441631080773,0.1787245766906604,1.8033953379443366,2.8436101158953315,2.3400070208673758,2.082629811854495,2.2027428970264245,1.8987978339938065
299,299,15.0,-0.0982,-0.371,3.47,-2.25,1.08,-0.252,3.88,2.19,-5.12,0.0,0.0,0.0,1.0,90.0,15000000000.0,0.7299224204577173,-0.013013444542542052,3.134794013783763,-1.98637478757884,0.8856326830343102,-0.1314848466849764,4.622595682165623,2.3115554318585687,-5.432338069471581,0.7397928046313277,0.5692721190223516,0.15893795694130233,1.7088880497474714,2.51064713809909,2.016099378662521,2.243733881040577,2.2332221429190517,2.3156355650143383
300,300,15.0,-3.69,0.0766,4.54,-2.79,1.61,-0.7490000000000001,0.7559999999999999,3.76,-3.39,0.0,0.0,0.0,1.0,90.0,15000000000.0,-2.208982494629877,0.05329966282360035,3.9280638339385288,-2.6869562642297016,1.4500567724082876,-0.6293277865768943,2.115193815071025,3.101700992207137,-3.818808547510556,0.6646499994891438,0.5598993102533745,0.14370149674702487,1.498311838887022,2.359185744514674,2.0710695745680985,2.2973714924872066,2.4262619100501706,3.2580020127202487
301,301,15.1,-2.49,-6.25,5.43,-3.71,1.54,-1.72,2.38,-1.09,-1.34,0.0,0.0,0.0,1.0,90.0,15100000000.0,-2.3958373003321105,-4.6110828772323735,4.77593990349172,-3.578821701940459,1.5201401411718625,-1.508631656606291,2.2869148485091344,0.8150729428286576,-1.8604496538161783,0.7011869034385272,0.6054958165444099,0.13029979370510295,1.4141888121266177,2.1648023909984055,2.170444932243322,2.229919299053082,2.51407512288725,2.921428302977176
302,302,15.1,-2.78,-25.2,8.3,-3.62,0.3720000000000001,-1.99,1.84,-18.4,2.92,0.0,0.0,0.0,1.0,90.0,15100000000.0,-2.6512756180551893,-19.846688709387763,6.765349835976667,-3.6147198713966233,0.6255140023333214,-1.8967125477568023,1.9971004668436276,-9.667001904937077,1.9162988087807542,0.7804998138028041,0.6655418706523227,0.15221988709733797,1.6646407359575046,2.78345210846006,2.2750500502596345,2.3587036399925534,2.5497729443902135,2.6719197287075986
303,303,15.2,-7.15,-11.1,10.5,-1.72,1.09,-0.949,-2.96,-3.3,6.26,0.0,0.0,0.0,1.0,90.0,15200000000.0,-5.642577738119316,-13.374221509283775,8.873642409052033,-1.9629477918349585,0.9874396356162696,-1.132663296328309,-1.2174696683800486,-6.193718584766165,5.347998457669012,0.7458470518986429,0.6626798101837668,0.15004748412134555,2.310041532252974,3.1808403135997856,2.5272225696894997,2.1316951629730623,2.2647317004702763,2.02478155146646
304,304,15.2,-4.95,-8.52,8.87,0.0736,-0.12,-0.5589999999999999,-1.03,-0.318,5.19,0.0,0.0,0.0,1.0,90.0,15200000000.0,-5.18206724512534,-9.782143529583227,8.871586124021261,-0.18753344931318366,0.12452716100360885,-0.6701739033665934,-1.09589971259689,-2.9884367982564783,5.223173336670802,0.9424348235293111,0.6751785223664837,0.19010731536574552,2.6288248977653543,3.0479740120211756,2.923219736739283,2.2643826670617013,2.0384262679639984,1.879080780555156
305,305,15.3,-3.5,-8.34,6.12,1.39,-0.101,0.5579999999999999,0.377,-0.267,2.13,0.0,0.0,0.0,1.0,90.0,15300000000.0,-4.063623263545931,-8.714970977469285,7.318254867827609,1.187722999518496,-0.051202691749603464,0.3199843214579726,-0.14075679456329626,-1.5038572199510438,2.779441497379272,0.7502558755625496,0.716805823997586,0.18048043658938778,2.241316760752311,2.9371106807385656,2.741014159157691,2.014118154984921,2.315169368924681,1.7460294542905548
306,306,15.3,-4.68,-9.41,6.43,1.92,-0.155,0.626,-0.542,-1.83,1.78,0.0,0.0,0.0,1.0,90.0,15300000000.0,-4.473465772088215,-9.229285812430494,6.816815262910522,1.8261047833052544,-0.1320811346782283,0.5666952477481128,-0.4009541438129769,-1.6817724201386424,1.9898423048678533,0.7578251405907502,0.6171951662167642,0.19280890524057478,1.7655348337009729,2.4888495638078507,2.3828914193144377,2.1546366126546244,2.2437065531460183,2.3114046455615194
307,307,15.4,-6.92,-11.7,11.3,2.11,-0.481,0.82,-2.61,-4.76,5.91,0.0,0.0,0.0,1.0,90.0,15400000000.0,-6.100220930775447,-11.057590961284074,9.347672256721422,2.0735978472350065,-0.4039573055402409,0.7709104409828949,-1.833471497912913,-3.3609861824955267,5.086925175269824,0.7315943149789013,0.513181823931598,0.14665593652791276,1.4674949261410586,2.4130791907070632,2.0168123170208023,2.391331472166754,2.161495096171718,2.89479941876636
308,308,15.4,-4.9,-10.2,8.25,2.88,-1.17,1.29,-0.512,-4.18,1.86,0.0,0.0,0.0,1.0,90.0,15400000000.0,-5.3021673607897375,-10.422981564625351,8.72801200345059,2.77660032801713,-1.0008546356021082,1.1894022729028846,-0.9765264492318696,-3.8077689000551262,2.537523899522474,0.6635200628380891,0.5374139027785566,0.12316442245869784,1.373362938828632,2.0800706756168017,1.9609288356197012,2.2751188095228585,2.175506944142212,3.091794948565994
309,309,15.5,-2.53,-5.7,5.27,3.56,-1.79,0.868,1.5,-1.09,-2.39,0.0,0.0,0.0,1.0,90.0,15500000000.0,-3.458891509844752,-6.928019431278715,6.7758877764148835,3.4595496388244467,-1.6157534761827417,0.9302865852704094,0.6294462266857426,-2.325190232269129,-1.3554191829893725,0.7606665201357369,0.5836699971612249,0.13158601302254105,1.6274250338978407,2.4863668855928496,2.0828811181268714,2.3215070695334776,2.2387521282051397,2.9003615701938488
310,310,15.5,-0.275,0.764,3.59,2.6,-1.04,0.358,3.23,3.99,-4.99,0.0,0.0,0.0,1.0,90.0,15500000000.0,-1.3418511234743191,-1.2359973086491705,4.977383653236902,2.710214449594121,-1.1671286707828326,0.4689070976606231,2.3158478938773106,1.119829118092742,-4.226884719367652,0.7333013545361877,0.6113479666452845,0.14765398429168858,2.0713018425227716,2.979432197980352,2.396873382460379,2.081448491848346,2.0879251623203587,2.250673493276333
311,311,15.6,0.737,0.517,2.32,1.13,0.11,0.191,4.1,2.76,-6.62,0.0,0.0,0.0,1.0,90.0,15600000000.0,0.040423290100993985,0.06120424733011709,3.47723180109144,1.3326207513103592,-0.17199518592653018,0.2448573993383124,3.4728310465689054,2.0145639046730683,-6.11754240535961,0.9420078522835649,0.6806574165007718,0.17632084449512175,2.4960684245212414,3.156717593391953,2.6648496114585143,2.225779342328496,2.057906390628343,1.7642173818774782
312,312,15.6,0.177,0.747,4.89,-0.96,0.821,0.063,3.73,2.83,-4.01,0.0,0.0,0.0,1.0,90.0,15600000000.0,0.13123618765494288,0.5686866467155812,4.274770603638821,-0.6660319386967934,0.601742623704177,0.09824331310965413,3.6395994423049034,2.4593949797456984,-4.452498921116703,0.8188624647960862,0.7436728388752513,0.1779423301464075,2.4142805314527744,3.160630196452905,2.736819207278968,2.0067995847384936,2.196892843899182,1.6224008417573528
313,313,15.7,-0.479,-1.66,4.48,-2.36,0.85,-0.205,3.41,1.12,-4.08,0.0,0.0,0.0,1.0,90.0,15700000000.0,-0.27452344877011386,-1.080520511848857,4.390627145305196,-2.142793257635225,0.795183783947055,-0.14623253117188345,3.4907093333298005,1.7287374017635548,-4.158209660646402,0.7797000722885583,0.6598900004614783,0.20391397317320112,1.8155774039118457,2.651025628348982,2.538297983172821,2.051911585886765,2.2056318078574493,2.1615704016514576
314,314,15.7,-0.575,-0.23,4.7,-2.97,1.24,-0.7559999999999999,3.65,3.72,-3.22,0.0,0.0,0.0,1.0,90.0,15700000000.0,-0.4743169932730686,-0.4511433255849804,4.565274852879663,-2.86393261421234,1.141782784521487,-0.6378292354626935,3.5940058724957265,2.8149973588630512,-3.4169861387112337,0.767009468684237,0.5847343606744706,0.1699431531282044,1.366254870398449,2.4178514229307924,1.9669545541771802,2.0962860558206526,2.3719968807087906,2.636762107342432
315,315,15.8,-3.67,-5.7,2.72,-3.65,1.38,-1.7,0.8540000000000001,-0.313,-4.12,0.0,0.0,0.0,1.0,90.0,15800000000.0,-2.5991978632846013,-4.335247818051734,3.5235764242645726,-3.5492077080298507,1.327400669845493,-1.4941551506404878,1.817172595038728,1.1086336557316103,-3.9723954071883565,0.6426266427004106,0.5154009188880597,0.131603325580642,1.244794729955838,2.1383890281823335,1.8326562821934382,1.9075227897795715,2.303420298340505,2.820044897314699
316,316,15.8,-4.68,-21.6,7.44,-3.7,0.281,-1.59,-0.41,-14.6,1.99,0.0,0.0,0.0,1.0,90.0,15800000000.0,-3.982769442493293,-17.11100253746482,5.734484138705628,-3.6806649139066536,0.5120494988372689,-1.5714256385709588,0.37290038565017,-7.460632851501389,0.7381379097246481,0.7791153612638022,0.573418421265764,0.13677182020811296,1.430330477974268,2.489193888683972,2.0578958876758966,2.084042368657137,2.288034051960222,2.8900563088778255
317,317,15.9,-6.23,-13.7,11.7,-1.58,0.68,-0.7040000000000001,-2.46,-5.76,7.27,0.0,0.0,0.0,1.0,90.0,15900000000.0,-5.477003112925451,-14.586892560061205,9.102149604125307,-1.849354815144664,0.6429158543774169,-0.8721039771977056,-1.4641729376025439,-6.532915384813374,5.898572895564063,0.7926993238645158,0.6497957606822623,0.15230848407455372,1.8708751761234463,2.7124191760002043,2.475700191532735,2.0707543497539813,2.274583518056331,2.2647952187925573
318,318,15.9,-5.19,-7.31,8.17,0.369,0.312,-0.478,-1.58,0.906,4.22,0.0,0.0,0.0,1.0,90.0,15900000000.0,-5.2861683878106245,-9.202060379211623,8.575930590239034,0.08455459108397956,0.3850675665407163,-0.5543759265638144,-1.5392842558445454,-2.4748891769629005,4.572432311940402,0.8426336389907128,0.6434746764510472,0.1774851461254538,2.0853419544929666,3.1214289534206814,2.5321642660302706,1.977811436015127,1.9178167856238482,1.6611494089881225
319,319,16.0,-5.0,-10.1,8.56,1.43,-0.16,0.469,-1.41,-2.08,4.27,0.0,0.0,0.0,1.0,90.0,16000000000.0,-5.095888651972105,-9.86652754602792,8.566937656781857,1.2574821259087472,-0.0396468698955138,0.2706734221913684,-1.4554462512142288,-2.25947189472268,4.3334985492858165,0.8301364224885489,0.77235856670135,0.189010510676175,2.1657413021333904,2.9739770739514366,2.554893608319764,1.9007740256812609,2.1390535448179255,1.495389450317381
320,320,16.0,-5.82,-11.3,6.97,1.94,-0.522,0.7909999999999999,-2.01,-3.8,1.98,0.0,0.0,0.0,1.0,90.0,16000000000.0,-5.577366531965208,-10.927283837697509,7.665430930334449,1.8524851639742368,-0.4154944858855573,0.6901625807679591,-1.8150620965600808,-3.09985021508627,2.4741396066076766,0.7737711110998062,0.7373671323814444,0.1987491906436808,1.7058621609795899,2.6067259790516166,2.569824908584549,2.0378401337462795,2.2750220428528634,1.982811319785171
321,321,16.1,-4.99,-11.9,7.87,2.37,-0.73,1.13,-0.996,-5.13,2.01,0.0,0.0,0.0,1.0,90.0,16100000000.0,-5.186813288298533,-11.647084378248177,7.780914627612604,2.3036422947397406,-0.6605559229623079,1.0447610804974568,-1.2839184213606267,-4.207323690883257,2.107450554181769,0.7240840870595484,0.6279297003331927,0.1781503429221349,1.2826826344630242,2.24637417866064,2.1016194399730392,2.228472946543238,2.3119458564341993,2.551196543408748
322,322,16.1,-3.49,-8.21,7.29,2.89,-0.957,1.39,0.604,-2.45,0.494,0.0,0.0,0.0,1.0,90.0,16100000000.0,-4.058564340466644,-9.103674253036662,7.503782446985625,2.8148152067403887,-0.8915439599679933,1.3230939230559755,-0.05964506236161049,-3.2486805267242542,0.8327594079651581,0.5889743944256051,0.5342841364111081,0.14484874113641757,1.1587437226660182,2.1371604387442464,1.7580517950819468,1.999021585967338,2.2416106803960423,2.8080076669404677
323,323,16.2,-2.99,-3.6,7.59,3.34,-1.85,0.982,0.745,0.785,-0.345,0.0,0.0,0.0,1.0,90.0,16200000000.0,-3.348052113132997,-5.031006934321496,7.552454247664549,3.27265885029886,-1.6383690412536225,1.048102774571747,0.4621494825839726,-1.0482547238558901,-0.09771811611013048,0.7105199380573449,0.4674710983103421,0.13119892464690516,1.4163527639726905,2.322571042569848,2.0018667068766582,2.1784914305597893,1.8470345618500545,2.9583728801336733
324,324,16.2,1.38,-1.39,3.02,2.58,-0.991,0.723,4.69,1.51,-5.74,0.0,0.0,0.0,1.0,90.0,16200000000.0,-0.20426494260271652,-2.3366959943607597,4.993783622924382,2.6688151316820736,-1.1339417048614349,0.7860037446099352,3.203817152975593,0.34730687548299777,-4.555348625614426,0.758966277271971,0.658068052110274,0.1449390739582545,1.8664912562204472,2.736733232924176,2.4954910467847378,2.051321765911158,2.276990366247615,2.2864793010040745
325,325,16.3,-0.194,-1.35,2.27,0.463,0.234,0.439,3.11,0.665,-6.74,0.0,0.0,0.0,1.0,90.0,16300000000.0,-0.19743955740557292,-1.6065502447661242,3.456147547018988,0.7458375147819729,-0.06804707340656703,0.5062480906500373,3.142978734419169,0.5206126657210958,-6.281311311326383,0.8547325934953779,0.6340046242425231,0.18040330486815823,2.155466596646727,3.0273253629222423,2.772682713987984,2.037881562751844,1.9807315737024456,1.760564313681419
326,326,16.3,0.5529999999999999,0.848,1.51,-1.25,0.513,0.0887,4.07,2.92,-7.41,0.0,0.0,0.0,1.0,90.0,16300000000.0,0.30154440360197904,0.20979387198199692,2.3575042312083823,-0.9940865667701002,0.3847024606935988,0.1696193208097127,3.7441316511031895,1.829510061039218,-7.173020864627,0.8007023791663231,0.7427261863609946,0.1743347439469183,1.9398931744923007,2.9573138881166,2.5993754701168847,1.810465572167843,1.9970731245088644,1.4071477701122694
327,327,16.4,-1.8,0.268,3.28,-2.7,1.24,-0.498,2.03,3.19,-5.26,0.0,0.0,0.0,1.0,90.0,16400000000.0,-1.0958192533568212,0.2528658648924421,2.8782734685665754,-2.4812617122929903,1.0511468450678445,-0.3686177648211097,2.632555135779339,2.5716752505835108,-5.6616572580902735,0.8591312883124183,0.7986434976657018,0.21805250322925399,1.7505218200774486,2.651610812591863,2.5641131439689757,1.988881311223192,2.242905117380575,1.9879007871005079
328,328,16.4,-1.73,-1.68,5.12,-3.14,1.64,-0.812,2.55,2.55,-2.63,0.0,0.0,0.0,1.0,90.0,16400000000.0,-1.5175001717058212,-1.1774366798194011,4.143777584946945,-3.0555343092645484,1.5099788261986586,-0.7260740928773741,2.579019923612252,2.5598510902500435,-3.2665256067142527,0.7407006958327176,0.717906622129025,0.19321453280079487,1.2679776255849353,2.224392208804107,2.151634446031962,2.1091942601361824,2.40074854904927,2.5098269955857564
329,329,16.5,-1.05,-11.8,4.41,-3.82,0.952,-1.68,3.43,-6.05,-2.17,0.0,0.0,0.0,1.0,90.0,16500000000.0,-1.206648861641627,-9.038033894192454,4.294065937025944,-3.721977413388579,1.0752040028583243,-1.4951325353744076,3.130861741438641,-2.1369360422068167,-2.4002261275818197,0.6603300864802512,0.5970551146346261,0.15872783945152408,1.1677342137059084,1.9542501996953172,1.6619164042301535,2.072212879999287,2.3657029801292917,3.0082340248035195
330,330,16.5,-6.72,-22.1,9.54,-3.09,0.496,-1.55,-2.53,-14.9,4.34,0.0,0.0,0.0,1.0,90.0,16500000000.0,-4.872598711293764,-18.703766396391188,7.255511656876558,-3.171034332227596,0.6238905844620343,-1.5393668435342682,-0.5400819853163727,-9.099355115390567,2.9248250032455685,0.7113109837689136,0.526330985193015,0.13828127440253715,1.3841835623759087,2.3371323389382073,1.8072089396069309,2.072722154014374,2.085286454353712,2.805588491640578
331,331,16.6,-10.1,-9.78,10.7,-0.901,0.59,-1.32,-6.27,-1.78,6.53,0.0,0.0,0.0,1.0,90.0,16600000000.0,-8.348414529151155,-12.100262891411994,9.200001360271855,-1.1920719510136426,0.5974831579393779,-1.362512550447201,-4.255807185446038,-5.106550601548566,5.77305909992854,0.7809975834265804,0.6424521199774972,0.1441506972764863,1.913932366536148,2.8871713598205035,2.3787855621805973,2.1584586935368266,2.1991859369198345,2.376398396126852
332,332,16.6,-3.39,-9.58,9.34,0.6,-0.326,-0.0286,0.162,-1.39,5.28,0.0,0.0,0.0,1.0,90.0,16600000000.0,-5.051454323162286,-10.235291969554963,9.279033773246637,0.3702141378247503,-0.12209118065434756,-0.287107471980534,-1.390956850306191,-3.0791233510665625,5.3835226524470015,0.8063970556148203,0.6230665087625518,0.1814326243702737,2.447934028931621,3.172960771963424,2.878086332361447,2.0096031898752367,1.927558199102241,1.7145411838464224
333,333,16.7,-2.66,-10.8,7.37,1.59,0.00122,0.713,0.947,-2.93,2.77,0.0,0.0,0.0,1.0,90.0,16700000000.0,-3.4613231279217547,-10.653170748606644,8.201341943920124,1.4335947178032524,-0.02600760836642013,0.5191827555025245,0.12515652014249334,-2.9977746378267924,3.318734130677555,0.7814573060135162,0.718934492878633,0.17396108967295093,2.3311264805675695,2.9734111609620006,2.853148000590362,1.8438952302773122,1.9914131371238641,1.2303111718607507
334,334,16.7,-1.41,-7.06,3.75,1.72,-0.195,0.708,2.48,0.279,-1.47,0.0,0.0,0.0,1.0,90.0,16700000000.0,-2.09735266200862,-7.99425810496579,5.688461018421202,1.6832761140425163,-0.15768578959320315,0.6714078981163634,1.6522204917461014,-1.210250960737959,-0.4645593657397633,0.8778516172017107,0.7356217213007558,0.21161791813944064,1.7941080716816533,2.694580325018123,2.626138293608902,2.108585686955077,2.081734272003833,1.7581226204176232
335,335,16.8,-7.67,-11.4,10.9,2.51,-1.52,1.11,-3.69,-4.74,4.95,0.0,0.0,0.0,1.0,90.0,16800000000.0,-5.802730065934616,-10.514474832960902,8.630489760698037,2.4039944945343583,-1.2191954873532866,1.0250024339140067,-1.8120914815933824,-3.1357753690413497,3.8131611823997096,0.7711165329490798,0.6552392532879712,0.21044613141965154,1.1089597233700685,2.200797262960959,2.203233438383067,2.2511779562438656,2.20969527793466,2.366816614324282
336,336,16.8,-5.77,-9.01,6.8,3.06,-1.71,1.31,-1.81,-3.52,-0.29100000000000004,0.0,0.0,0.0,1.0,90.0,16800000000.0,-5.78096710330635,-9.40117775831722,7.597137934971002,2.9758845750531835,-1.6016284045809766,1.2547684468703926,-1.8107351648915389,-3.345374949124808,0.5707079942271536,0.6760930248510547,0.5570944886385147,0.1527243079223378,0.9655151818793887,1.7672053120024314,1.7066475621131023,2.3747325911258685,2.140618181327483,2.785075068425429
337,337,16.9,1.98,-2.32,6.06,3.06,-1.27,0.7090000000000001,5.45,1.71,-2.17,0.0,0.0,0.0,1.0,90.0,16900000000.0,-0.6205271777226421,-4.161172685242049,6.7293895595145985,3.04921436911294,-1.3432248806350289,0.8147679622834496,2.8976910177529778,-0.5876013924082506,-1.594562132257184,0.6795269875943015,0.5118271367456033,0.12857623471270124,1.1932943873260073,1.781955345330818,1.4953858754952187,2.2308083756146933,1.9091695174188938,2.924684043702836
