,Unnamed: 0,Time (s),Acceleration x (m/s^2),Acceleration y (m/s^2),Acceleration z (m/s^2),Gyroscope x (rad/s),Gyroscope y (rad/s),Gyroscope z (rad/s),Linear Acceleration x (m/s^2),Linear Acceleration y (m/s^2),Linear Acceleration z (m/s^2),Still,Walk,Run,Cycle,SPM/RPM,Timestamps,Acceleration x (m/s^2)_kalman,Acceleration y (m/s^2)_kalman,Acceleration z (m/s^2)_kalman,Gyroscope x (rad/s)_kalman,Gyroscope y (rad/s)_kalman,Gyroscope z (rad/s)_kalman,Linear Acceleration x (m/s^2)_kalman,Linear Acceleration y (m/s^2)_kalman,Linear Acceleration z (m/s^2)_kalman,Acceleration x (m/s^2)_kalman_max_freq,Acceleration y (m/s^2)_kalman_max_freq,Acceleration z (m/s^2)_kalman_max_freq,Gyroscope x (rad/s)_kalman_max_freq,Gyroscope y (rad/s)_kalman_max_freq,Gyroscope z (rad/s)_kalman_max_freq,Linear Acceleration x (m/s^2)_kalman_max_freq,Linear Acceleration y (m/s^2)_kalman_max_freq,Linear Acceleration z (m/s^2)_kalman_max_freq
0,0,0.0459,2.66,4.06,8.37,-0.289,0.5660000000000001,0.165,-0.0585,-1.43,0.7120000000000001,,,,,150,45900000.0,1.0662011341667554,2.484215656693027,5.093237461989914,-0.3080332781850651,1.1044182216925205,0.17621074185840438,-0.44610888749872013,-0.9049673451039154,-0.16915588405784662,,,,,,,,,
1,1,0.0959,0.39,4.38,5.61,-0.317,1.63,0.39,-2.08,-0.979,-2.22,,,,,150,95900000.0,0.9219049883661424,3.2750389847342016,5.203057265666611,-0.31419737113408364,1.1940916730468194,0.3102668762681974,-0.8661054380275608,-0.9356615279087299,-0.7119015817994017,,,,,,,,,
2,2,0.146,1.57,2.17,4.92,-1.2,3.84,0.134,-0.0709,-2.89,-3.32,,,,,150,146000000.0,1.132058251308642,2.6888840426771754,5.1123326586062,-0.9630836339074816,1.858968820400756,0.18845311760021632,-0.5683719331056173,-1.9679905971871223,-1.7040455075698675,,,,,,,,,
3,3,0.196,-3.98,3.74,12.8,0.526,2.48,-0.4270000000000001,-3.77,-0.826,4.11,,,,,150,196000000.0,-0.7663574363013734,3.271365942084305,7.9334909557785585,0.1324771151286317,2.041508249103607,-0.24055932779546366,-1.9040872430786835,-1.3373530941656484,0.7487587849266975,,,,,,,,,
4,4,0.246,-1.94,3.73,8.1,0.11,0.966,1.81,-1.36,-1.08,-0.422,,,,,150,246000000.0,-1.22341778158311,3.527660224085292,7.997606380524456,0.1159350687328798,1.7031878314117606,1.1899446822615591,-1.6693797490089541,-1.1940105790367856,0.2389981114415015,,,,,,,,,
5,5,0.29600000000000004,-1.89,3.03,8.09,-0.76,2.69,1.01,-1.12,-1.71,-0.465,,,,,150,296000000.0,-1.4874528179041522,3.2491063442631094,8.033808029855848,-0.5287234319200279,2.023042255502669,1.0644032643998609,-1.4298905750825501,-1.4818915760554818,-0.07054435276061921,,,,,,,,,
6,6,0.34600000000000003,-1.07,2.06,10.0,-0.913,0.5529999999999999,1.44,0.248,-2.38,1.39,,,,,150,346000000.0,-1.3210879623716971,2.5833226040087434,8.809098262687856,-0.8115383615568261,1.5401798052673068,1.3264463590189008,-0.6960318090662271,-1.9831281704836237,0.5736041446642227,,,,,,,,,
7,7,0.396,-2.91,3.0,8.38,-0.757,0.759,0.7290000000000001,-1.48,-1.08,-0.428,,,,,150,396000000.0,-1.9556968909177768,2.8166355213531955,8.639508734977282,-0.7713999351775821,1.2820626744382224,0.9096249241789084,-1.039273787315287,-1.479058007504215,0.13144415145657645,,,,,,,,,
8,8,0.446,-1.92,1.9,9.59,0.14800000000000002,0.455,0.5329999999999999,-0.345,-2.03,0.746,,,,,150,446000000.0,-1.941428337372828,2.303371710151712,9.01548205335775,-0.09475169017140027,1.0080623762329382,0.6468643541999085,-0.7352022478619669,-1.7865635013726684,0.4028212091031838,,,,,,,,,
9,9,0.496,-2.3,-0.836,9.39,-0.5820000000000001,0.6509999999999999,0.271,-0.506,-4.74,0.5770000000000001,,,,,150,496000000.0,-2.084795059329441,0.5454979513431732,9.1636709386544,-0.4533505025148264,0.8896306064785687,0.38463441490786027,-0.6348079410584401,-3.435013146521011,0.4797426035533962,,,,,,,,,
10,10,0.546,1.92,-3.32,7.2,-2.27,0.665,0.197,4.06,-6.73,-1.74,,,,,150,546000000.0,-0.483404799710939,-1.6189670643961909,8.386600844406088,-1.7903450273464618,0.8150851350384134,0.253727184054402,1.4216615501435197,-5.2740988828222255,-0.5005752809048758,,,,,,,,,
11,11,0.596,-0.929,-3.89,6.8,-3.09,-0.309,0.455,1.06,-6.05,-2.55,,,,,150,596000000.0,-0.6615907343411389,-2.890620065465672,7.7587204800404175,-2.7468484632081003,0.44196094376721656,0.3941495488797351,1.2632410576235948,-5.70716560371472,-1.4056827700647476,,,,,,,,,
12,12,0.6459999999999999,1.71,-7.03,9.28,-2.63,2.09,-1.33,3.99,-7.68,-0.24,,,,,150,646000000.0,0.2867805845561534,-5.208444234591664,8.36075961922849,-2.660851905041946,0.989061458034769,-0.8087408965211822,2.457661207664108,-6.808296450194347,-0.8908694312143539,,,,,,,,,
13,13,0.696,-5.76,-5.44,8.26,-1.86,2.76,-3.51,-2.36,-4.72,-0.907,,,,,150,696000000.0,-2.131267659816029,-5.338102701607117,8.3208843441515,-2.0714511395981123,1.57698846280593,-2.693333028270845,0.34734725910609177,-5.642720626162284,-0.8979933607111313,,,,,,,,,
14,14,0.746,-14.2,-3.2,6.55,-1.75,2.71,-3.21,-9.81,-0.999,-1.93,,,,,150,746000000.0,-6.957443391502642,-4.140883346662552,7.620059997808807,-1.8348736276719029,1.953140410875251,-3.0537969999538537,-4.101948578231516,-3.0508434337092454,-1.3537703310328593,,,,,,,,,
15,15,0.7959999999999999,-13.3,-3.16,5.48,-2.43,0.6829999999999999,-0.8,-8.47,0.383,-2.27,,,,,150,796000000.0,-9.4937754847814,-3.5916429148267905,6.773134337939429,-2.272867197756393,1.5314587344203336,-1.48138653413307,-6.015317778170368,-1.134255166363315,-1.7584154317800835,,,,,,,,,
16,16,0.846,-11.6,-5.61,7.77,-2.91,2.09,-0.737,-6.45,-0.952,0.833,,,,,150,846000000.0,-10.336036289497192,-4.721811442197159,7.1676425880928925,-2.7417761386779453,1.7168930070555786,-0.9620490777886608,-6.2057246910046775,-1.0325300645609978,-0.6139386207463606,,,,,,,,,
17,17,0.8959999999999999,-12.0,-5.58,6.82,-1.74,2.0,0.652,-6.31,-0.00403,1.14,,,,,150,896000000.0,-11.001440790555458,-5.202349576565731,7.030063551547344,-2.004501713595501,1.810883993555964,0.16402735743801464,-6.2514011339203845,-0.4584761792542485,0.1606736053080332,,,,,,,,,
18,18,0.946,-12.6,-1.86,8.04,-1.92,2.1,1.06,-6.13,3.93,3.51,,,,,150,946000000.0,-11.64069077604885,-3.3308184879244696,7.429744593532042,-1.9423111880502384,1.906870008796637,0.7891221098758242,-6.198222966907611,1.990937220210504,1.6398754223590393,,,,,,,,,
19,19,0.996,-5.03,-0.905,5.59,-0.474,1.09,2.38,-5.3,3.58,4.44,,,,,150,996000000.0,-8.997133465673414,-1.9724941461621932,6.7016680758672225,-0.8616822426966648,1.6356703971389608,1.8990327351471432,-5.8047679443730456,2.877867275276887,2.876526908319609,,,,,,,,,
20,20,1.05,-3.19,-0.828,4.69,-0.0565,0.211,0.883,4.74,4.0,1.54,,,,,150,1050000000.0,-6.674911622424211,-1.3316406631691415,5.905553017681337,-0.2690944792960914,1.1626818740665223,1.190175420423507,-1.185767034439464,3.5041819179534683,2.286261027219576,,,,,,,,,
21,21,1.1,-10.1,-3.74,11.5,1.04,-0.852,0.7070000000000001,-2.1,0.795,8.05,,,,,150,1100000000.0,-8.04457465281039,-2.680188834264418,8.119548294865691,0.6943561594252061,0.4938103428067661,0.8530775961992577,-1.5862350744837803,1.9920610635734048,4.831767936034206,,,,,,,,,
22,22,1.15,-12.0,-2.46,0.541,1.19,0.18,-0.22,-3.92,1.55,-3.35,,,,,150,1150000000.0,-9.626314645921141,-2.5568952739625868,5.1203474484969576,1.0591338369547028,0.3896257519250595,0.10442168353885173,-2.6085110467223847,1.7453261267533988,1.2183590057561688,,,,,,,,,
23,23,1.2,-17.1,-5.78,3.0,-0.131,-0.462,1.35,-9.03,-1.96,-1.11,,,,,150,1200000000.0,-12.614976190078735,-4.361655960127871,4.281222642087242,0.1832343092401688,0.1068871896280708,0.9734264912884296,-5.421362205656332,-0.3227893303930989,0.1900588339731488,,,,,,,,,
24,24,1.25,-8.45,-5.55,4.22,-0.982,-0.701,1.87,-0.204,-2.42,-0.0738,,,,,150,1250000000.0,-10.949438571438847,-5.027063072747385,4.256993776301363,-0.6743399785860241,-0.1613302205790806,1.5989404943060688,-3.1359632811105285,-1.4933405227758882,0.07352780097383835,,,,,,,,,
25,25,1.3,3.74,-8.2,2.5,-0.458,0.364,0.78,12.2,-5.54,-1.66,,,,,150,1300000000.0,-5.075260588923559,-6.803732339103174,3.5616657235256546,-0.5151208421637401,0.01307867688627512,1.0275888348816655,3.581759611509544,-3.7519700099827813,-0.692070152716056,,,,,,,,,
26,26,1.35,6.55,-2.83,3.33,-0.338,0.0128,-1.36,15.0,-0.0306,-0.715,,,,,150,1350000000.0,-0.4264205031037481,-4.5786617368742535,3.4699842778325496,-0.3847657022984107,0.012986156441565715,-0.6381644314828256,8.583374078054739,-1.6748997342392524,-0.7021969152684439,,,,,,,,,
27,27,1.4,-5.85,-8.83,3.82,-0.463,-1.35,-6.04,1.99,-4.71,-0.402,,,,,150,1400000000.0,-2.595262459289871,-6.959176233270532,3.608502528382917,-0.4423435830546191,-0.4395233536577304,-4.406872424126832,5.695230721247492,-3.368930859477687,-0.5696174777402792,,,,,,,,,
28,28,1.45,-22.6,-7.82,2.59,-1.97,1.13,-4.03,-16.4,-1.41,-1.51,,,,,150,1450000000.0,-10.594982149195623,-7.4411900778834115,3.205431413930347,-1.566648699594034,0.08155620837513844,-4.143939330676989,-3.9833029187073175,-2.2755601064857407,-0.9849295026670168,,,,,,,,,
29,29,1.5,-9.64,-10.3,1.93,-0.0828,1.69,-2.12,-4.29,-2.73,-1.27,,,,,150,1500000000.0,-10.213093279385657,-9.041965790614642,2.7006810329410382,-0.47458465014176504,0.6155573221531213,-2.7318939767303108,-4.1176476439585645,-2.5292042300368154,-1.1108284809774132,,,,,,,,,
30,30,1.55,3.32,-12.4,1.1,0.636,-0.211,-0.96,8.11,-4.48,-2.17,,,,,150,1550000000.0,-4.801327693673189,-10.922279201460805,2.067213559006956,0.3427692666632667,0.3411414458689122,-1.495693608254569,1.2385171896639935,-3.618034401928449,-1.5786027048111348,,,,,,,,,
31,31,1.6,0.462,-7.96,0.304,-1.51,-0.921,-1.97,4.69,0.3,-2.87,,,,,150,1600000000.0,-2.6965689885854776,-9.26356653717936,1.3694240312537835,-1.0208082324626333,-0.07788775456629454,-1.8266037937474329,2.750395207121648,-1.4311965441249943,-2.1489374046431293,,,,,,,,,
32,32,1.65,0.306,-7.38,1.56,-0.8959999999999999,-1.99,-6.28,2.76,1.72,-1.13,,,,,150,1650000000.0,-1.4958679193704878,-8.20887340828584,1.4448442059048583,-0.9289534809196336,-0.7127063555651687,-4.933612619406872,2.754602459874695,0.3276333268631686,-1.6989322705079304,,,,,,,,,
33,33,1.7,-0.0311,-6.58,3.35,-2.7,-5.51,-6.04,-1.04,2.97,1.39,,,,,150,1700000000.0,-0.9101200422059762,-7.296794252868813,2.198807151091221,-2.232385756177191,-2.3054012286495684,-5.705507801515689,1.0924253010863298,1.8024615001824915,-0.3347313279888784,,,,,,,,,
34,34,1.75,-1.04,-6.98,-0.563,-1.21,2.57,-4.56,-4.91,2.01,-1.17,,,,,150,1750000000.0,-0.9620578858591308,-7.119406984958582,1.1058254736984223,-1.4799433485911495,-0.6867748447246866,-4.9063193407445445,-1.5368604238271886,1.91829841725833,-0.7036206905771654,,,,,,,,,
35,35,1.8,15.2,-23.3,-5.71,2.3,-3.14,2.79,10.8,-14.6,-7.12,,,,,150,1800000000.0,5.501007597733422,-16.179644661583094,-1.5915288056495287,1.3019711360451207,-1.5012422085343653,0.4631851372364837,3.8671439080269554,-7.301335037690826,-3.5373605784548623,,,,,,,,,
36,36,1.85,0.285,-9.97,5.06,-1.36,-0.847,0.517,-3.55,-0.972,4.33,,,,,150,1850000000.0,3.4151717885745985,-12.702586886106904,1.0408052384952402,-0.6571524569107368,-1.2840347090041238,0.5007302598080822,0.6181587080184263,-3.768637769907292,-0.0628070039525177,,,,,,,,,
37,37,1.9,0.654,-8.0,-0.175,0.469,3.6,0.199,-2.97,1.07,-1.01,,,,,150,1900000000.0,2.311003339275594,-10.069398049797696,0.5596518625511817,0.17165888095677972,0.3374579688575077,0.2902215851596296,-0.9535884294367608,-1.0679681860127346,-0.4811268173283616,,,,,,,,,
38,38,1.95,2.64,-12.1,-1.24,0.243,-2.12,-0.654,-0.919,-3.02,-2.53,,,,,150,1950000000.0,2.4425662677255486,-11.20642316389799,-0.15255807740055427,0.22416360883421396,-0.4784146103344119,-0.3685351199470949,-0.9384374223382296,-2.1574882304677567,-1.3859944078233717,,,,,,,,,
39,39,2.0,0.919,-11.1,2.89,1.33,-0.908,-0.638,-3.1,-2.2,1.8,,,,,150,2000000000.0,1.8333054575256156,-11.146832285641818,1.0515304543469042,1.0380230106062711,-0.6210363578427675,-0.5565331596156751,-1.8852822788087644,-2.1812160596474253,0.021073196276757637,,,,,,,,,
40,40,2.05,1.93,-11.3,5.33,2.15,1.35,-0.159,-2.24,-2.62,3.42,,,,,150,2050000000.0,1.871972738184144,-11.232597849902508,2.7447293063684035,1.8564017301860227,0.03334497102360323,-0.2791855046052677,-2.040661853347916,-2.4261217905679238,1.5221806562936275,,,,,,,,,
41,41,2.1,2.75,-17.1,4.76,3.88,0.573,-0.0635,-1.32,-8.86,1.42,,,,,150,2100000000.0,2.223088159038463,-14.51801909111335,3.5422702113460787,3.3457038726001174,0.21250969234555975,-0.12870782476925907,-1.7249851495642998,-6.017169291416257,1.4770534101754198,,,,,,,,,
42,42,2.15,11.0,-8.13,-8.23,2.84,0.13,-0.0482,7.04,-0.6809999999999999,-13.2,,,,,150,2150000000.0,5.732898422181267,-10.941081404921961,-1.1165905740830573,2.9735223198877185,0.18511658801552727,-0.07253979064818429,2.1144047074327808,-3.0388041720640673,-5.004943660222113,,,,,,,,,
43,43,2.2,5.31,-1.21,4.4,3.58,-0.0935,0.5660000000000001,1.46,5.56,-1.56,,,,,150,2200000000.0,5.563785019863095,-5.492213485881468,1.06659316848673,3.4198699754900383,0.09261626843227656,0.37295136538599455,1.827751094484296,1.7605897035250564,-3.483513251114536,,,,,,,,,
44,44,2.25,0.35700000000000004,-5.66,0.448,-2.22,1.11,1.52,-3.36,0.746,-5.98,,,,,150,2250000000.0,3.4816372376743483,-5.5861645780713225,0.8217857141301762,-0.7308896541863161,0.4303862526789936,1.17321476863747,-0.4446770131317033,1.1942998353987253,-4.586065628233528,,,,,,,,,
45,45,2.3,3.65,-10.5,-0.29,-4.37,0.8640000000000001,2.18,1.16,-2.78,-5.83,,,,,150,2300000000.0,3.5489640715962087,-8.337640922869939,0.3817979348059193,-3.4091556116184285,0.5743454192823516,1.8756204191923809,0.2582312567061356,-1.023942364063526,-5.135438744108028,,,,,,,,,
46,46,2.35,5.05,-3.16,1.61,-3.3,-0.255,0.804,3.26,5.73,-2.12,,,,,150,2350000000.0,4.149215284296521,-5.4384481209699524,0.8678573459929639,-3.3288206209798763,0.2990038987087695,1.1279811508902693,1.5731177377368415,2.7457480808849497,-3.803695542333212,,,,,,,,,
47,47,2.4,4.0,0.594,-3.36,-2.35,1.57,-0.504,2.42,9.93,-5.91,,,,,150,2400000000.0,4.0895453974694105,-2.0606104786781603,-0.8053117810487607,-2.6084406279744443,0.7209728485460877,-0.010605983644912829,1.9440837370390731,6.755614530386697,-4.73392711748366,,,,,,,,,
48,48,2.45,-0.0958,-1.07,-7.34,-4.77,2.34,-0.649,-1.85,8.51,-8.53,,,,,150,2450000000.0,2.41586238822176,-1.5059233716357956,-3.3914063946128943,-4.199277525431288,1.2584875755790044,-0.4559954400684893,0.2821337710147662,7.7348190644501935,-6.410430650223755,,,,,,,,,
49,49,2.5,6.49,-29.3,-19.5,-5.06,-0.532,-0.421,4.42,-19.8,-18.3,,,,,150,2500000000.0,4.0450742863302205,-17.069070221848797,-9.766361830349053,-4.832741037833029,0.6640481967091486,-0.43158011317187583,2.094673292776704,-7.633648056879673,-11.661358584864313,,,,,,,,,
50,50,2.55,-10.5,-45.0,9.18,2.64,-5.97,-1.41,-12.6,-35.7,11.2,,,,,150,2550000000.0,-1.7713736777572926,-32.708847701952145,-2.2683631073011723,0.6669517273805168,-1.5384464795794202,-1.1141959945932212,-4.342140956147981,-23.298789335660558,-1.5648319919258196,,,,,,,,,
51,51,2.6,2.84,-5.49,7.49,1.17,3.34,1.37,0.499,3.86,9.3,,,,,150,2600000000.0,0.07267428050003644,-17.467796713523764,1.5934965931546792,1.0371787507193646,0.08119091707594084,0.6189573503118735,-2.221540944112964,-8.140201587685246,3.2335297313310374,,,,,,,,,
52,52,2.65,-2.43,-3.52,5.7,3.92,-2.31,0.8079999999999999,-4.3,6.09,6.21,,,,,150,2650000000.0,-0.9281232971073254,-9.657801164926859,3.2186400191243147,3.158840840282716,-0.7126811123728471,0.7508470842460642,-3.131983488877483,-0.19766188466205128,4.548062800091113,,,,,,,,,
53,53,2.7,3.52,-6.19,0.371,4.44,-1.67,0.362,2.03,3.37,-1.21,,,,,150,2700000000.0,0.8506422887684053,-7.716024142086412,2.0916900993906498,4.101732068801609,-1.0305096332324764,0.4795594544756204,-0.8708425185955601,1.7936166491302232,2.0050627924883035,,,,,,,,,
54,54,2.75,3.62,-7.34,0.764,4.53,0.996,-1.67,1.73,1.62,-2.74,,,,,150,2750000000.0,1.9580841648695064,-7.505471483451399,1.5662584302738378,4.416923395742646,-0.357711264935892,-1.0201274000138525,0.26842335942238593,1.6967130973662974,-0.09055427189889233,,,,,,,,,
55,55,2.8,-2.74,-33.8,-0.6659999999999999,1.33,2.5,2.23,-4.14,-25.7,-6.02,,,,,150,2800000000.0,0.07936140323887497,-22.228954241713872,0.6828449916233212,2.145048898013896,0.5910448881427595,1.247394651066894,-1.6626301681933064,-13.594671490106714,-2.7092440824726856,,,,,,,,,
56,56,2.85,0.91,-8.18,1.85,1.64,-3.39,0.17600000000000002,0.316,-0.266,-3.91,,,,,150,2850000000.0,0.41152652199023104,-14.362316247888314,1.1447451114761225,1.7733494377884589,-0.7306564954716441,0.499912880167949,-0.7959164707048134,-6.155317894838303,-3.2395478689111936,,,,,,,,,
57,57,2.9,2.1,4.8,-4.1,-1.39,-2.13,-0.983,0.279,12.6,-9.79,,,,,150,2900000000.0,1.086732256629613,-3.6324777683319627,-0.9308560594610312,-0.5547721451573735,-1.1952366247025201,-0.5346735152866396,-0.3250630241456398,4.312900530401945,-6.132499924163523,,,,,,,,,
58,58,2.95,4.11,-1.08,-4.63,-2.74,4.65,0.866,2.38,7.11,-9.75,,,,,150,2950000000.0,2.2957106324859806,-2.203231267570517,-2.3947876154088306,-2.163028291933005,0.7453738114928423,0.44253681070126616,0.8598553578944297,5.874092357230165,-7.730138397169528,,,,,,,,,
59,59,3.0,-4.13,-9.16,21.4,-0.325,3.52,1.6,-4.37,-0.302,17.2,,,,,150,3000000000.0,-0.2738748818969801,-6.098637307880964,7.021969175106782,-0.8102996516819243,1.666545828779305,1.2500661843798115,-1.4310159807371423,2.4269269872425494,3.2800478155768493,,,,,,,,,
60,60,3.05,3.05,-4.02,2.09,-0.28600000000000003,-3.2,-0.7809999999999999,3.96,4.6,-2.49,,,,,150,3050000000.0,1.0553135864294536,-4.934715250376286,5.070148611554774,-0.42443228753099066,0.05085938726002559,-0.1669513067885764,0.9304497786114759,3.6398203979584105,0.7317547393550003,,,,,,,,,
61,61,3.1,1.13,-25.9,-2.69,-2.76,2.91,-3.11,0.95,-16.7,-6.16,,,,,150,3100000000.0,1.0851800279388442,-16.67411615573066,1.99907964364778,-2.1433336321824155,1.0000901103111746,-2.220233135739978,0.9390134983415048,-7.712783034613992,-2.311930690779724,,,,,,,,,
62,62,3.15,-2.43,-14.2,4.01,-2.21,-0.464,-0.621,-3.2,-4.74,1.38,,,,,150,3150000000.0,-0.3205097404806436,-15.28874769768256,2.794898908179006,-2.192397923794123,0.5140142407172502,-1.1044933659100429,-0.8740285575865375,-6.053533957914307,-0.6814205650047271,,,,,,,,,
63,63,3.2,-13.5,-35.5,18.1,-4.51,-1.23,-1.02,-14.8,-25.8,17.1,,,,,150,3200000000.0,-5.590872598629622,-26.605932306758422,8.851873354354034,-3.898077323959233,-0.06499606040583761,-1.045544719006099,-6.974122688664067,-17.074957781451587,7.171594393739563,,,,,,,,,
64,64,3.25,0.445,-6.55,9.67,0.0754,1.11,-1.33,-1.25,3.11,9.93,,,,,150,3250000000.0,-3.1771799522343382,-15.375718420501272,9.175645964236477,-0.9737281344772736,0.3251009971253707,-1.2440011597362453,-4.466743804193845,-5.8087908868462375,8.389821156943897,,,,,,,,,
65,65,3.3,-6.18,0.366,5.07,1.32,1.16,1.09,-8.06,9.99,4.88,,,,,150,3300000000.0,-4.3779813514614965,-6.561225843477692,7.550841862540665,0.7143806965481634,0.6022862902050591,0.3843655133841684,-6.0407240023885365,3.0092514958913146,6.8397382230624935,,,,,,,,,
66,66,3.35,-0.407,0.493,-2.11,1.63,-1.86,1.89,-1.46,10.2,-3.21,,,,,150,3350000000.0,-2.7900206499932136,-2.611249119685483,3.7275760216273235,1.388246515860465,-0.21518932768166546,1.4348041351999767,-4.0341963354900106,7.0227437158773975,2.4013558725006563,,,,,,,,,
67,67,3.4,3.0,2.75,2.22,2.34,-2.43,1.23,2.61,12.4,0.344,,,,,150,3400000000.0,-0.4746420442387969,0.3907541760612676,3.1309547394158463,2.0887058491847386,-0.9505034031047928,1.2919180911816392,-1.123790979252675,10.024041187245258,1.4927419659349666,,,,,,,,,
68,68,3.45,0.136,-10.3,11.1,4.41,-0.912,-0.109,-0.22,-1.0,7.95,,,,,150,3450000000.0,-0.2304516298023272,-5.5954776006526865,6.284694418865664,3.7971022146058035,-0.9377203271495818,0.3145371310045396,-0.7278968757196256,3.8710093177351776,4.344535564927114,,,,,,,,,
69,69,3.5,-4.61,-52.7,9.66,-0.273,4.2,1.56,0.157,-1.7,6.37,,,,,150,3500000000.0,-1.9817947633316693,-31.971408026743326,7.620467250193781,0.8016402701501968,0.767995590350188,1.1834613377649863,-0.34027909131070755,0.7615689964833221,5.239064841085968,,,,,,,,,
70,70,3.55,0.476,-8.72,-1.51,0.428,-0.957,1.82,1.84,-0.384,-6.49,,,,,150,3550000000.0,-0.9989441343354836,-18.951904331397532,4.0070964499538455,0.5266532694980104,0.1952994552487033,1.627556410297529,0.6147643514728474,0.12217347492287599,0.05902213645724519,,,,,,,,,
71,71,3.6,1.8,-1.38,-4.02,-1.17,-3.88,-0.229,2.95,6.97,-9.04,,,,,150,3600000000.0,0.12032912023294995,-9.112608758277196,0.8303832446430004,-0.7220279436043362,-1.1576943163136404,0.3322894679717185,1.6376845426378626,3.944264923879756,-3.9594844195186902,,,,,,,,,
72,72,3.65,0.35700000000000004,2.21,-0.8190000000000001,-3.16,2.91,-2.18,0.6609999999999999,11.0,-5.07,,,,,150,3650000000.0,0.21497173194134275,-2.7725734111955163,0.17764192065737094,-2.516295602055993,0.19277455023386736,-1.42046394263053,1.2098603504046497,7.882399955198205,-4.449934358235584,,,,,,,,,
73,73,3.7,-2.6,-2.39,11.7,-0.118,0.153,-0.465,-2.64,6.89,8.57,,,,,150,3700000000.0,-0.9107107996289672,-2.5583534970090414,4.737600403309296,-0.7512285783766777,0.1795694540970548,-0.7538637539442767,-0.4765218847132269,7.328495151194186,1.3002099743417972,,,,,,,,,
74,74,3.75,0.996,-6.5,-0.345,-0.121,2.96,0.957,1.12,2.58,-4.05,,,,,150,3750000000.0,-0.14823383435976956,-4.765457761050716,2.7261677571771066,-0.287400982809073,1.1026685289381954,0.4397575498252229,0.22281415191790374,4.678138356377816,-1.0626653315883066,,,,,,,,,
75,75,3.8,13.1,3.34,45.5,-2.84,1.19,-0.949,14.1,12.7,42.7,,,,,150,3800000000.0,5.149619130532717,-0.2268492928857846,19.65385747631305,-2.166030204287972,1.131662474489031,-0.5291393468017758,6.3015384596178725,9.15551360689102,18.26474795609936,,,,,,,,,
76,76,3.85,7.62,-22.0,-9.89,-2.11,-0.498,-2.39,7.4,-12.5,-12.3,,,,,150,3850000000.0,6.137502783117307,-12.418610713101618,7.961913311993348,-2.1247937315919763,0.5906168078960778,-1.8274093094523187,6.782705559046671,-2.9314391820713066,4.766084090603774,,,,,,,,,
77,77,3.9,4.12,-20.6,-4.95,-1.51,0.994,-1.11,3.14,-11.0,-6.82,,,,,150,3900000000.0,5.330721023874473,-16.999736902154794,2.852040112970413,-1.6723256712644254,0.72453947075984,-1.3268931183506842,5.1870649281864205,-7.434879527634945,-0.35081254542575024,,,,,,,,,
78,78,3.95,-7.7,-30.3,6.99,-3.85,-0.527,-2.16,-9.57,-20.6,6.75,,,,,150,3950000000.0,0.11984975787213335,-24.447148964593293,4.489632385876477,-3.2750225929806014,0.3090301092039305,-1.9081283058007783,-1.2770788795234456,-14.782947881490507,2.785201573261637,,,,,,,,,
79,79,4.0,3.17,-12.2,21.0,-2.8,0.7759999999999999,-0.873,0.65,-2.82,22.2,,,,,150,4000000000.0,1.3395781869265555,-17.589422097770505,11.023589374676533,-2.925421485398645,0.4640634690631466,-1.185948557730061,-0.43294658288101373,-8.105868330660925,11.359584290846747,,,,,,,,,
80,80,4.05,-4.13,-5.88,5.06,1.01,2.44,0.0276,-7.06,3.3,6.89,,,,,150,4050000000.0,-0.8476583269017115,-11.032792737613661,8.66350644026962,-0.029080155564243707,1.12007165964203,-0.33929002433638145,-3.3358427234151846,-1.7397209394672537,9.385629934244113,,,,,,,,,
81,81,4.1,-4.49,-1.36,3.41,1.91,0.91,1.85,-7.24,8.01,4.33,,,,,150,4100000000.0,-2.304198806563265,-5.616563238442218,6.584437980829143,1.3980193137541217,1.0503281704252596,1.188115772526128,-5.046008887821895,3.702053456032778,7.1528534751443305,,,,,,,,,
82,82,4.15,1.8,1.71,1.57,1.71,-1.21,2.12,0.114,11.4,1.59,,,,,150,4150000000.0,-0.6629656271816551,-1.5140925992662195,4.599980547004604,1.6276269102245329,0.2999023586320381,1.838264982967672,-2.7857328537712838,7.998636466120017,4.69606605511815,,,,,,,,,
83,83,4.2,0.8809999999999999,-3.23,3.91,2.68,0.145,0.607,-0.0852,6.47,2.77,,,,,150,4200000000.0,-0.0455472868255411,-2.4749059497489725,4.326921656870248,2.402139090525705,0.24847499028999595,0.979246195475306,-1.6027989037836807,7.1454329970716985,3.8454351782221305,,,,,,,,,
84,84,4.25,-3.18,-50.5,-0.74,1.93,-2.57,2.34,-3.87,-41.1,-3.42,,,,,150,4250000000.0,-1.2989875327441345,-29.366305211169426,2.3216938504583844,2.0546601428128217,-0.6872547521826424,1.9286056098502744,-2.5959173566448888,-19.78259388149021,0.6367168251022486,,,,,,,,,
85,85,4.3,-0.778,-20.9,1.12,2.64,1.59,1.87,-0.272,-11.8,-2.31,,,,,150,4300000000.0,-1.090649174951522,-24.625641846249557,1.8461250390936048,2.48545118631537,0.0687906595561476,1.8877181353901316,-1.5779550261412387,-15.32713580161693,-0.6646758435160849,,,,,,,,,
86,86,4.35,1.83,-5.42,-2.29,-0.289,-1.98,0.932,3.08,3.37,-6.45,,,,,150,4350000000.0,0.07729289689069829,-13.871543574889884,0.2092588294419453,0.44354596702912863,-0.6114049874185852,1.2209405881296145,0.4624026882714887,-4.891391794704703,-3.219715498725252,,,,,,,,,
87,87,4.4,5.33,1.91,-10.0,-1.71,-0.608,-1.13,6.23,10.8,-14.0,,,,,150,4400000000.0,2.1778044852558316,-5.03475112858643,-3.8310423702743814,-1.1413933688841231,-0.6102745298553365,-0.4192442188553329,2.988825084845744,3.866706376689285,-7.980737449831754,,,,,,,,,
88,88,4.45,-1.13,5.19,7.56,-1.2,1.15,-1.56,-0.8959999999999999,14.6,4.67,,,,,150,4450000000.0,0.8550424107979029,0.6905446136460219,0.6769481403322457,-1.1845259652407596,-0.02586584967146333,-1.2151172494644171,1.287127027912364,9.857458674734582,-2.3936456571755316,,,,,,,,,
89,89,4.5,-0.395,-7.65,14.4,2.34,-1.86,1.23,-0.423,1.69,11.4,,,,,150,4500000000.0,0.3551613820330317,-3.979699604785369,6.1078283126750925,1.4094096615323828,-0.6347958334733735,0.4907719693173247,0.5380277069336913,5.298818851743589,3.6982017273388816,,,,,,,,,
90,90,4.55,2.1,-4.03,-6.99,-2.3,4.95,0.7659999999999999,2.82,5.11,-10.5,,,,,150,4550000000.0,1.0529070430485663,-4.007865164468576,0.9243795036374296,-1.3205943392517938,1.2193485283972332,0.6827907693658264,1.5376165149315049,5.193430313086059,-2.5723146103426835,,,,,,,,,
91,91,4.6,8.48,-10.8,-18.4,1.52,-1.95,-1.44,9.56,-1.46,-21.1,,,,,150,4600000000.0,4.0229363598867725,-7.811085510850189,-6.72321896119012,0.7699900571814768,0.16712922279313158,-0.798220399872575,5.051719391439909,1.4798403239568112,-10.754911150267832,,,,,,,,,
92,92,4.65,5.24,-21.7,-5.62,-2.02,1.79,-3.11,5.21,-12.2,-8.19,,,,,150,4650000000.0,4.5096293709410515,-15.588110683589278,-6.2866214148562225,-1.2833512448270077,0.7059200440445975,-2.4110836223634142,5.121052208529861,-6.155516881248905,-9.622139535063862,,,,,,,,,
93,93,4.7,3.8,-30.6,-9.27,-3.18,-2.88,-2.13,2.68,-21.0,-10.9,,,,,150,4700000000.0,4.225854774403187,-23.99393950115924,-7.467289877439065,-2.6792226666891468,-0.4846004457461118,-2.214979602359064,4.051780473964707,-14.440915689605866,-10.186495689774524,,,,,,,,,
94,94,4.75,-10.4,-22.4,8.68,-3.26,2.59,-1.04,-12.6,-12.9,8.8,,,,,150,4750000000.0,-1.6228964476355603,-23.101421232738414,-1.0770203204713755,-3.1066557578065765,0.5361625842771588,-1.3952295123252028,-3.2423195963268,-13.580858517056635,-1.8012695251951671,,,,,,,,,
95,95,4.8,0.373,-10.0,5.3,-0.904,-0.687,-1.24,-2.42,-0.733,6.62,,,,,150,4800000000.0,-0.8247549203203622,-15.765349201458793,1.4466774378555685,-1.4855732406128035,0.1300743205256894,-1.2869302750448464,-2.8821130261739016,-6.409869068816558,1.9179132585283685,,,,,,,,,
96,96,4.85,-5.13,-2.47,2.93,0.8270000000000001,0.83,0.281,-8.28,6.72,4.27,,,,,150,4850000000.0,-2.546384810363231,-8.320688238318043,2.033700482058792,0.21640494893265694,0.3624486640826928,-0.1930296403031784,-5.246588402669509,0.9185235015447732,2.9566925704212537,,,,,,,,,
97,97,4.9,-4.02,0.895,1.28,1.44,0.8440000000000001,1.75,-6.78,10.3,2.0,,,,,150,4900000000.0,-3.1356706256118123,-3.1604120062056174,1.7354244633627989,1.1169308785831769,0.522323029764544,1.1625672293506732,-5.9182798732299675,6.1547634675600875,2.5341773457351624,,,,,,,,,
98,98,4.95,1.87,1.18,0.481,1.85,0.0446,2.04,0.0614,10.8,0.419,,,,,150,4950000000.0,-1.1339467310607474,-0.730021121696395,1.2389875795591672,1.6564457630909633,0.3637196499511305,1.7747272504023457,-3.2989574258380214,8.747486872129956,1.60002706672605,,,,,,,,,
99,99,5.0,-0.611,-15.9,7.73,3.04,-1.82,1.64,-1.59,-6.24,6.61,,,,,150,5000000000.0,-0.9248249087169002,-9.224370932207393,3.807797498562548,2.674696345022052,-0.3612722446728396,1.6807318452339706,-2.550370452187374,0.3822711228946839,3.812639520749058,,,,,,,,,
100,100,5.05,0.747,-53.3,1.03,1.13,1.13,2.45,0.71,-43.8,-1.35,,,,,150,5050000000.0,-0.2562767615464057,-33.904287585854746,2.70848765941542,1.5378504169852103,0.13382805845610046,2.217428530418045,-1.1222067984361532,-24.27791591510817,1.5326032012492008,,,,,,,,,
101,101,5.1,-1.27,-12.1,-3.68,0.932,0.112,2.33,0.0278,-2.88,-6.81,,,,,150,5100000000.0,-0.6616558087371863,-21.69509144747188,0.18025176534717516,1.0919643366665568,0.12658117464940682,2.295966410226192,-0.6184609986728108,-12.334740483676455,-2.1518372876260443,,,,,,,,,
102,102,5.15,4.04,-2.46,-5.72,-0.523,-3.54,0.294,5.92,6.56,-9.05,,,,,150,5150000000.0,1.2184952029624243,-10.924503005170411,-2.154765285031076,-0.0965965299928031,-1.0907186473103314,0.8992510215949976,2.2456284221862552,-1.7887040497218882,-5.198352896757335,,,,,,,,,
103,103,5.2,2.84,2.81,-4.47,-2.12,1.21,-2.51,3.96,12.1,-7.41,,,,,150,5200000000.0,1.8669207517491668,-3.2339401914043484,-3.071016396409376,-1.5857551376788368,-0.32688325354125103,-1.4792870634386788,2.9965870273377155,5.963230067705195,-6.175108165036202,,,,,,,,,
104,104,5.25,-1.49,5.26,11.5,1.12,-1.54,-1.64,-1.34,14.8,9.15,,,,,150,5250000000.0,0.5245175062783003,1.5221971501619675,2.695444814048258,0.4055920396309258,-0.7296363082446754,-1.5914119275192096,1.0970004150101251,10.895443878140263,0.5930967512631167,,,,,,,,,
105,105,5.3,0.936,-8.51,-4.88,2.25,1.54,1.35,0.433,0.612,-8.45,,,,,150,5300000000.0,0.6890657515971712,-4.095279098962267,-0.3025278835087519,1.7630158981574269,0.02387976698904204,0.4607280660865112,0.8061435073904428,5.155773923519697,-3.400710761475497,,,,,,,,,
106,106,5.35,5.44,-0.539,4.81,-2.54,3.4,1.24,6.4,8.7,1.67,,,,,150,5350000000.0,2.588922818358716,-2.103959275313772,1.720748502683604,-1.4038628605025107,1.1447470058823217,1.0044040786590096,3.256460989093757,7.133971796452691,-1.1612740345578358,,,,,,,,,
107,107,5.4,10.1,-12.1,-14.6,-0.655,-0.588,-1.43,11.1,-2.87,-17.6,,,,,150,5400000000.0,5.592537027542863,-7.701190009270152,-4.738167114848844,-0.8527242977285201,0.5694774174958475,-0.6940108137066643,6.69222330965014,1.5502883236157752,-8.421299220036532,,,,,,,,,
108,108,5.45,8.92,-33.5,4.03,-2.24,-0.7240000000000001,-3.21,8.78,-23.9,1.89,,,,,150,5450000000.0,6.923160391472603,-22.147098208935887,-1.26817604566734,-1.8737137913902129,0.14004472705583054,-2.449345393266616,7.606747124748818,-12.654705120840307,-3.867400678944296,,,,,,,,,
109,109,5.5,-8.17,-26.4,-1.69,-3.76,0.337,-1.34,-9.66,-16.7,-2.48,,,,,150,5500000000.0,0.8875375581885878,-24.52848802371049,-1.4351123618504786,-3.2619586621826024,0.20543360701103305,-1.6753864859827459,0.04326899608719437,-14.912573409306505,-3.254666850273681,,,,,,,,,
110,110,5.55,-3.53,-14.8,21.5,-3.25,2.63,-0.249,-5.26,-5.21,22.3,,,,,150,5550000000.0,-0.878997054449614,-19.081072340303805,7.641429191193727,-3.253157478436098,1.0103863048911401,-0.6802369432509863,-2.279760400134834,-9.497114399766767,8.031336425484797,,,,,,,,,
111,111,5.6,-3.88,-4.63,6.27,-0.341,0.28300000000000003,-0.8059999999999999,-6.07,4.8,7.86,,,,,150,5600000000.0,-2.0790719248070357,-10.989270321661603,7.0986878251320435,-1.1099049342179077,0.7688950639331317,-0.7679782698648582,-3.940026555684846,-1.5172275122635268,7.955667193657402,,,,,,,,,
112,112,5.65,-5.85,0.14800000000000002,4.02,1.28,0.831,1.11,-8.13,9.6,5.28,,,,,150,5650000000.0,-3.587033035159725,-4.753014279349979,5.880301025629616,0.6489868121787117,0.7895138062476684,0.542234106978502,-5.7753909947663296,4.687816207084227,6.7739813817059735,,,,,,,,,
113,113,5.7,0.397,0.285,0.685,1.59,-0.0715,2.18,-1.06,9.97,1.19,,,,,150,5700000000.0,-1.9938530715503917,-1.932004637332246,3.8242672519953977,1.3415417268679768,0.5036584226918752,1.6848571335398583,-3.7098741288916592,7.636049646112113,4.3078630100340005,,,,,,,,,
114,114,5.75,2.93,-2.52,-3.57,2.63,0.0929,1.03,2.37,7.26,-4.05,,,,,150,5750000000.0,-0.024847276324512446,-2.2612495427540797,0.8979954159453779,2.289804905942587,0.36728719958994704,1.2279817978951848,-1.0466629167590176,7.426158916439795,0.6166830454884922,,,,,,,,,
115,115,5.8,-8.71,-46.4,-0.124,2.41,-3.09,3.3,-8.7,-36.8,-1.88,,,,,150,5800000000.0,-3.497963886445097,-26.97651196862369,0.4935420304505467,2.3782646222123787,-0.7805272988115254,2.6735703086092686,-4.399109459879048,-17.25852394734771,-0.4859560138441477,,,,,,,,,
116,116,5.85,-3.98,-25.4,-0.206,2.04,2.6,2.35,-2.24,-16.1,-2.74,,,,,150,5850000000.0,-3.690725918941419,-26.093752155544248,0.21669916133904665,2.1293129096117323,0.34180301645540234,2.4478243819156305,-3.45333912274606,-16.61189787789205,-1.4814355803605297,,,,,,,,,
117,117,5.9,0.381,-7.02,-3.05,0.159,-1.64,1.48,3.16,1.84,-6.22,,,,,150,5900000000.0,-2.0624783393102053,-15.413504770617967,-1.0760928589740817,0.6792271274293729,-0.31615281538473616,1.772600674860482,-0.5564502911591194,-6.3130325187573115,-3.574182596180556,,,,,,,,,
118,118,5.95,6.04,0.68,-7.15,-0.6890000000000001,-2.08,-1.03,8.65,9.5,-10.6,,,,,150,5950000000.0,1.1776318513373414,-6.402031267999338,-3.479833924230937,-0.3277432396493434,-0.901747594550566,-0.1826945940031985,3.4763175861267994,2.5129589111446595,-6.6770759100147865,,,,,,,,,
119,119,6.0,1.26,4.87,1.35,-1.25,1.05,-2.17,2.96,14.1,-1.5,,,,,150,6000000000.0,1.2105701496019894,-0.09031660648635677,-1.5684332808704409,-1.0064940133864235,-0.25377013193324705,-1.5691814673680955,3.2501512742044736,8.980227513400378,-4.390663891184444,,,,,,,,,
120,120,6.05,-6.68,2.46,10.1,1.22,-2.6,-0.05,-5.75,11.8,7.29,,,,,150,6050000000.0,-1.944799756402268,1.3377198084370727,3.04933450348696,0.6321326887389498,-1.0327151431727726,-0.5092914904612065,-0.6922501188804175,10.55407424108558,0.7680030253734316,,,,,,,,,
121,121,6.1,-0.934,-5.26,-0.764,-1.12,4.96,1.76,0.685,3.87,-3.94,,,,,150,6100000000.0,-1.5405897825831838,-2.3566388856442195,1.5402122233125326,-0.6573795951893919,0.956857936405826,1.0739290451727004,-0.08896328166224654,6.823380403029747,-1.3112469257253607,,,,,,,,,
122,122,6.15,7.76,-9.44,-21.6,3.09,-2.63,-0.889,10.4,-0.361,-24.3,,,,,150,6150000000.0,2.178634799709899,-6.322929516029473,-7.6174974900676276,2.100569005259583,-0.2339739323403289,-0.2955510758996385,4.505593041880196,2.81344241019338,-11.464035970381365,,,,,,,,,
123,123,6.2,8.87,-30.8,-1.81,-3.03,2.38,-3.66,10.3,-21.5,-4.25,,,,,150,6200000000.0,4.8544531602343,-20.028736191371767,-5.319187720509137,-1.6753617467016744,0.6338618043562005,-2.642832070162231,7.043759137067842,-10.757024487236727,-8.278017678656669,,,,,,,,,
124,124,6.25,-0.156,-28.5,-9.98,-1.91,-3.4,-2.64,-0.141,-18.8,-11.7,,,,,150,6250000000.0,2.8508167725459246,-24.772175883302,-7.163698072295933,-1.8480477926768217,-0.705374718588391,-2.64085628803356,3.896567097920845,-15.246184054110346,-9.789307296124056,,,,,,,,,
125,125,6.3,-12.3,-22.2,7.97,-3.32,2.49,-0.337,-13.3,-12.4,7.91,,,,,150,6300000000.0,-3.207862388904485,-23.33189992966022,-1.1745563871403926,-2.9313563649373693,0.3554852331845022,-1.033520871937203,-3.636169716113076,-13.657595691533311,-1.972557207590916,,,,,,,,,
126,126,6.35,-2.05,-8.59,9.22,-1.66,-1.62,-1.88,-3.5,1.03,10.4,,,,,150,6350000000.0,-2.744843329708877,-15.077250550685706,2.9390761910880885,-1.9956796899033464,-0.30037310975620024,-1.6240854345993627,-3.5765223099590484,-5.459763094082115,3.4916784193547423,,,,,,,,,
127,127,6.4,-6.35,-3.17,3.69,0.415,1.08,-0.131,-8.4,6.28,5.26,,,,,150,6400000000.0,-4.186513905440411,-8.40984816564169,3.2362533562394677,-0.22149838873500996,0.15790885113010505,-0.5824019198436976,-5.689384980981807,1.0927466908884416,4.272642868927788,,,,,,,,,
128,128,6.45,-4.42,0.139,1.81,1.07,0.599,1.53,-6.23,9.71,2.95,,,,,150,6450000000.0,-4.279882982584277,-3.622965521153409,2.6718153814784107,0.7290021702445478,0.3043504895763626,0.8913611827923241,-5.926194498328911,5.902437944098791,3.6885087948528565,,,,,,,,,
129,129,6.5,1.89,2.57,4.04,1.97,-0.461,1.89,0.975,12.3,4.54,,,,,150,6500000000.0,-1.812600758853542,-0.15524703064725598,3.213272689385953,1.6423359540505882,0.05025519630473774,1.5880832538557126,-2.903214320636206,9.4732160028991,4.064562704819864,,,,,,,,,
130,130,6.55,0.426,-4.31,3.45,2.02,0.469,1.29,0.272,5.48,2.92,,,,,150,6550000000.0,-0.9174038994653028,-2.4816791095890065,3.3069572404111334,1.9202843101648133,0.1892778908065065,1.3801189649157328,-1.5123522075544311,7.244415802230054,3.559076249598419,,,,,,,,,
131,131,6.6,-8.05,-61.0,-2.15,1.62,-0.433,4.86,-7.18,-51.4,-3.85,,,,,150,6600000000.0,-3.769666759064637,-35.248705646286396,1.147373313812603,1.6992848950437558,-0.017317500228323957,3.807933714146056,-3.9949929093540657,-25.48777039516861,0.2869201016282701,,,,,,,,,
132,132,6.65,-4.47,-18.2,-3.65,2.05,1.36,2.43,-1.58,-9.1,-5.88,,,,,150,6650000000.0,-4.0497238115686764,-25.702372859754046,-0.7511811125577195,1.9573996920493784,0.4399499930591441,2.8465883490287314,-2.9371361077438456,-16.340991146814954,-2.436648327011623,,,,,,,,,
133,133,6.7,2.22,-3.91,-5.84,-0.63,-2.92,0.996,5.91,4.75,-8.6,,,,,150,6700000000.0,-1.5425160965917573,-13.4998481441524,-2.7650747767363812,0.053158253861029126,-0.6755487423973567,1.5554851502331712,0.9382388778284096,-4.5691246886186185,-5.158640907096364,,,,,,,,,
134,134,6.75,7.21,1.3,-8.84,-1.52,-0.292,-1.44,10.6,10.1,-11.6,,,,,150,6750000000.0,1.9575385370507243,-5.212750907985038,-5.169218769389143,-1.1046346894695418,-0.5482110935971887,-0.5343802260278707,5.170450187518462,3.61839860896418,-8.003413125198126,,,,,,,,,
135,135,6.8,1.55,4.29,8.21,-0.0944,-0.556,-2.22,4.06,13.6,6.21,,,,,150,6800000000.0,1.7945674222387829,0.10826454812712337,0.1255900607549183,-0.3611350435991684,-0.5507969977566701,-1.7103895263546782,4.684031630937351,9.189596391320446,-1.7261787847843608,,,,,,,,,
136,136,6.85,-5.61,-6.44,10.8,2.12,-2.61,0.986,-4.09,2.85,8.11,,,,,150,6850000000.0,-1.1664543667723328,-3.55840183648372,4.349974296175418,1.4648990125480013,-1.2344494868165603,0.17080524670225428,0.8406789946897435,5.651171728361428,2.6178866681507325,,,,,,,,,
137,137,6.9,1.79,-2.59,0.816,-1.04,4.52,1.9,4.55,6.43,-1.84,,,,,150,6900000000.0,0.01580585563243897,-3.0161502646026714,2.9514084562069174,-0.378624602677625,0.6760197082663406,1.3772155420730356,2.46549980104671,6.085872038223673,0.6490985124191087,,,,,,,,,
138,138,6.95,7.01,-10.7,-16.3,0.526,-3.41,-0.0714,10.3,-1.91,-19.3,,,,,150,6950000000.0,2.8127229989812386,-7.318681473682563,-4.667311658423415,0.2871494972714509,-0.6805331628431509,0.3665574153705571,5.897302701844152,1.6230027115689492,-8.161252668833201,,,,,,,,,
139,139,7.0,6.87,-29.0,0.28300000000000003,-2.18,3.17,-4.27,9.24,-19.8,-2.01,,,,,150,7000000000.0,4.4351925321106656,-19.45902194641896,-2.7082321174097537,-1.5285917881302915,0.5978385005541111,-2.868237650035652,7.361528488841437,-10.33417446979033,-5.444603676400868,,,,,,,,,
140,140,7.05,-4.9,-28.5,-8.84,-2.69,-2.69,-2.25,-4.13,-18.9,-10.6,,,,,150,7050000000.0,0.7021306663840754,-24.521470138570226,-5.134871520210226,-2.3833502406135967,-0.4937193136632887,-2.436910713118872,2.3278110552131106,-15.115161245295855,-7.721441256762737,,,,,,,,,
141,141,7.1,-13.8,-18.1,13.5,-2.73,3.66,0.112,-13.7,-8.25,13.4,,,,,150,7100000000.0,-5.097144596038954,-20.925801863508852,2.239855187916588,-2.63847312554206,0.8853097319882071,-0.6586077388634926,-4.69296692452206,-11.283394362883975,1.6066654026094866,,,,,,,,,
142,142,7.15,-6.37,-7.68,5.57,-1.38,0.319,-1.7,-6.55,2.09,6.45,,,,,150,7150000000.0,-5.606148291143168,-13.508884559967694,3.557755830640213,-1.7122781138614145,0.697295692943797,-1.3851577227834586,-5.5064166447179534,-3.819078891581309,3.7456832943831433,,,,,,,,,
143,143,7.2,-6.02,-0.261,6.3,0.168,-0.35600000000000004,0.302,-6.71,9.44,7.54,,,,,150,7200000000.0,-5.77164396143595,-6.090801161738873,4.642995549125377,-0.3284549987001535,0.3476029903133527,-0.20807546864185866,-6.033630988386617,3.581431593877042,5.421411327454743,,,,,,,,,
144,144,7.25,-3.11,0.505,1.69,1.07,-0.41,1.92,-3.33,10.3,2.62,,,,,150,7250000000.0,-4.707275783864019,-2.3975169346337397,3.4743513382162377,0.7007621226199543,0.09607985567165628,1.2766226160729075,-4.8493399080429285,7.3313782778376755,4.184191533545872,,,,,,,,,
145,145,7.3,3.23,2.02,2.62,2.34,0.28600000000000003,1.93,4.08,11.8,2.8,,,,,150,7300000000.0,-1.5332286270347508,0.07604846840555801,3.1362428372156046,1.9071874557670356,0.1591330830579455,1.7324655156758708,-0.9379565635305104,9.825524714324112,3.5728749674578792,,,,,,,,,
146,146,7.35,-0.929,-5.45,4.83,1.46,-1.48,1.76,0.754,4.18,4.02,,,,,150,7350000000.0,-1.2916028929966854,-3.0182332505898626,3.8065450504223457,1.578072160803301,-0.3850568200451522,1.7516755406055569,-0.19681658245286726,6.674493803466163,3.7703439678132256,,,,,,,,,
147,147,7.4,-16.4,-62.1,-3.79,1.11,1.87,5.27,-13.4,-53.0,-5.76,,,,,150,7400000000.0,-7.3333185724721215,-36.10075748329732,0.800222021537695,1.2335863893142165,0.3636188996944463,4.206311074102378,-5.980302393827442,-26.632626147648764,-0.43865236402757546,,,,,,,,,
148,148,7.45,-6.31,-13.4,-4.04,1.33,-0.00611,2.4,-1.36,-5.28,-6.27,,,,,150,7450000000.0,-6.924102404639817,-23.389587305482955,-1.115289673590505,1.3045436810294897,0.2408694208297469,2.9460989509294087,-3.956437907270543,-14.71472910230124,-3.01401797755155,,,,,,,,,
149,149,7.5,1.3,-3.0,-4.66,-0.885,-2.9,0.364,6.74,4.71,-7.32,,,,,150,7500000000.0,-3.6353558180705714,-11.972544947718616,-2.5181042174471564,-0.3068887584483944,-0.8018948766249472,1.1446414783149297,0.7290000947760116,-3.8728812329315225,-4.915718785615238,,,,,,,,,
150,150,7.55,8.6,0.0838,-7.08,-1.21,0.949,-2.34,13.5,8.1,-9.88,,,,,150,7550000000.0,1.2574560889531945,-5.221657893502086,-4.323468642318544,-0.9715490853979384,-0.22060021999564106,-1.2864943445955268,6.323173601808801,2.8097427605743555,-7.10815186799005,,,,,,,,,
151,151,7.6,1.81,4.76,12.0,-0.0816,-0.5589999999999999,-2.96,5.69,13.6,10.1,,,,,150,7600000000.0,1.4784135423419174,0.3675191642078808,2.136523316049358,-0.31657570458777684,-0.33294847991114024,-2.454051973398482,6.0458200120525865,8.832289111218369,0.4916837938584715,,,,,,,,,
152,152,7.65,-11.6,-7.79,6.86,1.82,-2.45,1.67,-9.01,1.16,3.82,,,,,150,7650000000.0,-3.7515297733921384,-4.200240840010808,4.005833260214959,1.2558740844355158,-1.0358066468484832,0.42318251201088586,-0.5491898809496938,4.550026480213276,1.9616066143514783,,,,,,,,,
153,153,7.7,3.22,-5.1,29.1,2.03,6.94,2.87,7.59,3.24,26.4,,,,,150,7700000000.0,-0.96367599381114,-4.704056204130839,13.93681798885169,1.8256053863132309,1.6121500516114375,2.130257846013019,3.016078429458512,3.8188395690739543,12.754617274590032,,,,,,,,,
154,154,7.75,10.7,-16.6,-16.7,-2.02,-1.05,-1.24,15.7,-8.67,-19.6,,,,,150,7750000000.0,3.7005259238331316,-11.36512768750293,1.812335925434402,-1.0046342288553285,0.7283199643540244,-0.2210758156786712,8.572108299850758,-3.1517646808501043,-1.5345274007609255,,,,,,,,,
155,155,7.8,-2.65,-29.3,4.14,-0.425,-0.35200000000000004,-4.02,1.13,-20.4,2.6,,,,,150,7800000000.0,1.1610061243379466,-21.40766484603085,2.733505970261215,-0.5780424269376899,0.36965524400902666,-2.8714778474556035,5.312187743658501,-12.77880956046592,0.291451798220324,,,,,,,,,
156,156,7.85,-9.89,-23.7,-4.79,-3.24,-0.835,-2.68,-7.85,-14.3,-6.33,,,,,150,7850000000.0,-3.2581946858189683,-22.691246306972552,-0.2439119355257464,-2.5371560344729907,-0.03028860922681431,-2.7378892110606805,-0.4533405613370282,-13.627857043930906,-2.6328566458245137,,,,,,,,,
157,157,7.9,-10.4,-13.7,10.2,-1.75,1.72,-0.979,-9.25,-3.93,10.2,,,,,150,7900000000.0,-6.114140000571947,-17.656645038421058,3.8892528570566136,-1.9578349707301657,0.5508047766540716,-1.5107618957507132,-4.30660495311178,-8.215030473984879,3.0346664395686345,,,,,,,,,
158,158,7.95,-6.79,-4.11,3.48,-0.845,1.06,-1.2,-6.32,5.66,4.26,,,,,150,7950000000.0,-6.384410486539568,-10.07127234952306,3.727291566828367,-1.138824896227297,0.7198568614140352,-1.2939521365430589,-5.1885470308178006,-0.470728515393601,3.57582479839143,,,,,,,,,
159,159,8.0,-5.65,0.685,4.68,0.502,-0.161,0.74,-5.39,10.4,5.71,,,,,150,8000000000.0,-6.090726195868569,-4.048354121043217,4.104324649862656,0.06876847503798644,0.42741361284932905,0.12507879590390747,-5.276790874257847,5.596732184064084,4.518365337352403,,,,,,,,,
160,160,8.05,-1.16,2.56,3.92,0.782,-0.00672,2.02,-0.239,12.3,4.64,,,,,150,8050000000.0,-4.118971911703032,-0.3480409596542229,4.031378434258916,0.5936835245061723,0.28328185907409464,1.4471117558625626,-3.0700508779194844,9.338138894575406,4.572084203783725,,,,,,,,,
161,161,8.1,1.48,0.153,-1.72,2.19,-0.0434,1.59,3.34,9.78,-1.66,,,,,150,8100000000.0,-1.8799920174336309,-0.06748570657440872,1.7552777209985149,1.7685202167274912,0.1748239373660799,1.546800869035715,-0.26220994252259633,9.584762049764931,1.819736662961996,,,,,,,,,
162,162,8.15,-16.4,-17.4,12.7,2.66,-1.52,2.53,-13.8,-8.04,11.7,,,,,150,8150000000.0,-7.686416033384262,-9.772735868559117,6.086637570183822,2.424620206381956,-0.3878552390065687,2.232751097355273,-6.192266172445312,-0.2524401620235075,6.183271754887951,,,,,,,,,
163,163,8.2,-16.3,-52.6,0.883,1.61,1.99,2.98,-11.8,-44.1,-1.15,,,,,150,8200000000.0,-11.130912603306001,-33.75363670333529,4.027304625115503,1.825086422033469,0.40158938609149664,2.7540855526420023,-8.648662485373773,-24.72580878538185,2.9445939926442235,,,,,,,,,
164,164,8.25,-2.22,-6.74,-4.8,0.305,-0.831,2.24,3.44,0.882,-7.25,,,,,150,8250000000.0,-7.567516619006225,-18.627492536138046,0.5339099689931981,0.7063526001687732,-0.0076285606526939045,2.395422597372287,-3.3533781510924934,-10.4328955907132,-1.5577626729760814,,,,,,,,,
165,165,8.3,7.87,-2.01,-8.1,-1.34,-1.85,-0.7509999999999999,13.8,5.27,-10.9,,,,,150,8300000000.0,-1.3941888190970628,-9.322614834038404,-2.8829490733713268,-0.7996959245729549,-0.6192933160829279,0.2002524786664739,4.16044029602131,-1.6683767309980304,-5.6836830199726895,,,,,,,,,
166,166,8.35,6.07,2.19,2.82,-1.21,0.684,-3.6,11.2,10.3,0.64,,,,,150,8350000000.0,1.5906750601932471,-2.8761865717662456,-0.62601425584123,-1.101666315605907,-0.1866017483417179,-2.451076213309087,7.244029492045077,5.011732983299348,-2.8908816242152446,,,,,,,,,
167,167,8.4,-5.08,6.43,9.59,1.18,-6.96,-2.29,-1.85,15.3,6.85,,,,,150,8400000000.0,-1.0768695095622571,2.3347636415652584,3.416960455668917,0.5775653345222129,-2.4353605307827118,-2.3386978647135708,3.2605059333972513,10.754095056712911,1.411096749035328,,,,,,,,,
168,168,8.45,-4.02,-3.75,-2.42,0.234,6.78,2.31,-0.934,4.89,-5.87,,,,,150,8450000000.0,-2.253801638007896,-1.0723678119514002,1.1069907473903484,0.3247124973929725,0.6241263784629449,0.9045672224937956,1.4231561387688156,7.481069858561798,-1.8045383208306431,,,,,,,,,
169,169,8.5,2.74,-4.28,-8.79,2.0,-0.665,0.557,7.51,3.98,-11.1,,,,,150,8500000000.0,-0.2568240458606952,-2.8684647317072045,-2.809730740835757,1.5576692373297294,0.19613821218882235,0.6620793807010603,4.0894205035834155,5.526959389101987,-5.909800933440466,,,,,,,,,
170,170,8.55,9.84,-32.6,-19.2,-3.03,0.119,-1.19,14.5,-24.4,-21.9,,,,,150,8550000000.0,3.78080762220231,-19.516480947668512,-9.29615926030938,-1.818705064208804,0.17052843427028194,-0.6300641030210545,8.649641977540977,-11.176673099547784,-12.971737650719561,,,,,,,,,
171,171,8.6,1.91,-32.5,-0.812,0.464,-1.68,-4.46,5.24,-23.4,-2.21,,,,,150,8600000000.0,3.0326880069089355,-26.786534272065488,-5.938564012203809,-0.13870890034888886,-0.4438444067648246,-3.3021021702434297,7.156091727663593,-17.999082082357553,-8.218906776965913,,,,,,,,,
172,172,8.65,-13.6,-18.5,4.28,-3.43,0.24,-2.45,-12.0,-8.84,3.63,,,,,150,8650000000.0,-3.6185785737511877,-22.14653291422552,-1.8945802152105042,-2.560991416276741,-0.21680901955205184,-2.7076145999009027,-1.2349897566727073,-12.886971010554747,-2.9859367380087485,,,,,,,,,
173,173,8.7,-7.92,-9.74,7.47,-1.79,0.336,-1.49,-7.18,0.0161,8.16,,,,,150,8700000000.0,-5.338679402982461,-15.199559820278989,1.811440413980853,-1.9935669540957308,-0.03327719780541685,-1.8581193102227882,-3.839125539991647,-5.6851649035544405,1.9365723796824224,,,,,,,,,
174,174,8.75,-7.55,-3.54,4.51,-0.196,0.398,-0.324,-7.5,6.18,5.78,,,,,150,8750000000.0,-6.222967240958983,-8.670850495164725,2.879392029254641,-0.6706165384738834,0.10990623081125828,-0.7878076226479942,-5.442724871973046,0.9373372707655676,3.633989944549045,,,,,,,,,
175,175,8.8,-5.35,-0.0431,0.469,0.6970000000000001,-0.0116,1.52,-5.12,9.69,1.61,,,,,150,8800000000.0,-5.8738752400427225,-3.8397869044091486,1.925482453341218,0.3359044670608804,0.06956633174794255,0.8222845232859273,-5.301359310744278,5.822606585293162,2.7401118205004265,,,,,,,,,
176,176,8.85,1.2,2.91,5.67,1.46,0.511,2.36,2.42,12.6,6.44,,,,,150,8850000000.0,-3.045094396058018,-0.060279118455480514,3.4073705411174986,1.1632019957220014,0.2161216863095281,1.8951050820700177,-1.9191163820931416,9.605386358317112,4.374136331595828,,,,,,,,,
177,177,8.9,-0.29,-1.13,-1.55,1.47,-0.657,2.0,1.95,8.42,-1.61,,,,,150,8900000000.0,-1.943356245815821,-0.6592637069200976,1.4454974721051352,1.388995300966761,-0.07375349716796725,1.9682873019595168,-0.224299313131354,8.943766953320024,1.7312928613813192,,,,,,,,,
178,178,8.95,-18.1,-38.3,-2.91,3.57,-0.112,4.01,-14.8,-29.2,-4.17,,,,,150,8950000000.0,-8.404256894335004,-21.735995937270626,-0.27818514802210403,2.9941432872159046,-0.08645128389708281,3.3927327118791704,-6.608999046984656,-12.346049947298999,-0.8749635145853256,,,,,,,,,
179,179,9.0,-11.3,-27.4,0.843,1.59,1.68,2.42,-6.15,-19.3,-0.927,,,,,150,9000000000.0,-9.562239306064203,-24.907525060181573,0.16552244653921688,1.960739834995721,0.5000080605127162,2.714084641639892,-6.407940414618479,-16.227373580991973,-0.8979449844576346,,,,,,,,,
180,180,9.05,0.596,-3.96,-4.7,-0.657,-2.11,1.02,6.56,3.53,-6.81,,,,,150,9050000000.0,-5.500048267443961,-13.178068407442687,-1.7600017992249952,0.034169037802164404,-0.3665109394476895,1.5321696490135663,-0.7274996561417071,-5.199861341081848,-3.5089543162976486,,,,,,,,,
181,181,9.1,7.36,-0.718,-5.75,-1.19,-0.136,-1.75,13.1,6.88,-8.08,,,,,150,9100000000.0,-0.3574274139967111,-6.201118520377298,-3.3390385135227394,-0.8667793272883807,-0.28998163159768603,-0.757707360367222,5.32946024934379,1.5424730944148868,-5.52771815075925,,,,,,,,,
182,182,9.15,5.25,2.85,2.67,-0.757,-0.5920000000000001,-3.02,10.1,11.2,0.892,,,,,150,9150000000.0,1.8849337540423043,-1.132992280485694,-0.9609691326619982,-0.7859853588428422,-0.39025131108517386,-2.3360449889134682,7.4191344658833405,6.93278946277812,-2.69250363252024,,,,,,,,,
183,183,9.2,-9.65,4.14,7.67,1.01,-5.61,-1.48,-6.44,13.1,5.15,,,,,150,9200000000.0,-2.7277851919062726,1.8195919867761088,2.4547259566910773,0.5358010436753476,-2.1232006379010424,-1.7388066054491091,1.3483174777916789,10.374997695146163,0.7710721567543932,,,,,,,,,
184,184,9.25,-1.39,-2.55,-0.6920000000000001,-0.696,6.12,3.05,2.6,6.04,-3.22,,,,,150,9250000000.0,-2.192816591136216,-0.6271380773163684,1.209413171823124,-0.3707641709547311,0.6135304355474855,1.6022083973234067,1.896600989138945,7.955433149426981,-0.9915512954118896,,,,,,,,,
185,185,9.3,2.68,-5.01,-10.9,0.972,-1.35,0.846,8.03,2.96,-12.9,,,,,150,9300000000.0,-0.2442198379513396,-3.0812987272089263,-3.582871541698968,0.6174662883994997,-0.03835893758860076,1.074623180081714,4.583258025819329,5.1672487972790275,-6.250817306738383,,,,,,,,,
186,186,9.35,7.86,-36.0,-13.9,-3.32,3.17,-3.84,13.0,-27.8,-15.7,,,,,150,9350000000.0,2.9965868314137256,-21.513952667829944,-7.665861858903715,-2.2803799073683444,1.0268117789409803,-2.3541704645976744,8.270104421318269,-13.233310884957044,-10.423969259195818,,,,,,,,,
187,187,9.4,-9.79,-35.3,-16.5,0.0889,-3.18,-4.13,-6.74,-26.0,-17.4,,,,,150,9400000000.0,-2.1166573677734597,-29.233377061706328,-11.161960794802878,-0.5366674843578145,-0.3698438847794221,-3.5931166260110303,1.6951198598680683,-20.358995890912304,-13.504874375238845,,,,,,,,,
188,188,9.45,-14.6,-15.2,13.8,-2.5,1.66,-1.48,-12.9,-5.55,14.1,,,,,150,9450000000.0,-7.1086370323434105,-21.375461150356667,-1.2832964762635903,-1.9816159210476367,0.3040614419886408,-2.118854886426276,-4.698085944215934,-12.093404267029856,-1.3134136898836264,,,,,,,,,
189,189,9.5,-8.03,-8.32,7.82,-1.36,0.397,-1.84,-7.06,1.35,9.08,,,,,150,9500000000.0,-7.477081916072136,-14.065124055015293,2.3193215964525984,-1.52412697023925,0.3349169184945852,-1.9243057359458797,-5.732692225220576,-4.59001293970553,3.2767499885775795,,,,,,,,,
190,190,9.55,-6.73,-3.22,1.19,0.243,0.618,0.14300000000000002,-6.31,6.46,2.69,,,,,150,9550000000.0,-7.178330401073804,-7.992453797909198,1.8723940333403095,-0.2235793891393969,0.4289000969596844,-0.4820049417706571,-5.985574502484776,1.5775149982244976,3.017616817957532,,,,,,,,,
191,191,9.6,-4.48,2.81,2.93,0.545,0.239,1.62,-3.71,12.5,4.27,,,,,150,9600000000.0,-6.099291686808077,-1.9436765432529448,2.2909402762192426,0.3420698842649693,0.3658535272506873,0.9845045063716804,-4.988788152461262,7.673863621080504,3.5707213050781124,,,,,,,,,
192,192,9.65,0.816,1.52,1.19,1.34,0.00428,2.12,2.53,11.1,2.16,,,,,150,9650000000.0,-3.3339270436136377,-0.004209059302603846,1.85524458449978,1.0765137939945109,0.2458116206436269,1.7767075431162336,-1.6952789801500967,9.586150442030123,2.9476881475640875,,,,,,,,,
193,193,9.7,-0.45,-1.78,-1.95,1.64,-1.99,1.74,2.21,7.66,-1.82,,,,,150,9700000000.0,-2.180669843235796,-0.9985538568738724,0.34932386004054083,1.4912211781522262,-0.49647472132732207,1.751097734299675,0.015378649155188384,8.511075903314438,0.8420787665107086,,,,,,,,,
194,194,9.75,-20.6,-47.7,-7.93,3.28,3.03,3.64,-17.0,-38.7,-9.2,,,,,150,9750000000.0,-9.546398989745114,-27.148783849613967,-2.9272079616947133,2.807703791402825,0.6743099567624518,3.068931537531653,-7.43799079392961,-17.839629286125568,-3.5929207484233934,,,,,,,,,
195,195,9.8,-9.15,-20.6,-1.87,1.29,0.6629999999999999,2.61,-3.95,-12.4,-3.24,,,,,150,9800000000.0,-9.387882348971749,-23.48182693050439,-2.508819257080724,1.6907234743173984,0.6705550627801421,2.74874790009932,-5.910120966176912,-14.803518105611186,-3.437056273358623,,,,,,,,,
196,196,9.85,1.32,-2.35,-5.0,-0.6509999999999999,-2.31,0.8190000000000001,7.22,5.25,-6.89,,,,,150,9850000000.0,-5.105893851189785,-11.649171338380173,-3.4947008683197978,-0.03270833333046008,-0.3189850408025624,1.4024173292333162,-0.15863915390529115,-3.6107137697216967,-4.962019760256036,,,,,,,,,
197,197,9.9,9.03,-0.335,-5.12,-1.03,0.00672,-1.44,14.7,7.38,-7.19,,,,,150,9900000000.0,0.5469263296891578,-5.313860506302554,-4.13791088767128,-0.7666823198338544,-0.2108514216748497,-0.5806569540417419,6.349997997077078,2.5237165765802176,-5.94598851351353,,,,,,,,,
198,198,9.95,5.46,3.71,6.51,-0.964,-1.21,-3.16,10.2,12.2,5.03,,,,,150,9950000000.0,2.5116215252185685,-0.2609971735153325,0.07598639688154574,-0.91190166088976,-0.542567368400914,-2.380191764365416,8.036442151771707,7.924501832898197,-1.0985354392784652,,,,,,,,,
199,199,10.0,-11.9,4.87,16.8,1.74,-6.94,-0.856,-8.82,13.8,14.3,,,,,150,10000000000.0,-3.2514596946235725,2.6120776898127698,6.694493212223005,1.0398111245955568,-2.666506095835719,-1.3168062486404182,0.6526929464731309,11.203891671068515,5.70209826762602,,,,,,,,,
200,200,10.0,-1.51,-2.86,1.4,-0.853,7.18,2.56,2.47,5.67,-1.36,,,,,150,10000000000.0,-2.5550651935433497,-0.4519834231394335,4.599204246497749,-0.3532358668254054,0.6025201338297088,1.3879318718359883,1.4487411187760588,8.115168509868994,2.5831819776923157,2.31837859139238,1.11263281913841,2.272692843468237,2.051202880152804,3.2887705431523484,2.1167730273896948,3.033762656335591,2.451880677788046,3.4305720949057217
201,201,10.1,4.06,-7.66,-11.8,-0.397,-1.18,0.568,9.26,0.385,-13.9,,,,,150,10100000000.0,0.0902414846516404,-4.488074374781818,-1.8907600564021907,-0.38544484654180855,0.010725953660420284,0.8158885892603822,4.8703634736903165,3.8006006986004497,-4.696476494624509,2.440983422783465,1.0142046002022786,2.0568549308924555,2.4089795624080645,3.3743470688625443,2.3545329746255526,3.379396519342612,2.142566291951003,3.14434640955827
202,202,10.1,5.86,-36.6,-7.27,-3.16,2.63,-4.72,10.5,-28.0,-8.57,,,,,150,10100000000.0,2.397517493409746,-22.468977673049242,-4.019587416321872,-2.42742664207515,0.8803213208103504,-3.046344287829111,7.336353900706405,-13.94879865909082,-6.407185426479732,2.3510898105797904,0.9490693704829115,2.4887286151956105,2.67177666063062,3.3951128079535935,2.8807521928337914,3.140707163937516,2.7890742297609528,3.489316981138975
203,203,10.2,-9.68,-31.4,-14.0,-1.62,-1.3,-3.54,-7.29,-22.0,-15.0,,,,,150,10200000000.0,-2.4321762178719037,-27.46985651978589,-7.969323005276751,-1.833187078464328,0.15645769996495373,-3.3907539007927427,0.9294662732977486,-18.4425498703774,-10.202129688060236,2.518408087837935,0.8723290822068785,2.3911303524587457,3.2578015581099056,3.467936833556011,3.241743861503265,2.8785610803142307,2.4485313873639525,3.155081273157454
204,204,10.2,-16.4,-13.8,13.5,-2.02,2.8,-0.779,-15.2,-4.1,14.0,,,,,150,10200000000.0,-8.017786602677388,-19.81549224085024,0.5271342737927922,-1.9706752569647132,1.0341100396592462,-1.568607001891289,-6.135840477252628,-10.437303379519443,0.4865372663931264,2.451405137819782,1.059377197152683,2.5506600404254973,3.5392029589288,3.577603077577277,3.358361613458968,2.381902111578876,2.456299412173211,3.111892298516111
205,205,10.3,-8.78,-4.75,5.57,-0.87,0.735,-0.888,-7.85,4.93,6.8,,,,,150,10300000000.0,-8.322588965499607,-11.379648960780324,2.52284204039476,-1.1606143160425026,0.9348059285391852,-1.0937667387387475,-6.886706135904528,-1.8600942798496,3.274825049218681,2.4592378483787325,0.8695037554195962,2.445218002127896,2.999974042363331,3.51790862163853,2.971820411220611,2.135447822910373,2.0458935381955268,2.824725123106073
206,206,10.3,-6.57,-1.92,1.69,-0.028999999999999998,-0.541,0.408,-5.97,7.74,3.22,,,,,150,10300000000.0,-7.6217440388165345,-6.082768168311607,2.1932458845906475,-0.3277832367016894,0.4448404163564299,-0.04602653065603191,-6.485154621459826,3.4981662384657715,3.2506120401319696,2.3868213628546813,0.7691118764199067,2.490327748628017,2.645397932075982,3.5392084617703317,2.602352690406087,2.136217122267363,2.7629704253969916,3.0900432350894054
207,207,10.4,-2.51,2.62,3.11,0.331,0.76,1.44,-1.51,12.3,4.6,,,,,150,10400000000.0,-5.577602312368024,-1.2096988897528806,2.556050118508898,0.15705965198378152,0.5494729552711712,0.9907322243125452,-4.3058516352678184,8.41088054155709,3.84655783754431,2.2639685193987615,0.8307263637485381,2.59515475503457,2.1553255403102622,3.666800521102263,2.294904325935469,2.4025220775168097,2.545499802823245,3.2569478676674772
208,208,10.4,1.98,1.95,2.35,1.77,-1.07,1.53,3.78,11.5,3.46,,,,,150,10400000000.0,-2.5553832553358378,0.5595579405114497,2.474506008379618,1.3441309138364628,0.011810176083190349,1.3669640916396468,-0.7639475419744229,10.135062277970995,3.675837837707152,2.35071854582384,1.007805817208172,2.696305565672799,2.109382541028778,3.531677109558401,2.0579705512146242,3.06165921794425,2.2863388170944874,3.374835237841816
209,209,10.5,-1.53,-2.73,1.95,1.52,-1.38,1.55,0.953,6.75,2.04,,,,,150,10500000000.0,-2.145341450329544,-1.282412767390157,2.266933441393004,1.4735647878895015,-0.4502688590365488,1.494663039005644,-0.011860581341671115,8.2457010425712,2.9533838028000052,2.451964115896299,0.8572934209728853,2.5911325301780175,2.4448386656213312,3.475346019131198,2.4233049170302805,3.350701775139763,2.035115614911604,3.1703052417743027
210,210,10.5,-19.9,-63.4,-3.93,2.38,3.03,3.96,-16.2,-54.4,-5.12,,,,,150,10500000000.0,-9.245273930740137,-36.06483044914194,-0.18549511447212108,2.1406715044675093,0.7051755372358945,3.2146589924159787,-7.102868772092964,-26.719789184143373,-0.6121581785306014,2.4095982220386962,0.8074101800201497,2.7120464650232377,2.785243343503935,3.459656979636921,2.8380038129555207,3.197676864774689,2.902764210077794,3.2892935475102503
211,211,10.6,-6.2,-14.7,-3.4,1.17,0.444,2.48,-1.07,-6.44,-4.71,,,,,150,10600000000.0,-8.027495450186867,-24.10170570672297,-1.4576313731152333,1.426289032952551,0.6184656251472392,2.7021081883166644,-4.460247629404145,-15.400692431377893,-2.4219355590338365,2.4057723760864564,0.8295968233978278,2.6871938285838675,3.3209811300347987,3.67296776327901,3.2559529898937414,2.8296921379877156,2.482297120472932,3.0945970401488134
212,212,10.6,2.13,-2.32,-4.46,-1.06,-2.46,0.429,7.92,5.43,-6.1,,,,,150,10600000000.0,-3.9656018335531993,-11.90515392201323,-2.645814954506667,-0.4035382326892738,-0.40358068020518656,1.1162248369762386,0.9627618639551015,-3.774110930005536,-4.046321732228714,2.296560571716902,1.0145900674125063,2.7815734504061376,3.5713842618094938,3.5264587597682335,3.2846373306472922,2.298615378893282,2.397240788230945,2.939895678118794
213,213,10.7,8.25,-0.5870000000000001,-5.1,-1.08,0.363,-1.9,13.7,7.4,-6.88,,,,,150,10700000000.0,0.9193104753271948,-5.567613065410048,-3.617055527791402,-0.9013919723788104,-0.1490769620365739,-0.9881099760630784,6.54214637536517,2.4626819197991727,-5.297791948853606,2.3368221815025745,0.8153356853319734,2.744749599827605,2.7932348006252083,3.5442273819231724,2.926899014279314,2.116606872461339,2.11163574880662,2.819365015646365
214,214,10.7,3.08,3.04,6.54,0.273,-2.5,-3.12,7.4,11.7,5.12,,,,,150,10700000000.0,1.783351283620614,-0.7478253443961957,0.4025862665815283,-0.03707793805905102,-0.9295801307960648,-2.4754693183057843,6.917918248277262,7.618460131916184,-0.6968618342697228,2.354111691266863,0.6774978010607062,2.84857446352879,2.3401535988347284,3.690686045391463,2.4868163616111025,2.277694417253783,2.8729082617726793,3.0902341871572228
215,215,10.8,-12.5,1.66,6.68,1.34,-2.34,0.0685,-9.68,10.7,4.1,,,,,150,10800000000.0,-3.9284359412848495,0.6004237964087575,2.886864701323603,0.9764063526434752,-1.3978375311563649,-0.7006138198915284,-0.3525881280976977,9.338411238759422,1.4216317947839603,2.1994654738825483,0.8635943628504138,2.8821500390637143,1.9475746725668368,3.7341930797500944,2.1790034456689535,2.4249546302304994,2.547348478311626,3.313168136466058
216,216,10.8,1.24,-5.06,20.0,0.629,6.18,2.99,5.4,3.53,17.7,,,,,150,10800000000.0,-1.8616236189905704,-2.569100756735546,9.659366234809509,0.7207266598579554,1.117993900124162,1.874223151454696,2.167259720574965,6.0964658366779165,8.610836493086197,2.4399983270626158,0.9874198876608152,2.886546421374562,1.9750992467808992,3.5905291418805096,2.0045723995555873,3.2808389477093014,2.211014156746162,3.3461277542268126
217,217,10.9,6.36,-13.0,-13.0,-1.33,-1.28,0.66,6.49,2.98,18.0,,,,,150,10900000000.0,1.4261317953419637,-8.409828021377034,0.6919508609045621,-0.7885410365929044,0.3218632802958573,1.0270939911581776,4.060780826831228,4.357020820983943,12.75748156109519,2.4956865917391498,0.7666586314590638,2.9024012012524927,2.2916061533597283,3.5675483206845393,2.4920460550098067,3.299731816807741,1.9988638144360016,3.408743051801065
218,218,10.9,0.7020000000000001,-29.8,-5.5,-1.34,1.31,-5.01,5.24,-21.2,-6.57,,,,,150,10900000000.0,1.1365578339957998,-20.38714208617025,-1.7585058186490057,-1.1943967991576043,0.6499232736608724,-3.1848160367375598,4.5773226345265465,-9.907545650119095,4.221661863722368,2.4557998071061715,0.7649160982054272,3.0252302851550663,2.7474912171752925,3.546595738653886,2.78727574942069,2.7761087194656393,3.1522119329214844,3.281304899425279
219,219,11.0,-8.63,-26.6,-9.03,-2.38,-1.7,-3.32,-6.27,-17.2,-10.1,,,,,150,11000000000.0,-2.76900324991806,-23.865999468494376,-4.6361902888518065,-2.0669620133045044,-0.13024799057589942,-3.2791300210067433,-0.17420858839541076,-13.977805181448725,-2.1033797729459383,2.5353693260613057,0.8752060905962334,3.042725389413052,3.3866227004703284,3.71415318572544,3.04529915721381,2.519025997294265,2.408118252374629,3.0716405730424152
220,220,11.0,-12.1,-14.0,12.0,-1.76,1.79,-1.4,-10.9,-4.26,12.3,,,,,150,11000000000.0,-6.5003873735266495,-18.341584866773104,1.9475608634765733,-1.8410480168246328,0.5072716506340729,-1.968114093286879,-4.8725044515256375,-8.553844715480203,4.2577518065687805,2.361205897760138,0.9896648048295945,3.1233573328824997,3.5186866373353207,3.834749699936928,3.163860806486396,1.9082675793133332,2.1968393915423254,3.0753683927514124
221,221,11.1,-8.63,-4.71,5.25,-0.4320000000000001,1.63,-1.08,-8.19,5.03,6.3,,,,,150,11100000000.0,-7.352000878369798,-10.70865051355884,3.254496952392941,-0.8040348279129865,0.8800158946879364,-1.3485020186139458,-6.325690850186125,-0.9720669158392816,5.159693623176381,2.366125552765311,0.7288190691436645,3.128938996109582,2.633369844234288,3.600227890635824,2.7710840176090326,1.744931581657036,2.043987771629514,3.057556266637568
222,222,11.1,-5.8,-1.7,2.38,0.287,-0.35,0.8270000000000001,-5.55,8.05,3.49,,,,,150,11100000000.0,-6.731369380575349,-5.664303984410022,2.908415940778621,-0.0010689232096912082,0.4716523356630626,0.1692842749769703,-5.985909457267938,4.063569788769328,4.422287486518238,2.403436150303434,0.582374685165733,3.0724597367848556,2.2215618708534004,3.8747676762684384,2.251272600583785,2.016897518767869,2.9038714339069758,3.2621401828488668
223,223,11.2,-2.49,3.15,4.92,0.7240000000000001,0.174,2.17,-1.54,12.9,5.77,,,,,150,11200000000.0,-5.035282873385368,-0.7287806937560237,3.704497804489893,0.532558043014766,0.3728321738245219,1.565127148948311,-4.038435547747193,8.995593665649919,5.0174933708248695,2.372081038634781,0.8877656408218222,2.9958480265117053,1.9979107415699258,3.779015949892854,2.109296499980934,2.3396118379418263,2.4374491697883314,3.3025238373754813
224,224,11.2,1.33,0.809,-1.69,2.01,-0.136,2.12,3.33,10.4,-1.45,,,,,150,11200000000.0,-2.4898619198359144,0.13229154025892256,1.5696321353307463,1.6199069333617402,0.2039005995482575,1.9522461764730077,-0.8107864358070063,9.779458170419773,2.1611793161711983,2.4175394379930233,0.9386956181774648,3.035240575605965,2.150234995406125,3.4572147928302073,1.9730207663349435,3.179411343968237,2.1251158051200467,3.3413013082564045
225,225,11.3,-3.64,-4.82,4.79,1.64,-1.89,2.28,-0.649,4.49,4.07,,,,,150,11300000000.0,-2.9497921184218883,-2.6407182022087463,2.844088607675572,1.6346947618756524,-0.491271473487955,2.180910736802107,-0.7399179477435678,6.827164583109312,3.0041939873186987,2.418045843503826,0.7331469846110772,3.0746126081312104,2.38068371277407,3.5297495823116347,2.356471810816175,3.1139037617323297,2.22358106653343,3.488664104454063
226,226,11.3,-24.4,-72.8,-2.87,0.94,3.26,2.88,-19.9,-64.2,-4.67,,,,,150,11300000000.0,-11.527542447309248,-41.92604138785047,0.5827453524803077,1.1234221651064158,0.7541454190307206,2.6686456391824747,-9.132747175739686,-32.816409046576474,-0.3850492547859576,2.5121678298398065,0.6729323216435543,3.094364898939037,2.880289947589242,3.478605104729204,2.735213218237743,2.876817150558913,3.0830786347754437,3.228184576371336
227,227,11.4,-3.61,-9.65,-3.3,0.262,-0.632,2.25,1.97,-1.74,-4.88,,,,,150,11400000000.0,-8.361386444814391,-23.853241261964282,-0.9538461646161503,0.4894436572340983,0.29394706410936794,2.3765684077299234,-4.2693304717390665,-15.4712148526297,-2.3702064841180532,2.4433612499310096,0.9081511987733806,3.1696715120156225,3.5540999525637478,3.613323437881216,3.1765921713649243,2.3696602354828737,2.4071522848145865,3.047405614112896
228,228,11.4,2.5,-0.927,-3.73,-1.31,-2.99,-0.458,8.42,6.65,-5.65,,,,,150,11400000000.0,-4.018013022962477,-11.015812832029274,-2.052505522376228,-0.8348879045547346,-0.7963187828065112,0.3989701321027888,1.2890688157553403,-3.124332411298619,-3.81869973829986,2.3406005806788617,0.9691107571372651,3.105689703335335,3.36279134519363,3.72916165480481,2.982361290722368,1.8635648074870885,2.150147187081884,2.975519451653541
229,229,11.5,6.31,-0.218,-1.75,-1.09,0.5529999999999999,-2.48,11.5,7.88,-3.74,,,,,150,11500000000.0,0.11206901065882402,-4.969634226873132,-1.932789346560133,-1.022642077007833,-0.3483468382558185,-1.6096059821311026,5.761836894758358,3.017699134438144,-3.783942665224189,2.392715597766994,0.7003684158809393,3.193599353078203,2.416838354255077,3.637154660819485,2.6190214056820573,1.8095008445723968,2.2331268291463933,3.162940913766323
230,230,11.5,1.04,3.22,6.45,0.606,-5.1,-3.25,4.9,12.0,4.46,,,,,150,11500000000.0,0.483140480328785,-0.3838915245523279,1.3846888023508193,0.17598516178521414,-1.9258890271169158,-2.7540625305525697,5.384320284757719,8.031140444080132,-0.14307472989528502,2.1324017149239602,0.5610038326118404,3.231216877397663,2.0201805634300487,3.804099973233011,2.2413632947577464,1.7532189984200077,2.8233196507759915,3.4003313131639112
231,231,11.6,-5.74,-3.67,1.0,0.83,2.62,1.42,-3.27,5.34,-1.98,,,,,150,11600000000.0,-2.0054388650361266,-2.2239307546429155,1.2324486979885705,0.6573186528806426,-0.41666025021662706,0.1580629072753874,1.5934057509737185,6.529089454100824,-0.954337329067498,1.977775183000675,0.9498598214597685,3.1371048228767133,1.6987956033660583,3.803376857476339,1.8648862002547526,2.0344799870850503,2.3732098471885603,3.3557685882771113
232,232,11.6,6.71,-1.99,27.1,1.5,4.46,1.93,10.8,6.65,24.9,,,,,150,11600000000.0,1.4797889080657778,-2.0929424621558796,11.469499383694995,1.2775045283992958,1.2023841619427202,1.3942933049971369,5.626236937812872,6.596575325791607,10.464013060874565,2.1306346938744274,0.9562125761590019,3.0303906923843154,2.0888215433796598,3.5080658558002575,1.9194817146613579,3.083990627830712,2.1420824076793004,3.3674378327931285
233,233,11.7,4.98,-14.3,-11.5,-1.1,-2.42,0.397,9.55,-5.91,-13.8,,,,,150,11700000000.0,2.879492710859753,-8.928220345067382,2.3793492104821627,-0.472260964003868,-0.000242351453222156,0.6985099601112872,7.344991350173823,-0.38392794992007495,-0.25198424876892034,2.121866292958487,0.7391313837722605,3.048746151670994,2.5226258716550527,3.545105284128281,2.2991961133778216,2.630482994725161,2.4172997084851544,3.3419878851719758
234,234,11.7,-1.03,-32.6,2.32,-1.2,1.06,-4.64,2.7,-23.7,0.6459999999999999,,,,,150,11700000000.0,1.3161207881975072,-22.183108221602765,2.3558618094828865,-1.0078530977374298,0.3517566110557233,-3.026017478606459,5.310312196025622,-13.397716328750993,0.144602951810492,2.380600328030749,0.6228894680322846,3.1459637075045346,3.062138425568446,3.35198509985609,2.6599250003859893,2.6149675633568954,2.8868099614903415,3.255520659293893
235,235,11.8,-6.07,-22.6,-4.83,-2.91,-2.95,-3.08,-4.17,-13.0,-6.01,,,,,150,11800000000.0,-1.6375243684897294,-22.416544797660443,-0.4879338339258257,-2.4077709898427315,-0.7444219932644462,-3.063679504998323,1.1575824062059432,-13.17573228458208,-2.573525761783397,2.3364697135985963,0.9431370940385199,3.1418799720939528,3.5772129199761653,3.547655961041504,3.0365641457932915,2.0790201202964016,2.2669872949076626,3.0098610383416133
236,236,11.8,-11.9,-14.1,13.5,-2.3,1.48,-1.89,-11.4,-4.31,13.8,,,,,150,11800000000.0,-5.7413984429381415,-17.759739417183475,5.047773193873406,-2.3284550354877736,-0.0059169885271836975,-2.244836472785844,-4.3431061222181295,-8.227353308207014,4.657704218068568,2.137670452488896,0.9548905356673346,3.09664925131827,3.1497352451090066,3.6017632149699197,2.6652834658708056,1.6583861097183814,2.030672707771974,3.025024601237235
237,237,11.9,-8.34,-6.36,5.32,-0.695,1.01,-0.767,-8.67,3.38,6.37,,,,,150,11900000000.0,-6.7805565335758535,-11.376515258736632,5.155506674170723,-1.1262856161654244,0.33136603116090857,-1.2137917433015155,-6.238446792898901,-1.7487476574178482,5.413925193381688,2.1203023259714833,0.671969809933376,3.1680175989744375,2.573273625915056,3.317940208294357,2.443667687531702,1.6090088981775097,2.3587492178992497,3.122654282348771
238,238,11.9,-5.78,-0.122,5.02,0.875,0.452,1.4,-6.01,9.63,6.05,,,,,150,11900000000.0,-6.380442812754102,-5.0746085313309015,5.101880072628866,0.3465950596289127,0.3714163379032581,0.6097768731164015,-6.1383786912873575,4.602262510828738,5.694842364407219,2.035931628273968,0.5272415265811989,3.195272419888352,2.0190267707247758,3.5181165621177097,2.1193387117955096,1.7722429346551347,2.60385450345517,3.4764927843252758
239,239,12.0,-0.328,2.63,4.99,1.4,-0.111,2.51,0.388,12.4,5.5,,,,,150,12000000000.0,-3.960123883452485,-0.7604533725788709,5.057603585572358,1.1218665814996818,0.2112547862781816,1.935508841424073,-3.279581799373752,8.954543504595446,5.608791873454168,1.9306838806828095,0.9729292597639524,3.11028192023249,1.7080721955114313,3.5593097461044696,1.6743482713501185,2.080562368327797,2.1609764796700444,3.2736288058437966
240,240,12.0,2.61,0.0359,-1.09,2.11,-0.0293,1.89,4.47,9.66,-1.44,,,,,150,12000000000.0,-1.3327888610761902,-0.31453948252437963,2.624697270630229,1.8491003411131737,0.1313909326669764,1.9037585988707018,0.11502350488299973,9.348291612587015,2.4957522216012005,1.9391435374441681,0.9418091598080341,3.0012716267904924,2.0791398094776814,3.3798567620015727,1.9279358463735496,3.301114073175079,2.0315720896407146,3.3668519865581574
241,241,12.1,-14.7,-19.2,5.62,2.9,-1.78,2.36,-12.0,-9.89,4.13,,,,,150,12100000000.0,-6.67821958040863,-10.889354369848556,3.810084471678594,2.62252814558812,-0.5031881808401703,2.22206525778152,-5.191807912473223,-1.389496963222186,3.2175040538872035,1.824205138768331,0.7046481964127842,3.111808140040764,2.5889614018392098,3.3932628674051895,2.2225769927126207,2.422894515604152,2.5589118844163843,3.3404429574953274
242,242,12.1,-13.7,-46.0,4.24,1.34,2.29,3.89,-8.99,-37.7,2.07,,,,,150,12100000000.0,-9.486168066088515,-30.5493760447403,3.980222904753961,1.6786294549775105,0.42414638567208063,3.385736264464283,-6.8555573782897365,-21.656083715104273,2.7107185134195877,2.177769748287187,0.6278835879495034,3.144273241285862,3.239525337230235,3.2929859759904136,2.634251675729309,2.5245956610833655,2.727704155716886,3.1346518984312826
243,243,12.2,-3.08,-6.88,-3.7,-0.281,-1.18,1.54,2.74,0.604,-6.21,,,,,150,12200000000.0,-6.924397468300536,-17.295833266784847,0.9407844374544698,0.2364063582677398,-0.10842795896352676,2.0980182069899342,-2.652345936542397,-9.231692149396302,-1.2290417812766417,1.8426011648571123,0.995447333592808,3.0256447465144856,3.8909398995179743,3.4849593311550966,3.206716221738852,1.8698559485937245,2.1753253305126323,2.921914598906102
244,244,12.2,4.08,-1.54,-4.53,-0.928,-2.32,-0.6609999999999999,9.92,5.82,-7.33,,,,,150,12200000000.0,-2.5238352197528338,-8.473437132464467,-1.2242716300812242,-0.6205585700169849,-0.8426667689927934,0.1731291650352662,2.8548097684301688,-0.8306402149494954,-3.9234786150590577,1.8475397877245638,0.9719546710321103,3.077459553244456,2.6254870955652776,3.5691353093086087,2.6326927024455893,1.7014038651440297,2.0981955407480646,2.9453754101298943
245,245,12.3,7.23,1.23,-1.93,-1.21,1.7,-2.98,12.3,9.21,-4.48,,,,,150,12300000000.0,1.3766381638884586,-3.040048446602153,-1.503562714318561,-1.054368187648664,0.0014950667918526286,-2.0267199586894145,6.9921548801252476,4.773509698701754,-4.169261610902998,1.8485359793046972,0.6438434474543355,3.212499704479266,2.200931728580939,3.501267192188538,2.402586078487803,1.6545275232165584,2.595131020155366,3.21587692606202
246,246,12.3,-2.64,5.24,8.24,0.5,-5.67,-2.48,1.13,14.0,5.86,,,,,150,12300000000.0,-0.2295803415028517,1.5963210791617641,2.3524397494345166,0.08959589632041952,-1.8814334082369388,-2.3429606470390163,4.4243127538575635,9.923244528547755,0.2600774582948189,1.780227993425696,0.5532144512827467,3.1607190019378626,1.9880598691647144,3.6399705235444566,1.8511348683483777,1.7258886870506127,2.5668235967135535,3.5183170400782124
247,247,12.4,-6.67,-4.98,-0.797,0.575,5.28,2.39,-3.56,3.76,-3.96,,,,,150,12400000000.0,-2.805047851455741,-2.086055391333097,1.106052976990883,0.4468374119381096,0.4961525618198364,0.9590923152243992,0.9268864841163588,6.483250118304252,-1.6036842627946493,1.5876008256437626,1.0246031775561264,3.0799093174913796,1.873970185682248,3.594164551540036,1.465072378191588,1.906764643255126,2.0294834559884096,3.255394708881187
248,248,12.4,4.27,-4.14,-12.2,0.172,0.555,1.42,9.34,3.94,-14.5,,,,,150,12400000000.0,0.02420188287918457,-3.236150816119169,-4.159800493269075,0.24456608137155,0.5156898315704356,1.280654551613038,4.612143546608948,5.063743567830957,-7.299233606225663,1.4302979897567751,0.9521554402805745,3.085727307539448,2.30408772323179,3.4551346732732484,1.9769721026709446,3.400894591742563,2.0715558982156104,3.3901368554766456
249,249,12.5,7.33,-37.3,-15.0,-2.19,-0.0342,-1.97,12.5,-29.3,-17.1,,,,,150,12500000000.0,2.945726606925358,-22.310023889840995,-8.449795663721948,-1.5471948699443596,0.33312717415645793,-0.9872352848945728,8.067318390106367,-14.116265019109118,-11.627659794708409,1.5625912647708347,0.6892751931187311,3.1224054964491814,2.7307972291184237,3.3882691837959276,2.2748733381620685,2.1984698370060993,2.782297728964871,3.2502034248493463
250,250,12.5,-2.22,-24.9,-2.16,-0.392,-1.21,-3.78,1.44,-15.9,-3.54,,,,,150,12500000000.0,0.8799977161123582,-23.76026720065462,-5.960617061839678,-0.6970092682120734,-0.17918890746448565,-2.935668282603237,5.164306181537032,-15.11185054446842,-8.055812874271975,1.8989204503042285,0.65361533674524,3.1974777535618677,3.319859318633185,3.374981679918449,2.296829930013458,2.4309076173626725,2.6770010825411332,3.1275210464300867
251,251,12.6,-13.3,-18.0,3.77,-3.08,0.153,-2.85,-11.2,-8.44,3.11,,,,,150,12600000000.0,-4.790459397575994,-20.534835825482574,-2.1097377405621134,-2.4508123529515,-0.06890265458299914,-2.8758998762976895,-2.0038691934605826,-11.387979151631615,-3.1245256071669902,1.7139607993419845,0.9814875634420176,3.0621569521778125,3.6459093480853264,3.492050291557879,3.2966293832007776,1.7715479866308508,1.936832638065422,2.9447433928143325
252,252,12.6,-9.22,-10.6,6.95,-1.48,0.309,-1.72,-8.24,-0.894,7.62,,,,,150,12600000000.0,-6.561794040822541,-14.971876880687663,1.4756418744714046,-1.7363262671865516,0.0565604946866151,-2.0694612185147907,-4.735526598740101,-5.530799638295578,1.620703678668952,1.8192016982986587,0.9940640439712812,3.106956467369463,2.4633936024754512,3.554585077668041,2.3575876853423017,1.6210328577641777,2.1547837540982004,3.0622598915235777
253,253,12.7,-8.61,-5.59,2.42,-0.162,0.738,-0.483,-8.39,4.15,3.57,,,,,150,12700000000.0,-7.380853548519045,-9.718544265601587,1.8493704320021696,-0.5776736906117395,0.2827974516798677,-0.9626320672040876,-6.336322179024199,-0.12749351200035264,2.481593969285897,1.8323900494067376,0.5598962985874423,3.1809599245974263,2.3237872892467037,3.4580638463896336,2.2628350196671994,1.696315315652757,2.824158852588183,3.3205964949642257
254,254,12.7,-5.8,1.74,3.4,0.465,0.659,1.39,-5.45,11.5,4.47,,,,,150,12700000000.0,-6.748684120340441,-3.30239256093256,2.4630301495071327,0.18970000303983348,0.4076961660632143,0.6787328302760847,-5.948079977443062,6.362353262577756,3.359756670828774,1.6932532597014944,0.5029885585677606,3.1476918946574894,2.142696635866265,3.7434642832140486,1.888735169679872,1.8047123859243295,2.227534149667962,3.4237278981797616
255,255,12.8,0.7490000000000001,1.91,1.56,1.29,-0.6809999999999999,2.24,2.03,11.6,2.28,,,,,150,12800000000.0,-3.750425826603472,-0.3837407323899078,2.1056570934827508,0.9994847403220803,0.04625055970313397,1.7679848195400312,-2.453383883326429,9.285728556301882,2.882891208950145,1.6176524451143433,1.049686456983168,3.091424373010531,2.059392203144891,3.519275640924181,1.4523166567740846,2.2148926535741946,1.9951264349162268,3.216774063994112
256,256,12.8,0.29,-1.29,0.0742,1.64,-1.48,1.71,2.55,8.25,-0.0375,,,,,150,12800000000.0,-2.134694888278542,-0.8911958296842486,1.3017105306948926,1.4708829854505716,-0.4604625031320143,1.7275304762229995,-0.2617154543399631,8.707640112432449,1.5931250012883302,1.2375711415388901,0.965070275249028,3.014367666948336,2.398526663715155,3.2995700345961763,2.0509240919499643,3.2630468359043596,2.1717072132183266,3.344004680960943
257,257,12.9,-17.9,-30.7,-1.94,3.95,1.21,3.56,-14.7,-21.6,-3.33,,,,,150,12900000000.0,-8.439102332087323,-17.58247964325078,0.018807687668094042,3.2954319576215685,0.09412873005941648,3.0059926371052743,-6.586221634336822,-8.208468479795501,-0.5811317015998163,1.5723204956573344,0.6186202317794406,3.1482317990962003,2.7551600697762786,3.341910233619771,2.290859029538677,2.2896112109339155,2.982152711241211,3.3690282505153566
258,258,12.9,-11.7,-27.8,1.57,1.09,0.987,2.54,-6.66,-19.6,-0.244,,,,,150,12900000000.0,-9.743106706272915,-23.303726093513355,0.6326900935439921,1.6723062844248635,0.3905607422083518,2.6808827166230507,-6.6185392389132005,-14.566614067516888,-0.4322403232241363,1.7863904904177068,0.6422211763489548,3.243868347742586,3.5814199342743946,3.2113821316037026,2.389477170158792,2.428610975431895,2.3361281901947737,3.2230865104401127
259,259,13.0,-0.326,-3.88,-4.83,-0.922,-2.1,0.826,5.47,3.72,-7.03,,,,,150,13000000000.0,-5.977288119038051,-12.427512714292881,-1.5291625344572324,-0.23701817641770065,-0.436301917885784,1.3867834472729224,-1.323309008139491,-4.3600013192730644,-3.3460854675190728,1.5422963344253884,1.0293884481816922,3.1329019739982695,3.3379649914237075,3.407018899342,3.17941358644277,1.8346542010308549,1.8679861365931791,3.047031919277351
260,260,13.0,8.12,-0.5720000000000001,-7.91,-1.02,0.33,-2.11,13.6,7.19,-10.2,,,,,150,13000000000.0,-0.3399059716978972,-5.789080631323287,-4.054370787222776,-0.8132671436037439,-0.1818907458853548,-1.0528234709381503,5.213656197729512,2.086593477984642,-6.373059071805495,1.7107859557811889,0.9636774310514686,3.2610432096020863,2.552378335600306,3.4160804689631963,2.2560634076537247,1.695657700738221,2.19041705396368,3.2179920723753677
261,261,13.1,5.1,3.62,5.1,-0.115,-2.26,-3.32,9.51,12.2,3.19,,,,,150,13100000000.0,1.835464798937965,-0.5205153975397732,-0.4315402265666042,-0.2993653941603086,-0.8718201158516878,-2.6345684178518383,7.095614864594702,7.731357535803241,-2.149614465344676,1.5980429183172309,0.4664478434707169,2.975954004779676,2.397130870708684,3.349090626920669,2.0751895212328377,1.586626240677175,2.8592222735944253,3.2331531769198096
262,262,13.1,-7.34,4.81,8.25,0.88,-4.17,-1.11,-4.89,13.9,5.36,,,,,150,13100000000.0,-1.83372336650275,2.464278679816207,3.0041682787000727,0.5686089108088945,-1.9668112613271536,-1.570920127289151,1.845469308906095,11.1743645676107,1.1669436408249858,1.6377637336391748,0.6593701460981142,3.077227198887357,2.05465552478091,3.4369410689019437,1.7546350810660971,1.9172381840539008,2.2561487441163046,3.427497083846962
263,263,13.2,-1.99,-3.02,1.2,-0.642,6.54,2.71,1.32,5.74,-1.7,,,,,150,13200000000.0,-1.896217028914896,-0.6066143614885164,2.290170995445386,-0.3223596171549603,0.8574381966571127,1.4157568925208817,1.6152942078936208,8.141191957365958,-0.09921791845131488,1.5564741395855457,1.0949521570241567,3.018776073485262,2.203094763076665,3.160554361440244,1.4382326572215574,2.3782462425422914,1.9575473544931072,3.2172687313840855
264,264,13.2,1.39,-5.47,-9.42,-0.0443,-0.541,1.52,6.22,2.77,-11.7,,,,,150,13200000000.0,-0.5820875932102829,-3.3298414974642525,-2.3441143156086817,-0.1177168455902759,0.3931586635211252,1.4884843493720674,3.632326716494664,5.143279046216248,-5.222605638472284,1.080635311852666,0.9483731605743767,3.172973014426936,2.389006585094156,3.1661813348187127,2.1751080645493195,3.1531315445437076,2.256782208428418,3.4939887295158387
265,265,13.3,6.86,-32.4,-9.36,-2.92,2.02,-2.69,6.36,2.79,-11.2,,,,,150,13300000000.0,2.393938183938899,-19.60752497476289,-5.120642017976767,-2.180105534774153,0.93326771124382,-1.4267261363467356,4.827149242418237,3.8298041636394817,-7.862471483774942,1.4895246261470585,0.5521664870245374,3.191896832360238,2.800104383214659,3.0010097494697248,2.292939873685781,2.0383439721267735,3.100777907743514,3.2652346725906214
266,266,13.3,-11.9,-36.2,-14.2,-1.21,-1.76,-4.06,-8.72,-27.0,-15.4,,,,,150,13300000000.0,-3.3220824972412664,-28.898394674849936,-8.713786318619535,-1.4661396580784527,0.03910659173690911,-3.2638868542783497,-1.1070066924323267,-13.377748341616595,-11.191357368225349,1.5320079569141198,0.757440126546297,3.3870748937692152,3.483983340641356,2.99852072593277,2.1686114976876025,1.9122950930693712,2.348702685731025,3.151171640590993
267,267,13.4,-14.3,-14.3,11.1,-2.88,2.2,-1.83,-12.6,-4.63,11.1,,,,,150,13400000000.0,-7.71205574600295,-20.724100331203466,-0.8725054271574146,-2.5066946531401393,0.7565202043829428,-2.2635045479032714,-6.141365888176165,-8.495221805836085,-1.346566764255975,1.5605038578804407,1.1177824259310174,3.117752900174187,3.3269005317683797,3.300688515909902,2.981006377576652,1.5369421227255133,1.9680280098012115,2.966767239398787
268,268,13.4,-9.31,-7.16,7.64,-1.62,0.556,-1.99,-8.51,2.55,8.74,,,,,150,13400000000.0,-8.351059841863789,-13.128953482558137,2.4963077183486067,-1.8541164292385492,0.6899477743799418,-2.0726881607750047,-7.178915929281684,-2.3303680712229733,3.1080804837395664,1.6864303017378997,0.9450029275817636,3.249660928197987,2.698249794312167,3.3009948076841193,2.182419289102715,1.4952449187968633,2.4284512940120604,3.1514731514637853
269,269,13.5,-7.16,-2.62,3.36,0.0522,0.175,0.233,-6.9,7.07,4.85,,,,,150,13500000000.0,-7.874765369696989,-7.244520092361268,2.8381127990302706,-0.4511299644507782,0.5189858307156995,-0.4640746934300311,-7.056740408151437,2.9164161525623364,3.8773845405063088,1.468115892346082,0.414857218117409,3.3263749862138114,2.45307918760583,3.1050169743021807,2.0625598773958207,1.3576231659626408,2.839144455085404,3.263129183962879
270,270,13.5,-4.48,1.57,2.12,0.73,0.208,1.68,-3.84,11.3,3.42,,,,,150,13500000000.0,-6.517228404021528,-2.30887581722485,2.5539205266723344,0.4181430240132401,0.41573897020867934,1.0317855916248042,-5.6476882913259185,7.595685659217884,3.6753845400468923,1.525439656512976,0.8289802671242259,3.214292373688453,2.1519095363742498,3.2320312472044046,1.818401500796521,1.683589325395333,2.3515703921037456,3.3698554267368865
271,271,13.6,1.99,2.06,2.85,1.72,-0.32,1.92,3.63,11.7,3.65,,,,,150,13600000000.0,-3.115262184256492,0.13745322614754318,2.671093564007248,1.3762671464423035,0.17147466092589336,1.6514676532999326,-1.5837153000790885,9.886494931315,3.66417371362378,1.4662643151773025,1.0765968912539252,3.224386900738538,2.346564732030816,3.0419591046211782,1.5002438402977274,2.243551664938227,1.9211197654408587,3.272417846798166
272,272,13.6,-1.04,-2.11,-0.376,1.94,-0.622,1.61,1.41,7.39,-0.5529999999999999,,,,,150,13600000000.0,-2.2853829762973668,-1.1209963490150296,1.4652101658132912,1.7911561077617584,-0.09195781253521744,1.6225368534565807,-0.2723565375028749,8.493084526268389,1.801694435578293,1.0218056442009538,0.9125116917632731,3.373628983732159,2.5675620043408323,3.281537481604751,2.2194949140851836,2.8408315794330306,2.475217376230239,3.595165838457419
273,273,13.7,-23.9,-51.4,-4.04,2.65,2.04,4.56,-20.4,-42.3,-5.51,,,,,150,13700000000.0,-10.928879082838561,-29.27446131179744,-0.7134697418168423,2.4232371573874034,0.6158491942024248,3.6719218376139033,-9.089013691876293,-19.856905993365626,-1.4274539967443065,1.5227415894611174,0.49105236213285614,3.103075908744365,2.833843102149768,3.134348652130072,2.304160863099292,2.0701895726844954,2.893494295908015,3.2153274404817878
274,274,13.7,-7.69,-20.4,-3.46,1.14,1.46,2.44,-2.26,-12.4,-5.05,,,,,150,13700000000.0,-9.633679694810183,-24.305253081322746,-1.800405614117225,1.4788166222174453,0.8961060966914497,2.812444825776257,-6.097651401443428,-15.69485853790069,-3.0273210453780344,1.3630115718480975,0.8330307263393044,3.2186843754247865,3.6981645725541945,3.0466090281240215,2.218249558738241,1.7269757494054285,2.1257687250284794,3.079933665079058
275,275,13.8,0.345,-2.27,-3.29,-1.04,-2.06,0.521,6.42,5.23,-5.02,,,,,150,13800000000.0,-5.643292980678785,-11.96672880213686,-2.3899106830739894,-0.37494989795377776,-0.08531698425930634,1.2137685467921724,-0.6144539394824333,-4.015718431365418,-3.907370932051433,1.5281051672665455,1.1117534695617577,3.3880328197772007,3.0903442910298557,3.390425050349967,2.5334141922943547,1.5587357412261686,2.035923170677109,3.216646822071736
276,276,13.8,7.02,-1.07,-6.4,-1.18,-1.01,-1.78,12.7,6.65,-8.39,,,,,150,13800000000.0,-0.5793529061756368,-5.8651627511768725,-3.976898468782285,-0.967440370836116,-0.3923104522655794,-0.8748991438779776,5.21777258738408,1.9373168386897008,-5.88708649737021,1.5994099722573258,0.8499973439192117,3.2819793971933513,2.41868599912568,3.2479923147349496,2.2004680126167036,1.5458252521262381,2.496835776393124,3.0872213528720263
277,277,13.9,4.21,2.58,6.07,0.29100000000000004,-1.29,-2.82,8.94,11.0,4.53,,,,,150,13900000000.0,1.3358674381083673,-1.1363382520453555,-0.0008511074057366841,-0.04126946273890841,-0.6903421170546233,-2.231940995701072,6.848246613374871,6.995623258964331,-1.28646779629676,1.3799128111934686,0.3129806211474272,3.317353731822253,2.1521569039442805,3.3023061169116716,1.9673003343677622,1.4517438894780017,2.605459506997855,3.1164927128084563
278,278,13.9,-8.67,2.06,3.21,0.249,-2.87,-0.14800000000000002,-5.32,10.9,0.7170000000000001,,,,,150,13900000000.0,-2.6653914477105283,0.6534345380219848,1.2698391505467372,0.17235935465880034,-1.4139854552911333,-0.7780342568984076,1.5181014174578245,9.174837919262071,-0.4016530966754612,1.3606189495130954,0.9660493262960553,3.1610944176753315,1.8774610467222892,3.245097380215325,1.7738911461198048,1.6993596411319276,2.3653588121144793,3.279028263285586
279,279,14.0,-0.424,-3.89,10.8,0.916,5.19,2.56,4.09,4.54,8.65,,,,,150,14000000000.0,-1.7690786138783083,-1.890637835334627,5.0413882637027445,0.7196545233507954,0.7785285214412931,1.5508178707381368,2.644688832195059,6.58791855116788,3.595933169790082,1.2960049738249633,1.0963923946833751,3.0436644400635746,2.2167489574444614,2.9106943124353934,1.637723857712808,2.3984729984908184,1.9724132774619165,3.1209698542094415
280,280,14.0,2.71,-8.59,-7.62,-0.34600000000000003,0.136,0.236,8.17,-0.6709999999999999,-9.55,,,,,150,14000000000.0,0.02206575525322929,-5.641910590400282,0.03066000378136113,-0.06463229764033007,0.5652099511876967,0.6335066003242409,5.064980900884589,2.5363773378910084,-2.2098576968462873,0.89551736320628,0.8252726389717442,3.2870089946023384,2.5056118676540917,3.1556754185652136,2.1513379060555025,2.518121246899548,2.4513946137052773,3.3288277569321174
281,281,14.1,-0.11,-34.5,-8.28,-1.51,1.24,-4.27,4.8,-26.2,-9.78,,,,,150,14100000000.0,-0.030746184698385786,-21.800846238153767,-3.2582730192509217,-1.1283755869442014,0.7892393091394078,-2.7875313673896214,4.948909482859759,-13.502736383243866,-5.5531472364426575,1.4432923498552017,0.4622728554252904,2.9576966085375056,2.937839320554387,3.038244310021986,2.238195249060968,2.0833980826742367,2.894488051006896,2.8901200842907966
282,282,14.1,-6.21,-26.8,-9.69,-1.93,-2.79,-3.39,-3.2,-17.6,-10.9,,,,,150,14100000000.0,-2.501775743430126,-24.60009571222798,-5.803620627272234,-1.7183448649133697,-0.3990631353243087,-3.2078567796728863,1.3793836708420053,-15.78961063658469,-7.9145396057660315,1.2096607408076432,0.9418488114730396,3.1760769784729352,3.755401113468978,2.9208588099994794,2.220571646273496,1.562146904687976,2.1372739303760317,2.9149142464800843
283,283,14.2,-15.0,-16.0,14.5,-3.25,2.87,-2.53,-13.5,-6.32,14.5,,,,,150,14200000000.0,-7.4997062868413495,-19.78451727229895,2.23151141800252,-2.8455928859993254,0.6862612268395429,-2.734935240895555,-5.138340434562782,-10.504179097202053,1.9846532285584413,1.534748235614682,1.139309876722076,2.9322317955359893,2.9550128604545325,3.087010337618481,2.3532909709879823,1.5993783237492225,2.1535505174776235,2.87900143377099
284,284,14.2,-8.49,-6.85,7.48,-1.42,0.384,-1.95,-8.16,2.89,8.57,,,,,150,14200000000.0,-7.8957159879320065,-12.54190218395066,4.3085941079281715,-1.7964031753518948,0.5859109223308276,-2.1873081390088944,-6.461939773697026,-3.0282625892120327,4.893016090208853,1.563726386845743,0.7972435695015226,3.2318577364305034,2.504416853790254,3.049668146579175,2.2000382720380887,1.5793225228243708,2.5848692002288276,3.0622455753116684
285,285,14.3,-7.8,-2.1,4.16,0.16,0.16399999999999998,0.332,-7.95,7.6,5.59,,,,,150,14300000000.0,-7.857440077972469,-6.695013827041523,4.249788118280555,-0.3565545088270925,0.44583708624171503,-0.4296580553635034,-7.113765479563978,2.903866720845998,5.200833237350525,1.2954174712540725,0.31758067660528155,3.3709661688445984,2.322058851938974,3.147441368962277,1.9949876396956783,1.5201254949518028,2.8469199733298702,3.3225957908188715
286,286,14.3,-4.16,1.19,2.2,0.6,-0.6,2.09,-3.79,10.9,3.4,,,,,150,14300000000.0,-6.37886607566642,-2.279841702200585,3.43858709584068,0.3474383021596238,0.0986206247731894,1.3282361039680588,-5.657832417097825,7.366881663969934,4.40551043132924,1.2789586073207024,1.0324547788932845,3.0136605367153986,2.008274021044653,3.2863855352746505,1.7928468032329956,1.622901004907427,2.3364025370005552,3.186846242156269
287,287,14.4,2.24,1.48,0.8,1.96,-0.0446,2.12,3.77,11.1,1.45,,,,,150,14400000000.0,-2.932256927637713,-0.17453807112942687,2.3943696125917318,1.53423093199523,0.051071577577488994,1.8806273189896752,-1.5280907663912533,9.45050944177767,3.1002341362930887,1.1659076160634758,1.088685270777574,3.0839019430688905,2.287061589616979,2.954432412599739,1.7348736798095703,2.482939721902362,2.0231991609274824,3.174939806555813
288,288,14.4,-0.512,-2.82,1.44,2.06,-0.623,1.68,1.91,6.68,1.11,,,,,150,14400000000.0,-1.9644173648581127,-1.6558505510282482,2.016679074624436,1.9211797061534637,-0.1727192543091401,1.7406552717022763,-0.02207900254127182,7.904158729119067,2.221263980959484,0.9148494397355376,0.799854628762145,3.1350784812322847,2.595174871423158,3.1996620428242464,2.158934815791695,2.3693942612933934,2.6499532182009626,3.30062724356513
289,289,14.5,-26.1,-48.3,-2.56,2.63,2.07,5.48,-22.6,-39.3,-4.4,,,,,150,14500000000.0,-11.616025870630484,-27.77399670630055,0.2054641731657576,2.442848314343244,0.5718603870722256,4.3494904273523165,-9.912049291414712,-18.44268481091945,-0.7029615909850889,1.3967857439374047,0.4493186235311189,2.901700069205779,2.850974408820877,3.1185676641462177,2.2568417698875787,2.132121154878548,2.901587977459461,2.86077641951685
290,290,14.5,-9.88,-20.2,-3.69,0.995,0.96,2.64,-4.1,-12.5,-5.68,,,,,150,14500000000.0,-10.921804357806575,-23.53297744449158,-1.3361608425594809,1.3772793723446846,0.7007221899349283,3.1568273399005653,-7.3661552390779725,-15.125795077747288,-2.9010286546822117,1.0171133941283832,0.9755146487451524,3.0062214737902453,3.7053675785091675,3.0813536460774267,2.3698223801242944,1.5420282451856953,2.0799907037256786,2.8017032336444503
291,291,14.6,0.0192,-3.34,-3.74,-1.42,-2.53,0.7120000000000001,6.4,3.76,-5.99,,,,,150,14600000000.0,-6.546592428696723,-12.226025698044147,-2.2874771361825528,-0.6814266093680508,-0.3718730603459393,1.451140404785227,-1.3360665978470312,-4.584751465701999,-4.265246759496282,1.4127270651771098,1.0957313185210318,2.855825178344738,2.8571634217795134,3.1409961323637896,2.3302086096381203,1.6618950205863114,2.1112020062079404,2.7838466694061994
292,292,14.6,7.98,-2.3,-4.65,-0.982,-0.867,-1.44,14.1,5.0,-7.1,,,,,150,14600000000.0,-0.7375351901667946,-6.667999697549278,-3.222442593109243,-0.9026387768424248,-0.5362545081618914,-0.5659265913790554,5.425505525660314,0.7649456397507509,-5.5171916361241795,1.4378798294117123,0.7214369998690516,3.1486937073627748,2.36098589396146,3.1472873708445466,2.222483160168344,1.7112417323360314,2.608304684040709,3.006041956611706
293,293,14.7,6.11,1.72,6.04,-0.395,0.4970000000000001,-3.55,11.3,9.84,4.16,,,,,150,14700000000.0,2.000734282260334,-1.9711832914258285,0.44315726994793,-0.5290332690361954,-0.1932154500482712,-2.6478302448265483,7.998752935138635,5.830157088673282,-1.2433414355354024,1.2206292728929604,0.3236917696686626,3.449182990016502,2.062219030551135,3.1283485161703384,1.9582664044962506,1.768832860281857,2.7039121234234713,3.337768549778854
294,294,14.7,-7.5,4.33,3.95,0.281,-5.07,-1.83,-4.1,13.2,1.34,,,,,150,14700000000.0,-1.7985262430244782,1.5571311660153389,1.8309858399555845,0.06712468156807483,-1.812301173872854,-2.077253224989517,2.699048674965537,9.943610255515999,-0.1024304104832423,1.1544944412179459,1.0875731936903104,2.94656154655433,1.8469523559491914,3.1497944444382093,1.8118065135650276,1.6783019918432778,2.2295644070892076,3.0078569345316493
295,295,14.8,-3.56,-4.28,1.41,-0.245,6.72,3.21,0.387,4.33,-1.15,,,,,150,14800000000.0,-2.5029241658568835,-1.7113399004732606,1.664381215906817,-0.16258886617838555,1.0204108425234937,1.6115139579221047,1.6862852601096516,6.810392346769338,-0.5650806955382925,0.9907903906630557,1.0833089630849708,2.8555742979835337,2.1885559526945055,2.7987911035063364,1.8557661335000533,2.6250542336677274,2.037531188633043,2.927089811826447
296,296,14.8,3.59,-7.69,-5.67,-0.5379999999999999,0.0336,1.78,9.34,0.109,-7.19,,,,,150,14800000000.0,-0.06641712828783762,-5.059059264754133,-1.2381908541241984,-0.4388791576575817,0.6927910191378178,1.7290618880718407,5.0388973812929025,3.0700325281207124,-3.4909205935066216,0.9008395791795778,0.7142319972433985,3.0524710369878116,2.6006537947697903,2.9917275595336936,2.185591507715776,2.320999807568138,2.5846072721223714,3.1862410193071695
297,297,14.9,4.36,-37.2,-7.98,-0.69,1.59,-3.46,10.1,-29.4,-9.4,,,,,150,14900000000.0,1.7036684115851457,-23.0562107031518,-3.9062532583067817,-0.6236958722115076,0.9906631601421227,-1.8911999739780991,7.255848953610432,-15.053007762541034,-6.100615629443189,1.2857406920585008,0.4568821488755739,3.093946689057349,2.933535359372226,2.8771024813281665,2.2666187597900014,2.0883705311115053,2.80469152296482,3.023531601175407
298,298,14.9,-8.27,-24.7,-6.34,-1.65,-1.64,-3.98,-4.28,-15.8,-7.21,,,,,150,14900000000.0,-2.284714517756594,-23.97664231653816,-4.869405496979855,-1.3790220835135083,0.11728666584255132,-3.3484967355562234,2.2027174642956284,-15.46993909823644,-6.590565919848737,0.9528208427443904,1.0874110285804879,3.0902753870559025,3.727313462449213,2.9593615793044705,2.609080764329751,1.4143110423782468,2.1757477798036464,2.958373101437557
299,299,15.0,-18.1,-17.7,6.86,-2.72,2.7,-2.41,-15.7,-8.25,6.85,,,,,150,15000000000.0,-8.609108979592335,-20.46206983361841,-0.22750813375707946,-2.3659379370255937,0.9747439053916797,-2.6937341451358057,-5.639339337747344,-11.44015413890868,-0.6546531043677951,1.4266469923672487,1.1031436853177419,2.924604159341219,2.8668409210870416,3.3388784556277393,2.3401374916652555,1.6145727968173034,2.1811935500639246,2.900303892356541
300,300,15.0,-8.63,-6.97,5.24,-1.64,0.00916,-2.2,-7.31,2.69,6.34,,,,,150,15000000000.0,-8.61746316165875,-12.907256051865016,1.9362511671454181,-1.8316713777178744,0.6541713958838273,-2.3492698183625977,-6.371150892462922,-3.5534556394086065,2.4344766577276995,1.4531697401888615,0.6933499805122126,3.235515983387259,2.5129615433812713,2.884186140535118,2.1987426463556425,1.7554350653417155,2.7064327234554324,3.0374351268321296
301,301,15.1,-7.87,-3.24,3.1,-0.111,0.136,-0.17800000000000002,-7.3,6.42,4.7,,,,,150,15100000000.0,-8.318559136494294,-7.494126788138566,2.3968032501896985,-0.5653135929744615,0.4821392178208943,-0.8344362287497464,-6.7780214722906935,2.0131954484761594,3.435025896844188,1.1733248063998392,0.33352452242775954,3.3850867206343658,2.349717401226693,3.1278082037776658,2.0634593296002364,1.8038677895292645,2.492158871600424,3.361962893434898
302,302,15.1,-5.73,1.97,3.03,0.5429999999999999,-0.191,1.41,-4.92,11.6,4.53,,,,,150,15100000000.0,-7.283416990634469,-2.1947386677611567,2.647390047435286,0.2503689039878653,0.2586579367401237,0.7314434765686884,-5.9641389144548445,7.364038689857957,3.9186120897042818,1.14708875959658,1.0909710740548615,2.687550593944069,1.9525214217028368,3.2424245972074934,1.894708001808697,1.648473064827258,2.1440138271341382,2.903031150474941
303,303,15.2,1.86,1.74,1.39,1.81,-0.0446,2.12,3.61,11.3,2.42,,,,,150,15200000000.0,-3.627044518672205,0.00849759555269225,2.1497795293915556,1.3982062740514023,0.15797672524433165,1.7002000422541532,-1.770309607547223,9.56088249157384,3.2567627024089063,0.9093538968605049,1.048930841514136,2.750511334688568,2.313027336595557,2.9376462731266497,1.9659075965448094,2.7959253379283853,2.029367494164777,2.880135986328667
304,304,15.2,-1.18,-3.42,3.67,1.86,-0.99,1.86,1.48,6.01,3.77,,,,,150,15200000000.0,-2.648492801880777,-1.9112716747377112,2.751404877724396,1.7380713441485536,-0.22314994912566186,1.8116879667766304,-0.3465529606258242,7.578969384019348,3.4834296283939814,0.9637334789515488,0.6914246593220282,3.0896777754524014,2.5636039231739827,3.006280403381174,2.2682282835966117,2.2691431476565755,2.7543370434549446,3.206663578595155
305,305,15.3,-27.4,-57.2,-4.29,2.25,2.56,5.72,-23.5,-48.3,-5.6,,,,,150,15300000000.0,-12.546403847072305,-32.86990523850837,-0.035222133728119775,2.1148340703173902,0.7008519321296445,4.5384066763408635,-10.488624919390126,-23.60969082877645,-0.5281906023109406,1.2131382842143512,0.4655590872028393,3.085651304104397,2.859050209154904,2.966555025963895,2.2968408859784457,2.072365980093567,2.6008208697340787,2.938624995653778
306,306,15.3,-7.87,-17.4,-5.32,1.08,-0.0226,2.68,-1.94,-9.77,-6.76,,,,,150,15300000000.0,-10.67635081291506,-24.207612810136773,-2.126666322146584,1.3532301146884436,0.4606668997320055,3.2418489037571416,-6.744008908082385,-15.885113745780936,-3.2804168931581303,0.8336011019095045,1.0857991944848948,2.98549081886643,3.526266182096985,3.0999893418099744,2.7497604790926804,1.4484093186405904,2.0963992182054842,2.85564235391582
307,307,15.4,0.32299999999999995,-4.21,-3.44,-1.35,-2.33,0.758,6.91,2.84,-5.25,,,,,150,15400000000.0,-6.277806641667841,-13.010054534370155,-2.6464164777743795,-0.6362587424268016,-0.4658305923051091,1.5089377289572623,-0.7630446443886267,-5.4337539265544965,-4.150266701397778,1.3125837107978444,1.051553794393382,2.751514369096827,2.6185214300318127,3.2301773987025473,2.243027924394955,1.6997215924931175,2.128860975827671,2.7894888742969677
308,308,15.4,9.68,-2.44,-6.09,-1.25,-0.7070000000000001,-1.86,16.0,4.8,-8.16,,,,,150,15400000000.0,0.1035807545108316,-7.091408027138348,-4.009210338240457,-1.087952209324011,-0.5458985048961571,-0.8414749276981426,6.579793108549408,0.27818184716754857,-5.921131609832816,1.2923887604519668,0.5931606803853661,3.2380663930362283,2.308911722308445,2.917938678725075,2.2103693960832365,1.8407711273968388,2.6044830357828728,3.0636114212084102
309,309,15.5,5.1,2.84,8.26,0.208,-0.971,-4.18,10.2,11.1,6.83,,,,,150,15500000000.0,2.101605063040214,-1.5303682944873709,0.846314142239982,-0.1341738196883694,-0.6870316134227896,-3.1706694035289438,8.165578447631775,6.318343816505696,-0.2897016484578421,1.0274879147733331,0.3917664660395006,3.2203905818845078,2.1491481747872907,3.3188775984838035,1.9357695254630376,1.9582002045197602,2.2590185479183438,3.352283405689034
310,310,15.5,-12.0,3.15,5.69,0.713,-4.87,-1.13,-8.93,12.1,3.01,,,,,150,15500000000.0,-3.537503438204898,1.0903794115019565,2.7631966838901114,0.4893183681715418,-2.0757712439855407,-1.7469520270639207,0.6770783727685021,9.545356170554733,1.1675838186509142,0.983448100442161,1.1416933186414537,2.705339210606259,1.934611131780842,3.290893974687382,1.8296529155003627,1.5966847456279682,2.144717800247562,2.981150965667443
311,311,15.6,-0.764,-3.43,2.32,-0.675,6.82,3.13,3.34,5.12,-0.168,,,,,150,15600000000.0,-2.428403675818793,-1.4407833434487154,2.5878021333878984,-0.3675818307097225,0.877612455247466,1.6555596584727137,1.8435371660316484,7.075358300171306,0.5777344629493891,0.7238723940483253,1.0408210398425743,2.728471482066297,2.152239614406862,3.0039540936419953,2.090039333399218,2.8797113318156162,2.0679862909778346,2.918951058481128
312,312,15.6,2.06,-7.06,-6.25,-0.361,-0.621,1.06,7.57,0.893,-7.86,,,,,150,15600000000.0,-0.6335303341312344,-4.587234174984706,-0.909746822801556,-0.3627378199006597,0.3800752135564663,1.2400544754639609,4.351941196478263,3.624695611009676,-3.148720031514518,0.8913663586363475,0.6143577551229946,2.928426275545258,2.5398784145125703,3.0255231713321984,2.266477822081441,2.193516833220929,2.646665083240423,3.049783951948523
313,313,15.7,4.48,-39.7,-2.88,-0.982,1.52,-3.69,9.79,-31.6,-4.38,,,,,150,15700000000.0,1.4113257200004403,-24.24844346906249,-1.6894720576049806,-0.8184945000659251,0.7585286459795437,-2.1995052477150336,6.734013430501459,-16.035851129898276,-3.692504520883016,1.0787153950478925,0.5502007480200667,3.1811276615638056,2.8734076816913676,2.8092762081435243,2.2158929616342413,2.0022366063689483,2.5060038035650334,3.088293188373418
314,314,15.7,-5.78,-24.2,-7.69,-1.87,-1.64,-3.6,-2.25,-15.1,-8.75,,,,,150,15700000000.0,-1.4644226082729273,-24.22131823011355,-4.0641733832156115,-1.5923681170337427,-0.03777951347598574,-3.1765907916021168,2.7986810138768305,-15.513509151817855,-5.926104848485742,0.9419424253577647,1.1335144584067782,2.921533910171688,3.43361331486839,2.9765356360210387,2.882313262258793,1.5981029408060772,2.1186320080475163,2.9054089787670705
315,315,15.8,-18.9,-16.9,8.84,-2.8,3.24,-2.2,-16.9,-7.33,8.78,,,,,150,15800000000.0,-8.436757325003297,-20.121784313570906,1.042636884705126,-2.4811456005144814,1.0504387152341486,-2.4952510282096543,-5.830074614900148,-10.945910733983544,0.5687225115254995,1.3477435551185473,1.035593564511298,2.6902963655773324,2.6437332868794297,3.0532574666434567,2.1822885455431402,1.6884693062857024,2.140358927960115,2.800826721714545
316,316,15.8,-10.4,-4.99,7.95,-1.63,0.183,-2.04,-9.4,4.7,9.0,,,,,150,15800000000.0,-9.221840743375893,-11.648821007281242,3.776216978736436,-1.8547303081733384,0.7624502714125126,-2.1776352246940025,-7.393834698339857,-2.2131978780576773,4.292325278572189,1.2738875352267196,0.5437386015574635,3.22903543254094,2.456451833011166,2.79721632278171,2.1905711366412697,1.8790011330431198,2.6727524549983834,3.010391357692052
317,317,15.9,-8.15,-2.66,2.67,0.229,-0.485,0.175,-7.79,7.02,4.16,,,,,150,15900000000.0,-8.793220854215704,-6.615577927419483,3.3384330462539262,-0.3211730373643429,0.3482985169101657,-0.5362681164212975,-7.567369835603894,2.9402807527690342,4.233884865207563,1.017602658217435,0.4479808910580867,3.1403707295017096,2.3163613495647355,3.361215682187573,2.059569755072837,1.9492564470231613,2.1380158501184456,3.2657899620758895
318,318,15.9,-3.11,2.56,2.88,0.68,-0.267,1.66,-2.31,12.3,4.11,,,,,150,15900000000.0,-6.520550510537968,-1.4777612746588382,3.1570087964296305,0.41565753718431053,0.14402027112135007,0.9960060581655564,-5.264446055996052,8.164376981483121,4.179172215747493,0.964155544345356,1.1472535471747063,2.740545484639045,1.9604942282885125,3.214445020475439,1.8644416564955608,1.4907661898614393,2.1145052478532342,2.959597308656199
319,319,16.0,2.54,1.84,2.02,1.74,-0.044000000000000004,1.73,4.23,11.5,2.75,,,,,150,16000000000.0,-2.8973156400100404,0.3800017501292623,2.7070390035081995,1.3903302275317528,0.081597803501026,1.5080929018826537,-1.1055251342772046,10.026143858892118,3.5479903308648884,0.6362190691297187,1.0411174629154483,2.9452270205617253,2.2317893166949645,2.904461936754823,2.1861374133085345,2.9480458579745448,2.145253555568157,3.1138246948686255
320,320,16.0,-1.08,-2.14,0.0934,1.6,-1.83,1.61,1.35,7.36,-0.116,,,,,150,16000000000.0,-2.170587030946823,-1.0310600575231503,1.67269469196215,1.5446403313911918,-0.5530500145808039,1.5791906143055048,-0.029913679626486056,8.538044619030448,1.929819829340988,0.9090227310685967,0.6211782953398778,2.751840316597176,2.4817820261572994,2.8904236778429255,2.2974851375285055,2.029286209897075,2.871325990899418,2.9746603527338267
321,321,16.1,-28.7,-53.9,-5.03,2.54,2.5,5.78,-25.1,-44.9,-6.63,,,,,150,16100000000.0,-12.779467498123598,-30.634746248467565,-0.9798882923049016,2.277192423571845,0.4605583308569162,4.509976753412968,-11.011545179686134,-21.288222843976122,-1.8505526316126968,0.9960414763342275,0.6124822533908786,3.24505887548287,2.8295607996316963,2.8776575896597585,2.1976634864095277,1.9867733460245118,2.4233819398910996,3.078031594992506
322,322,16.1,-7.8,-20.3,-4.96,1.08,0.304,2.66,-2.13,-12.5,-6.75,,,,,150,16100000000.0,-10.788222083205268,-24.847858921214836,-2.5550124546344968,1.3960980368266882,0.4085811801863779,3.2193003131318534,-7.121097722616702,-16.383105535642304,-4.014352340834161,0.9327607178983736,1.1090467284904402,2.9155477839427957,3.447834789381104,2.9637212372838104,3.0422590605625115,1.7660485730509297,2.056521531643917,2.8310806328365548
323,323,16.2,0.807,-4.03,-2.95,-1.51,-2.73,0.6629999999999999,7.14,3.18,-5.0,,,,,150,16200000000.0,-6.151394216728174,-13.191008238309292,-2.7113282923197537,-0.7426949429383725,-0.6334233992376284,1.4358418175412415,-0.8742059438820107,-5.464023304942239,-4.449655336853458,1.2686606700455099,1.0168922941432856,2.774804260757947,2.4047747656397407,2.905792352588595,2.090523378848049,1.7818057925681206,2.205523659215871,2.799120991458271
324,324,16.2,8.64,-1.86,-5.94,-1.21,-0.438,-1.72,14.6,5.55,-8.24,,,,,150,16200000000.0,-0.2364449300353311,-6.846269675854727,-3.989071037718599,-1.0866161897975648,-0.5685431011946998,-0.7658998538303003,5.904072633368018,0.6834172233862521,-6.123629066549992,1.171158417211721,0.5158657648756342,3.123688303841974,2.220864566422263,2.943925280516026,2.180314511227483,2.032136570487984,2.723071940289894,3.0653646814115545
325,325,16.3,4.8,2.0,9.37,-0.153,0.21,-3.77,9.78,10.3,7.85,,,,,150,16300000000.0,1.7775854140017318,-1.8928474175101329,1.2977642928501207,-0.399505245878278,-0.3100678799440158,-2.861775616066712,7.601873029319882,6.0508809754579005,0.047706602796308666,0.9549011610789387,0.558702011043917,3.165657750285781,2.1159328848134225,3.3554543341752288,2.0076895848593943,2.146770650043635,2.204721225300436,3.361537698381867
326,326,16.3,-7.82,3.7,3.64,0.37,-5.94,-1.77,-4.77,12.7,1.11,,,,,150,16300000000.0,-2.060405100240628,1.2388381558149442,2.224701137096808,0.16682541899271908,-2.1791975083098616,-2.1000746092156444,2.182531964413616,9.76206450549685,0.5168595504862501,0.9167877900938856,1.1633527755553805,2.7194503932170506,1.8560505899095892,3.289706975635836,1.7782638142561997,1.5962866286942863,2.0768204763191562,2.8855132245091806
327,327,16.4,-1.81,-3.47,-3.76,-0.483,7.05,2.89,1.66,5.31,-6.38,,,,,150,16400000000.0,-1.9602702683628443,-1.3978510621656226,-0.14373672402325433,-0.31142481657745,0.8848832518380492,1.381359498369132,1.953643492068516,7.277159498863676,-2.529080494466782,0.5969853667712434,1.0333257189320502,3.1076061812553193,2.1630152494310964,2.9364361006521373,2.2290668647499916,3.1457566463826683,2.2117047067181654,3.2432360001110188
328,328,16.4,0.632,-4.07,-6.9,-0.207,-0.0275,0.937,5.59,4.23,-8.56,,,,,150,16400000000.0,-0.9236440540754742,-2.894106926116895,-2.8175193620067285,-0.2345715729265244,0.5819732851709647,1.0713424177394666,3.5465031149143846,5.576397584773444,-5.192585538847481,0.9234844992690993,0.5753475686187357,2.8326067225386318,2.4519995009602815,3.0244030661673733,2.301049428068066,2.0603954691442485,2.8326466768388587,3.046207713492641
329,329,16.5,5.35,-40.1,-10.3,-1.84,0.224,-2.82,10.3,-31.8,-11.9,,,,,150,16500000000.0,1.5851312820073211,-23.72735055178471,-5.778701635295926,-1.4161143455672591,0.463126656209127,-1.643537170468938,6.504786311355746,-15.285113807100075,-8.154858534959452,0.9626382286658817,0.7059458887591966,3.3013607755899703,2.842250618787831,2.8675266511543707,2.073907087149586,1.9443683823310312,2.408692697138724,3.244055580607602
330,330,16.5,-2.15,-26.1,-7.46,-0.843,-0.691,-4.5,1.05,-16.9,-8.53,,,,,150,16500000000.0,0.09148491981936124,-25.05590336650361,-6.444073340294764,-0.9943209516040832,0.07995822157085969,-3.6364105624521375,4.115386768428789,-16.186456943847972,-8.320536488847132,1.0519453694151346,1.1423593932463472,3.0308127262758227,3.551286330488222,3.090076656922171,3.0458233031241253,1.8291616195736593,2.0622005977724114,3.063285640791293
331,331,16.6,-16.6,-18.7,5.52,-2.92,1.77,-2.61,-0.758,-16.4,-7.66,,,,,150,16600000000.0,-6.5832940319473074,-21.49694907480968,-1.7093065368688691,-2.4115577256187555,0.6410497278481802,-2.9203128463975165,1.9806618884284355,-16.30564507644864,-8.028816038518531,1.3307964113171218,1.0170507408773768,2.8878910814610044,2.4672884683093024,2.9789364378147463,2.1835384880576645,1.7784306305268964,2.2748639896212426,3.0433961469703394
332,332,16.6,-8.61,-8.63,5.61,-1.26,0.29100000000000004,-1.79,-8.2,1.12,6.55,,,,,150,16600000000.0,-7.39375588127894,-14.292168561365033,1.1872997707466784,-1.5640489435280396,0.5248337094171931,-2.1317254897070432,-2.478847028332611,-6.579579316139863,-1.5902045083297385,1.2160911721800283,0.4640768090397041,3.3026618809869297,2.365139888945094,2.911112265541181,2.167676146324908,2.1094173833384957,2.813495467613882,3.136973834992185
333,333,16.7,-9.47,-5.07,0.654,0.0754,-0.246,0.00252,-8.93,1.08,6.93,,,,,150,16700000000.0,-8.224027847768145,-9.128263791827665,0.9762470583872744,-0.35746820774614263,0.2689179910483744,-0.6427227256529757,-5.304692382568471,-2.3044106096008337,2.1726720530443293,1.0134359024773991,0.6280901146549175,3.065894951595818,2.159293291873107,3.2293712466065303,2.1525025848670065,2.1745539076790816,2.137246787092444,3.250660378190724
334,334,16.7,-4.86,2.6,4.53,0.568,0.966,1.73,-4.8,12.3,5.74,,,,,150,16700000000.0,-6.878782593978388,-2.561084113330262,2.3826403491299177,0.3236460997926992,0.5003482523072609,1.0126588797484792,-5.0836184095268635,5.846992633871424,3.748152326364746,0.9759629827080257,1.1047257870319382,2.884449344034421,1.9277473695794518,3.221691199205539,1.7793747217433804,1.756141702803967,1.9328204695898559,3.1015197478304213
335,335,16.8,1.82,1.82,2.47,1.64,-0.531,2.18,2.86,11.5,3.24,,,,,150,16800000000.0,-3.400215512239825,-0.10791903724178553,2.417212831198181,1.2924394521214009,0.15794206539087158,1.8270798366414072,-1.604017798808545,9.002199866098406,3.523731130928052,0.5656384716250588,0.9978758364933402,3.1825112911116142,2.2112683503585275,2.9316765862000014,2.2348861253854135,3.2701916342022663,2.22246933741275,3.2616625900107437
336,336,16.8,-0.742,-2.1,-0.584,1.66,-1.67,1.79,1.25,7.5,-0.78,,,,,150,16800000000.0,-2.3372183769757537,-1.2233742596717414,1.2294866729733651,1.5629519539947576,-0.4489321358533877,1.8012102558858396,-0.3538517290269652,8.163752014400297,1.6230244986149605,0.9200011763532885,0.5493523474201291,2.8117611316069766,2.3859821387411855,3.029161741776584,2.2981349342301716,1.9354278062466683,2.943745912409938,3.0667132647889783
337,337,16.9,-25.3,-49.0,-7.25,2.27,2.66,5.13,2.33,7.08,-2.13,,,,,150,16900000000.0,-11.519833560244514,-27.97564499551445,-2.1262593953889346,2.0833161475483357,0.583229024379649,4.123612867967789,0.8217752323657574,7.558859394767753,-0.034467246031402166,0.8613390688904701,0.7442386325165105,3.2886911628348594,2.9600887726945673,2.881036106675186,2.0487279330143764,1.844105674341371,2.3721375125859416,3.150648065127658
338,338,16.9,-8.37,-21.5,-4.54,0.991,0.117,2.57,-3.26,-13.3,-6.21,,,,,150,16900000000.0,-10.260242629068816,-24.349641580146066,-3.081494155268357,1.279407231448205,0.4284416383005737,3.039701028805977,-0.9661943066421164,-4.083443605671687,-2.761839346421104,1.006759517936073,1.1008023200382608,2.9584279817196526,3.224773836037243,3.1586369324641015,3.0149863732861726,1.9478812865223039,1.858670519663422,2.8908124256936025
339,339,17.0,1.56,-3.74,-3.67,-1.14,-2.1,0.583,7.35,3.92,-5.64,,,,,150,17000000000.0,-5.533431030267812,-12.809380992002005,-3.3143946251734597,-0.5011972501026458,-0.4109974264473872,1.325730150838542,2.676608424647728,0.383651827347947,-4.032954724982291,1.2227675364080952,0.9693600825768494,3.0410896398131255,2.2656303164875875,3.042991571490805,2.1013132157137466,1.7881512626810072,2.111207767061445,3.0454127121150716
340,340,17.0,9.53,-1.47,-4.99,-1.08,-0.405,-1.68,15.0,6.38,-7.08,,,,,150,17000000000.0,0.4903031542566243,-6.459954158087768,-3.9775132309911263,-0.927177151094024,-0.4090062896298202,-0.7712827963037732,8.074712815786837,3.7304936510027193,-5.378656600978428,1.0698627956102789,0.4435725068238274,3.3079448795671222,2.082064278841394,3.0370219461073864,2.1693331812276733,2.008653778494757,2.954853164251033,3.0924706864826943
341,341,17.1,5.99,3.13,6.97,0.179,-1.98,-3.39,10.4,11.7,5.3,,,,,150,17100000000.0,2.689583718970341,-1.090109614493672,0.3549511263468146,-0.1130669889856426,-0.9305740160638948,-2.5982878570671053,9.093275021150204,8.178646968207353,-0.6625176727648334,0.9129377292494174,0.7437777587225247,2.916253875518349,2.0045298544054755,3.3122374655925735,2.152982058864823,2.2586803913843414,2.502447470138406,3.173251106116102
342,342,17.1,-9.28,4.37,7.9,0.84,-4.73,-0.8290000000000001,-6.73,13.4,5.07,,,,,150,17100000000.0,-2.09694799131812,1.967250032181001,3.340894661595471,0.5883590847580369,-2.191978148368088,-1.3639057169399518,2.1620913486560767,11.092927558573685,1.8692006032412976,0.9055991543149898,1.1291051537573866,2.752625545185346,1.9278890491820388,3.15993997477444,1.7334239137584726,1.9139765148466794,1.8897488613212967,2.8786154041391354
343,343,17.2,-1.53,-3.03,0.251,-0.833,7.11,2.81,2.06,5.69,-2.43,,,,,150,17200000000.0,-1.8702304379155312,-0.8309338696463393,2.1180727732663907,-0.4577146583976275,0.8962656637435527,1.54811030648179,2.1173715113458726,8.077301569898825,-0.029505201754319144,0.5186015412647971,0.9845645395345141,3.2393082052310573,2.1925013632046033,2.939976763451541,2.3174681113187434,3.4022364390149504,2.191615828387986,3.3186020103429787
344,344,17.2,-0.199,-6.62,-5.85,-0.0699,-0.507,1.76,4.9,1.56,-7.64,,,,,150,17200000000.0,-1.2019200064092763,-4.072490990216236,-1.0352818568563331,-0.17229576886780307,0.4303834114625149,1.6959397509530547,3.3362664467595105,4.439691374712722,-3.390616140271754,0.8808693077673899,0.5203788085678,2.8098025011527126,2.4184830891507887,3.046868588681878,2.3436818485249598,1.981616447531095,3.178538931315553,3.0698814529508724
345,345,17.3,5.42,-38.3,-7.94,-1.19,1.35,-3.29,10.7,-30.3,-9.8,,,,,150,17300000000.0,1.446127904874862,-23.23800452416923,-3.7678153046501377,-0.9212927975176868,0.7356948437872987,-1.7826094830710475,6.561855859890117,-14.9501512284221,-6.221266681425692,0.8385005627206787,0.8148955976140565,3.2882095344540594,3.1102116927018963,2.8717070182731104,1.9786539724342156,1.8979707833297208,2.282844720862434,3.110072733455542
346,346,17.3,-7.37,-26.8,-8.51,-1.53,-1.39,-4.64,-4.05,-17.6,-9.69,,,,,150,17300000000.0,-2.079364473393537,-25.232524761676782,-5.644528958279519,-1.3692813436660478,0.029967126020843393,-3.776130003185907,1.9134677603358483,-16.429155707012097,-7.753203382401407,1.0969964810512751,1.1392669537979272,2.8197956634602876,3.1716083586216652,3.2486800620157252,2.859086858635025,1.9067140831210068,1.9561273301870452,2.889411105536304
347,347,17.4,-16.7,-17.3,8.42,-2.99,2.66,-2.33,-15.1,-7.6,8.13,,,,,150,17400000000.0,-7.926029021536545,-20.79074874327565,-0.07850947722200541,-2.562077206774279,0.9031343994385884,-2.7672059146427803,-5.539064809389032,-11.501191804285936,-0.7385201898181393,1.252860628654216,0.9487868651400626,3.0138672433268665,2.3290654708285494,2.9327983182514257,2.1907360404444125,1.744521627715705,2.1862874073270877,3.039276536214405
348,348,17.4,-11.1,-6.69,8.46,-1.58,0.721,-2.15,-10.6,3.07,9.28,,,,,150,17400000000.0,-9.195272401881855,-12.895108551402295,3.300594805965249,-1.8393005750417852,0.8426660381504336,-2.336598856887731,-7.755943041966005,-3.3683296700725016,3.686074844232918,1.0454899290344977,0.38640318506982324,3.4596372361834438,2.326720833257227,2.9599012052320957,2.1933501033279104,1.9595877091131917,3.0872279420085635,3.1939671194337738
349,349,17.5,-8.66,-3.19,1.53,0.17800000000000002,-0.055,0.257,-8.93,6.54,2.71,,,,,150,17500000000.0,-8.981221590013297,-7.460784006001793,2.5998841516602997,-0.3546334116880483,0.5446421659446761,-0.5271182305311397,-8.270223841146104,2.1619715110756994,3.254999618236081,0.9143670571292851,0.798029713848984,2.9080731492520364,2.140340980272224,3.115768089620266,2.234556463843184,2.0060511458220374,2.404206179987282,3.061797866969181
350,350,17.5,-4.43,1.76,2.13,0.465,-0.0983,2.0,-8.45,6.56,2.55,,,,,150,17500000000.0,-7.161227822454313,-2.2976544201897338,2.4139281414325926,0.2485899407543921,0.33118626300416937,1.2359807420705649,-8.348972409427066,4.616716431168597,2.943642447229138,0.90428007047904,1.0666150795260183,2.892587916830246,2.061771313487412,3.0881288631391546,1.7548605204293577,1.897996290130549,1.8045868505303133,3.0590830187568416
351,351,17.6,1.33,1.37,-0.201,1.81,-0.622,2.13,2.67,11.1,0.413,,,,,150,17600000000.0,-3.7656600819341315,-0.2439705816684783,1.3790736526069296,1.3977365695006316,0.014729760471593691,1.859712793016556,-3.522252151671132,8.235339773345572,1.8260054962506047,0.4610321765144976,0.9359467882980528,3.2700223222612728,2.261599798495113,2.931518957717477,2.3263370688641647,3.4463596465604898,2.1739739837149354,3.2712884041011803
