,Unnamed: 0,Time (s),Acceleration x (m/s^2),Acceleration y (m/s^2),Acceleration z (m/s^2),Gyroscope x (rad/s),Gyroscope y (rad/s),Gyroscope z (rad/s),Linear Acceleration x (m/s^2),Linear Acceleration y (m/s^2),Linear Acceleration z (m/s^2),Timestamps,Acceleration x (m/s^2)_kalman,Acceleration y (m/s^2)_kalman,Acceleration z (m/s^2)_kalman,Gyroscope x (rad/s)_kalman,Gyroscope y (rad/s)_kalman,Gyroscope z (rad/s)_kalman,Linear Acceleration x (m/s^2)_kalman,Linear Acceleration y (m/s^2)_kalman,Linear Acceleration z (m/s^2)_kalman,Acceleration x (m/s^2)_kalman_max_freq,Acceleration y (m/s^2)_kalman_max_freq,Acceleration z (m/s^2)_kalman_max_freq,Gyroscope x (rad/s)_kalman_max_freq,Gyroscope y (rad/s)_kalman_max_freq,Gyroscope z (rad/s)_kalman_max_freq,Linear Acceleration x (m/s^2)_kalman_max_freq,Linear Acceleration y (m/s^2)_kalman_max_freq,Linear Acceleration z (m/s^2)_kalman_max_freq
0,0,0.251,0.113,7.75,5.91,-0.389,0.35100000000000003,-0.0978,2.19,1.61,0.7070000000000001,251000000.0,0.12239048163074907,7.37218952081234,5.9228919729672835,-0.4585568395886524,0.0773394293470534,-0.14754576551484372,1.2942413582521666,1.6340701394511203,0.04272852072234504,,,,,,,,,
1,1,0.271,-0.0575,7.2,6.33,-0.833,-0.894,-0.358,-0.7909999999999999,2.02,-1.96,271000000.0,0.018455761884253102,7.271245089723401,6.1477820149168325,-0.6942873744424427,-0.5241208253513224,-0.2819134954119901,0.22024629103641336,1.8596074603766648,-1.0198472453521403,,,,,,,,,
2,2,0.321,0.496,6.59,6.34,-0.965,-0.8340000000000001,-0.419,-0.14400000000000002,1.53,-1.57,321000000.0,0.31993755688650205,6.8370506224771574,6.264801531945626,-0.8734861546054496,-0.7271197332937924,-0.37372706888133705,0.009515224199263816,1.6501653959196392,-1.345174031527434,,,,,,,,,
3,3,0.371,0.982,6.27,6.94,0.14400000000000002,-1.01,-0.0715,-1.33,1.62,-0.115,371000000.0,0.7426346504463064,6.4718959381525485,6.681552371070827,-0.19623226480149825,-0.9136247042236012,-0.17029008771662524,-0.7801618160277979,1.6307965839670042,-0.6055409649616617,,,,,,,,,
4,4,0.421,0.0718,6.23,8.43,0.517,-1.04,-0.172,-1.55,1.16,0.491,421000000.0,0.3137125856551813,6.315924118207345,7.762897535976932,0.2787974761884125,-0.9970065756337496,-0.17144169485988658,-1.2354186379227274,1.3281034781108192,0.055466198480320084,,,,,,,,,
5,5,0.471,0.101,6.0,8.37,-0.319,-0.33,-0.416,-1.86,1.26,-0.425,471000000.0,0.17768147331328074,6.112186469741397,8.138474985166907,-0.1193771990098269,-0.5568806864598885,-0.336157866901078,-1.6049674258407904,1.2843097616015626,-0.23428302989777014,,,,,,,,,
6,6,0.521,0.373,6.34,7.44,-0.0325,-0.442,-0.569,-1.89,1.45,-0.254,521000000.0,0.3025920395419928,6.25910522921992,7.706352634293821,-0.06151050301061111,-0.4810756377940497,-0.4929838541466585,-1.7736284921030046,1.3908586270964838,-0.2461742892496221,,,,,,,,,
7,7,0.5710000000000001,0.0982,6.37,7.99,-0.0141,-0.282,-0.72,-1.56,1.04,-0.495,571000000.0,0.17187833916321618,6.330622213752883,7.881836412280227,-0.02993154466942764,-0.3497136481407193,-0.64588598317184,-1.6472171828055568,1.1652346876275326,-0.3962419718770173,,,,,,,,,
8,8,0.621,0.383,6.06,7.7,-0.317,-0.0147,-0.638,-1.32,1.03,-0.973,621000000.0,0.306895844589393,6.1560953633097055,7.769339586530084,-0.22114073208444046,-0.12865160937803044,-0.6405745468711556,-1.4535911644777426,1.0782703253478558,-0.7440873615144081,,,,,,,,,
9,9,0.6709999999999999,0.304,5.99,6.93,-0.528,0.486,-0.424,-1.25,0.909,-1.81,671000000.0,0.30504387413270256,6.048978747704883,7.250065308416487,-0.4255320886143933,0.2769322858617937,-0.4947051493091968,-1.33311898041823,0.9694189242908556,-1.386944260141491,,,,,,,,,
10,10,0.721,0.402,5.75,6.57,-0.102,0.665,-0.15,-1.0,0.448,-1.03,721000000.0,0.3670497203874653,5.856164529482733,6.829329442909759,-0.21003537571889375,0.5330025886671038,-0.2625359900047461,-1.1360005351827371,0.6341140073121789,-1.1716694696842456,,,,,,,,,
11,11,0.7709999999999999,0.187,5.27,7.42,-1.0,-0.305,0.236,-0.772,0.3670000000000001,-1.14,771000000.0,0.2519034762622654,5.4781414755995845,7.1947596163096526,-0.7362112477450332,-0.019961646243553118,0.07324281764454121,-0.9206083730317144,0.4623430305479246,-1.1525694538350992,,,,,,,,,
12,12,0.821,0.476,4.97,7.43,-0.8440000000000001,0.353,0.403,-0.403,0.606,-1.47,821000000.0,0.3952187514142609,5.150436103085563,7.340295667448887,-0.8080066540654169,0.2261407455937642,0.2953440790332087,-0.6143209333452899,0.5547234359507347,-1.344013337708622,,,,,,,,,
13,13,0.871,0.642,4.63,7.64,-0.416,0.884,-0.0276,-0.439,0.527,-1.47,871000000.0,0.5530414745205395,4.814802018286246,7.5257136504713085,-0.5469007359139693,0.6602356314111499,0.07783164351781804,-0.5105772554948538,0.5368955419995091,-1.4199965080236223,,,,,,,,,
14,14,0.921,0.6579999999999999,3.78,7.36,-0.797,0.467,0.472,-0.0154,0.153,-0.594,921000000.0,0.6201650419835143,4.147448404129936,7.42319167656264,-0.7134856557493189,0.5327272091247996,0.3433157489554575,-0.21756311406945528,0.29002673589861905,-0.9218340888192956,,,,,,,,,
15,15,0.971,0.718,3.73,8.51,-0.473,0.29,-0.0758,-0.18,-0.613,-0.8059999999999999,971000000.0,0.6827329134350006,3.878231997642625,8.095567473605799,-0.5533041096328406,0.3725612731561716,0.06102883403898152,-0.19533567652334705,-0.29067582538268044,-0.8519739974788392,,,,,,,,,
16,16,1.02,0.419,2.66,8.42,-0.8270000000000001,2.43,-0.908,-0.7140000000000001,-0.442,-0.738,1020000000.0,0.5140691938457217,3.0925827310348897,8.296284176978963,-0.7356061784865635,1.7301824477026595,-0.5916408818948599,-0.5022479504794141,-0.3879867195415767,-0.7832357248247718,,,,,,,,,
17,17,1.07,-1.31,2.69,8.69,-0.565,0.574,-1.05,-0.773,0.298,-0.309,1070000000.0,-0.652468122585672,2.832953362140048,8.539864067482496,-0.6219696266271793,0.9672641163154604,-0.9003593391115325,-0.6624616497061384,0.053145579761801176,-0.4972219030706097,,,,,,,,,
18,18,1.12,-3.32,4.12,9.62,-0.192,0.311,-1.04,-2.69,1.61,-0.379,1120000000.0,-2.3584206752704246,3.662981821754312,9.208111644339033,-0.3355775080348027,0.5342217932981504,-0.9944114489081028,-1.862228842157516,1.0543001924528568,-0.4259217179794959,,,,,,,,,
19,19,1.17,-3.92,4.09,9.03,-0.224,0.348,-1.21,-2.71,2.18,0.314,1170000000.0,-3.3570893152293064,3.938369976665207,9.097919156330637,-0.2612584978575301,0.41134150926513596,-1.1396167714560996,-2.3638854637454547,1.7781955012625916,0.0203285828530036,,,,,,,,,
20,20,1.22,-4.3,4.43,9.73,-0.439,1.48,-1.36,-2.52,2.26,0.612,1220000000.0,-3.960104135369976,4.255426711646975,9.488968299587613,-0.3796477174906359,1.1165063121197536,-1.2880514357165915,-2.4562640225362826,2.0880258720897777,0.3771684114858307,,,,,,,,,
21,21,1.27,-4.72,3.43,9.51,-1.45,1.09,-1.31,-1.78,1.15,-0.274,1270000000.0,-4.446076196485807,3.7231012718777965,9.501980122316082,-1.0925828963746065,1.0990158840256878,-1.3028344075741205,-2.056094329576165,1.4848166498922672,-0.015554336668804625,,,,,,,,,
22,22,1.32,-4.33,2.23,7.36,-2.47,0.773,-1.71,-0.193,-0.511,-2.34,1320000000.0,-4.371842549837758,2.760186171014892,8.17680146122809,-2.0100463351575217,0.8838911055006177,-1.5770725614881118,-0.9536345979381686,0.20138193797961645,-1.4174384797029318,,,,,,,,,
23,23,1.37,-3.59,-0.0718,6.85,-2.41,0.365,-2.11,-0.173,-1.29,-1.79,1370000000.0,-3.8718348517898034,0.9338115394798756,7.355949203274755,-2.2764456232592747,0.5414957247217738,-1.9360149602688348,-0.4917051050782614,-0.7576697467332111,-1.64213207510779,,,,,,,,,
24,24,1.42,-3.78,-2.5,7.25,-0.542,1.27,-1.71,-3.17,-1.44,0.899,1420000000.0,-3.813104174982864,-1.2806859560331267,7.290401614561041,-1.1211743458852188,1.02220640590794,-1.7837871926340518,-2.0765482953542573,-1.1964507416459524,-0.10956328513214264,,,,,,,,,
25,25,1.47,-6.65,-3.23,9.46,-1.45,1.97,-3.4,-1.38,-0.0192,0.146,1470000000.0,-5.627369263686273,-2.537817007326937,8.632666971425877,-1.3401970021829537,1.6476173271381311,-2.8723546194917353,-1.664375684789784,-0.4394050068431735,0.04456814191791264,,,,,,,,,
26,26,1.52,-5.41,-1.74,7.07,-0.4270000000000001,1.67,-2.17,-4.01,2.81,0.653,1520000000.0,-5.488356147108984,-2.0232972897562687,7.665891974336812,-0.7319390859799471,1.6623867251158249,-2.399297959358916,-3.0523658522660604,1.6501652712992445,0.41151627708071997,,,,,,,,,
27,27,1.57,-8.42,-1.25,8.41,-0.368,1.73,-1.62,-3.94,2.78,0.0883,1570000000.0,-7.363214930263974,-1.5245905634949786,8.12624915792498,-0.4895282745705426,1.7070020205225458,-1.8744176247511504,-3.5776108459268947,2.3767195312714384,0.2165830069753681,,,,,,,,,
28,28,1.62,-8.02,-2.37,6.56,-1.49,0.862,-0.517,-3.59,3.02,-1.02,1620000000.0,-7.783245515364474,-2.0698030205181386,7.1572578280770704,-1.1559177196309538,1.149419138980372,-0.9601565226613458,-3.5849419019341227,2.790389027363456,-0.5292060530333005,,,,,,,,,
29,29,1.67,-9.62,-2.03,5.7,0.109,0.5660000000000001,0.212,-4.74,2.81,0.006679999999999999,1670000000.0,-8.957895352329857,-2.044133658179778,6.2556960766485235,-0.3133873551796749,0.7644442858306544,-0.17067426765345595,-4.268431068745397,2.8030000704977915,-0.20601063489002586,,,,,,,,,
30,30,1.72,-7.42,-3.9,6.58,-0.279,-0.28600000000000003,0.581,-2.51,2.22,-0.602,1720000000.0,-7.97437329593534,-3.2409994529115465,6.456333122781626,-0.29048279889837714,0.07129830856674801,0.33560067286243234,-3.227904334410315,2.4280946405588484,-0.44483369637932896,,,,,,,,,
31,31,1.77,-7.67,-3.26,5.68,0.0891,-0.944,1.2,-1.06,-0.407,-1.68,1770000000.0,-7.779719095771107,-3.253253079046205,5.9760390392390645,-0.03765209510875367,-0.5986562457300024,0.9177993433687897,-1.9450775549962664,0.6049517576501766,-1.1897683157504155,,,,,,,,,
32,32,1.82,-2.96,-6.59,5.74,0.428,1.12,-0.317,3.35,0.21,1.76,1820000000.0,-4.6973895817505165,-5.405152783663559,5.8300086360943375,0.2725072352062187,0.5354159437806456,0.08612528394259555,1.1882096833647842,0.3509731121501662,0.5892509282932454,,,,,,,,,
33,33,1.87,-9.96,-6.21,4.74,0.8340000000000001,0.7959999999999999,0.8740000000000001,-8.6,-3.24,-3.45,1870000000.0,-8.062959096613548,-5.924206380179228,5.155652901766836,0.6465036542348266,0.7073648925181818,0.6167823309870925,-4.603825261614655,-1.9582468284289531,-1.8468404768005309,,,,,,,,,
34,34,1.92,-9.38,-4.36,6.28,0.101,-0.759,1.36,0.215,-0.0143,-3.97,1920000000.0,-8.905239393844434,-4.915434997161006,5.851252799085156,0.28315718238994336,-0.2602303712716485,1.1173615305197495,-1.7523535272667081,-0.7081676360500815,-3.1273280638723824,,,,,,,,,
35,35,1.97,-5.93,-4.22,2.41,-0.131,-0.502,1.16,-1.24,1.43,-1.75,1970000000.0,-7.0025001232776924,-4.4669422635270335,3.722253141358568,0.007297342008919404,-0.4197644159232019,1.1460797845281852,-1.4491755755044649,0.6668076291573899,-2.2966549815733983,,,,,,,,,
36,36,2.02,-7.03,-2.08,5.7,0.58,0.324,0.5529999999999999,-1.2,0.973,0.512,2020000000.0,-7.0200871086057015,-2.927580602965964,4.945825581367168,0.3887603878735966,0.07101583200774841,0.7466229042241272,-1.3017294791281224,0.8637084360749417,-0.6027418376711553,,,,,,,,,
37,37,2.07,-9.02,-2.37,5.75,-0.386,0.511,1.01,-2.35,-0.777,-2.95,2070000000.0,-8.299081147032519,-2.5679915317407813,5.443344131930872,-0.12728832376000634,0.3613436873797676,0.9240151998652044,-1.9220286856320103,-0.1913695419535809,-2.018384387479384,,,,,,,,,
38,38,2.12,-9.0,-4.49,3.51,-0.502,-0.08,1.38,-1.77,-0.198,-1.03,2120000000.0,-8.747336085049616,-3.807512799440079,4.247242200910648,-0.3768744740740502,0.07011872619252729,1.2311345122644444,-1.8320678486187436,-0.19563333979878653,-1.4222850623112635,,,,,,,,,
39,39,2.17,-8.65,-3.23,5.26,-0.243,0.129,1.42,-2.02,-0.302,-0.52,2170000000.0,-8.685087007882254,-3.4350693525459937,4.873805163463719,-0.2877040028939366,0.10897210794511013,1.3583410027847005,-1.9432740314040644,-0.26403373503803745,-0.8781126539171326,,,,,,,,,
40,40,2.22,-7.45,-2.87,4.83,-0.5579999999999999,-0.278,1.04,-0.379,1.24,-1.37,2220000000.0,-7.895218204499517,-3.0706507159824605,4.846704177798967,-0.4677414911768424,-0.1463752323767238,1.1439288500267824,-1.0176369898559772,0.7031538758356435,-1.1747722462053352,,,,,,,,,
41,41,2.27,-7.58,0.802,4.55,-0.6970000000000001,-0.632,0.937,-1.08,2.59,-0.684,2270000000.0,-7.693628319563885,-0.5731416994520644,4.663142335777724,-0.6204449238927308,-0.466819519200375,1.0045561034847177,-1.0545394449731955,1.9165136947128152,-0.8787851880160602,,,,,,,,,
42,42,2.32,-8.63,1.37,6.45,-0.6940000000000001,-1.2,0.611,0.0107,0.456,-2.35,2320000000.0,-8.292461235951476,0.6800087393384167,5.768617366660639,-0.6694381422401401,-0.9506158845308852,0.7394843715286461,-0.4241990607973408,0.9773121934816368,-1.7660817555015942,,,,,,,,,
43,43,2.37,-7.13,-1.62,4.05,-0.77,-1.69,0.332,-0.213,-1.27,-2.69,2370000000.0,-7.549038604695507,-0.8032886242245203,4.7053605575294455,-0.7364198924829204,-1.4385057853580183,0.4650315275965047,-0.299225001684974,-0.4678498586953687,-2.323301261596232,,,,,,,,,
44,44,2.42,-7.12,-2.12,6.64,0.333,-1.82,0.395,-0.691,-0.405,0.701,2420000000.0,-7.274657735013927,-1.652448153515642,5.902263769760193,-0.024105784406526776,-1.6902385205362565,0.4178632195186212,-0.5310523099875177,-0.4274334759236308,-0.4993308539137251,,,,,,,,,
45,45,2.47,-7.09,-4.73,7.29,0.292,-1.35,0.0897,-0.977,-1.54,-2.07,2470000000.0,-7.15656464504448,-3.6371904203033902,6.760814455852152,0.1864444470783583,-1.465728810237796,0.1968355365372303,-0.7949355507464497,-1.142883195948631,-1.446608818852424,,,,,,,,,
46,46,2.52,-6.7,-3.28,7.33,-0.15,-0.354,-0.0783,-1.77,-1.54,-0.28600000000000003,2520000000.0,-6.864580143134456,-3.4068349259945236,7.112952403052748,-0.03765287073519197,-0.7321436484758728,0.011523575651135542,-1.3719161443178116,-1.3982540727247663,-0.7466401482814506,,,,,,,,,
47,47,2.57,-6.98,-3.5,7.79,-1.21,0.7340000000000001,0.339,-2.0,-1.98,-0.846,2570000000.0,-6.938394007772208,-3.4669179622014736,7.53182138509482,-0.8185242846948023,0.2353056409941847,0.23208867166860125,-1.7435758876613117,-1.7723530409254706,-0.8065645551964803,,,,,,,,,
48,48,2.62,-5.29,-2.73,7.09,-0.428,0.115,-0.634,0.214,2.1,0.095,2620000000.0,-5.884205255746252,-2.9916726201980195,7.258479863514439,-0.5584057324163213,0.15592078478030558,-0.35124779272163065,-0.5852080264632701,0.7178116959919227,-0.2628267002799308,,,,,,,,,
49,49,2.67,-5.02,0.388,7.71,-0.136,0.266,0.0799,0.383,1.48,0.17,2670000000.0,-5.331524613389009,-0.8120898177128986,7.537821829173278,-0.27705174024232937,0.22855763671729706,-0.060856942150273374,-0.012284620914483235,1.2079463794032244,-0.0017868651535471456,,,,,,,,,
50,50,2.72,-9.38,0.462,7.42,-0.116,0.274,0.463,-1.08,-1.36,-1.23,2720000000.0,-7.920624802525957,0.009582748005727336,7.464929050742129,-0.16977916243778013,0.2585432187509066,0.2919762780737209,-0.6440901292310861,-0.4434034964498861,-0.7425280386241577,,,,,,,,,
51,51,2.77,-6.98,-3.96,6.16,-0.0648,0.596,0.826,-1.98,0.904,0.181,2770000000.0,-7.319071994781186,-2.5504386850570238,6.657608560576894,-0.09985514336283734,0.4812173972032505,0.651657110273179,-1.4345959228398009,0.4230610746381411,-0.1855439055023368,,,,,,,,,
52,52,2.82,-6.65,0.52,7.54,0.217,0.324,-0.573,2.41,4.1,-1.4,2820000000.0,-6.8911839710378615,-0.5702837878617175,7.203517608192617,0.11119421557922514,0.3774759557473352,-0.17318586190668886,0.8403894201442976,2.7875623334289865,-0.91798811686333,,,,,,,,,
53,53,2.87,-6.55,0.5870000000000001,7.01,0.463,0.621,0.128,0.225,3.31,0.4970000000000001,2870000000.0,-6.672988507119794,0.17605946592692456,7.083794220040993,0.34552333547121666,0.5381676803379687,0.02967177198877477,0.4762414260615933,3.1235223376782115,-0.06460207281915897,,,,,,,,,
54,54,2.92,-8.7,-1.18,6.86,0.234,0.0354,0.23,0.0643,1.63,-1.57,2920000000.0,-7.969312356530176,-0.6984760583382555,6.945339542829639,0.27124040194472704,0.20641149320494825,0.16459879049369394,0.23248091056767586,2.1630942147136123,-0.9725147282199086,,,,,,,,,
55,55,2.97,-6.64,-0.498,5.26,-0.166,-0.784,-0.0453,-0.815,-0.7490000000000001,-1.35,2970000000.0,-7.119184149381023,-0.5691871521266914,5.902670747036754,-0.01999459692255362,-0.4471212344924772,0.02322571690544703,-0.38735111022172986,0.2904357928000973,-1.20017789886295,,,,,,,,,
56,56,3.02,-9.16,-1.56,5.69,0.147,-0.624,0.109,-1.94,-1.51,-0.594,3020000000.0,-8.424336251300138,-1.208171679435763,5.771097781156207,0.09123636823372568,-0.5638364318564751,0.08099724417515683,-1.3061091771956646,-0.8673568365390028,-0.8345891245327812,,,,,,,,,
57,57,3.07,-7.49,-3.14,7.14,-0.102,-0.579,0.536,-0.852,-0.496,-0.919,3070000000.0,-7.826804968987043,-2.4540260779006897,6.61799637128366,-0.03747358970034336,-0.5738422585563707,0.3874551327476843,-1.0373964895051957,-0.6285511976033167,-0.8854977413692898,,,,,,,,,
58,58,3.12,-8.23,-1.48,6.37,-0.364,-0.831,0.931,-0.73,2.92,-0.425,3120000000.0,-8.084657868328406,-1.8258674725032709,6.464568396874394,-0.2549647399518185,-0.7435302978466131,0.7535487521570137,-0.8554989733188283,1.6533888459917656,-0.6077693785004732,,,,,,,,,
59,59,3.17,-6.78,1.13,7.08,0.123,-0.423,0.251,0.584,-1.28,0.65,3170000000.0,-7.250297035576527,0.08039937677139597,6.845317391254299,-0.003211785050560134,-0.5320252411167801,0.4150672222201007,-0.0036958089215582968,-0.23296332681066945,0.15079727969860246,,,,,,,,,
60,60,3.22,-6.26,2.33,7.17,0.7140000000000001,-1.78,0.0806,-0.495,-0.473,0.106,3220000000.0,-6.616977740733629,1.5311880178527504,7.0461888130643615,0.4745052136705655,-1.3555136114085389,0.18979360768243367,-0.2944181220013681,-0.3873218893206353,0.12377982726902124,,,,,,,,,
61,61,3.27,-3.07,-1.04,7.6,-0.139,-1.39,-0.55,0.977,0.794,-3.16,3270000000.0,-4.348597727108022,-0.12699539614266198,7.388815095595887,0.06586458581701476,-1.3782697838449174,-0.30847938316883017,0.4579255784798016,0.37234186724067336,-1.856683399724928,,,,,,,,,
62,62,3.32,-6.05,-1.92,9.03,-0.373,-1.22,-0.246,-0.354,0.826,-0.0416,3320000000.0,-5.436686672991416,-1.2833209731284243,8.404166719665866,-0.22645224321183755,-1.2738339329874415,-0.2663976661772232,-0.022519906910945686,0.6640723574492067,-0.7619979999762929,,,,,,,,,
63,63,3.37,-4.54,-0.622,8.71,0.203,-0.7659999999999999,-0.28600000000000003,-0.337,1.29,-0.0411,3370000000.0,-4.863233348943447,-0.8568288175901059,8.593376604734692,0.05959525632197249,-0.9387347117512991,-0.2796004296174361,-0.20860906401071005,1.0665828905186443,-0.3272209994064445,,,,,,,,,
64,64,3.42,-3.97,-2.95,9.4,-0.324,-0.0324,-0.682,-0.882,0.6709999999999999,-0.695,3420000000.0,-4.291988553707003,-2.2067347147041594,9.092410027555037,-0.19590804446079255,-0.34068086024135324,-0.5506284878116601,-0.6070786489012165,0.8121983938450849,-0.5490302532072576,,,,,,,,,
65,65,3.47,-3.94,-2.09,8.55,-0.569,-0.469,-0.949,0.524,0.404,-0.205,3470000000.0,-4.066883206622514,-2.131451339233068,8.75683735877374,-0.444415359892134,-0.4253535113249093,-0.8189435422583837,0.06222114677537083,0.5497013474028284,-0.3415439761051519,,,,,,,,,
66,66,3.52,-3.22,-1.15,8.2,-0.588,0.12,-0.918,1.38,-0.851,0.0908,3520000000.0,-3.5252804734952443,-1.4985040849913696,8.412338697647522,-0.5400535323450049,-0.06549664790361842,-0.8856609991284319,0.8419981529345099,-0.3510370869814956,-0.08079527395731967,,,,,,,,,
67,67,3.57,-1.95,-3.17,9.02,0.8440000000000001,-0.123,-1.14,-0.000715,-3.28,0.5870000000000001,3570000000.0,-2.51784968940068,-2.576467637720373,8.788280770811143,0.3818302361250733,-0.10344080122119144,-1.056965866010755,0.3433345568426221,-2.234543108523205,0.3219552278379519,,,,,,,,,
68,68,3.62,-4.74,-6.45,9.39,0.8,-0.0629,-0.333,-1.89,-3.37,-0.58,3620000000.0,-3.938969613522867,-5.0745451221865805,9.160546591042953,0.6603627674244719,-0.07668955532039279,-0.5693533405249933,-0.9782095894849744,-2.9647127150183983,-0.2220182342535762,,,,,,,,,
69,69,3.67,-4.74,-1.96,8.36,0.562,0.142,0.69,0.131,0.627,-0.0383,3670000000.0,-4.451248206290813,-3.065945579384424,8.665272256003838,0.594845748524365,0.06761489650112526,0.2788585630466753,-0.3218504957213681,-0.6550171863046592,-0.11121689663764653,,,,,,,,,
70,70,3.72,-2.97,-1.66,8.01,0.193,0.154,0.96,-0.812,3.89,-0.0641,3720000000.0,-3.5039533700011805,-2.1592379740034917,8.259875141142954,0.32718624997246465,0.1246169540628517,0.7376275511783209,-0.6118895225618863,2.2677127265847905,-0.0828004713554496,,,,,,,,,
71,71,3.77,-4.11,2.34,9.04,0.0964,0.27,-0.07400000000000001,-1.92,0.937,0.373,3770000000.0,-3.891535260920422,0.7423630371530723,8.74251492806666,0.17346524460228496,0.22054939043174931,0.1909722717303538,-1.3859453814433964,1.4119813375613501,0.1920949504533871,,,,,,,,,
72,72,3.82,-4.09,-1.32,9.25,0.0836,0.205,-0.0245,-0.313,-0.191,-0.0884,3820000000.0,-4.018458466561601,-0.5876743991649584,9.056480694162822,0.11360823046621925,0.21028897141238145,0.0458452929130804,-0.7510451147453922,0.3811642462576641,0.02292711730345398,,,,,,,,,
73,73,3.87,-4.25,-1.53,8.97,0.264,0.208,-0.0807,-0.7709999999999999,0.0477,-0.0406,3870000000.0,-4.166535002497819,-1.1953890613289135,9.002977852288057,0.2137804626096665,0.20877857399945834,-0.03938672478475952,-0.7628531523886292,0.16672591352862445,-0.015386389281773584,,,,,,,,,
74,74,3.92,-4.12,-1.69,9.53,0.209,0.0147,-0.0887,-0.262,-0.277,0.0145,3920000000.0,-4.136774644546712,-1.5143683643750347,9.329030454954276,0.2105963190662357,0.08071392285637621,-0.07260067894827299,-0.4664803760092678,-0.11861756192300925,0.002638233470119045,,,,,,,,,
75,75,3.97,-4.01,-1.48,9.0,0.246,0.175,-0.19,-0.0787,-0.0678,-0.455,3970000000.0,-4.055699270991809,-1.4922038938675084,9.125469198531237,0.2341778386575047,0.14292951398219567,-0.151672609397929,-0.2370168191076068,-0.08593869671519291,-0.2733655617319681,,,,,,,,,
76,76,4.02,-4.73,-0.654,8.36,0.222,0.0715,-0.221,-0.7929999999999999,0.438,-0.406,4020000000.0,-4.486931272751443,-0.951638275398386,8.65189619230292,0.2260664838287464,0.0957960505519107,-0.1983666680700215,-0.566011997162885,0.25098659629904485,-0.3533580129428961,,,,,,,,,
77,77,4.07,-5.06,-0.373,8.79,0.154,-0.0922,-0.13699999999999998,-0.919,0.6679999999999999,-0.339,4070000000.0,-4.853422857441209,-0.5784689835136606,8.737336845054303,0.17806478318720398,-0.028254990282563914,-0.1570343894994606,-0.7748876756867298,0.5191522425020043,-0.34469861924397305,,,,,,,,,
78,78,4.12,-5.51,-0.828,8.82,0.113,-0.0525,-0.114,-0.301,0.662,-0.136,4120000000.0,-5.273320321594882,-0.7393938988072508,8.788477866516926,0.13472674118512928,-0.04425329674326387,-0.12804944914927,-0.4944713416567406,0.6110122704120836,-0.2188314974400052,,,,,,,,,
79,79,4.17,-4.26,-0.261,8.79,0.0207,-0.0965,-0.138,-0.18,0.609,-0.317,4170000000.0,-4.625277066048953,-0.43087315961417055,8.789419541168458,0.05877635300945845,-0.07872879772571642,-0.1347514385677578,-0.30838737466196986,0.6097182723675393,-0.2780373875481716,,,,,,,,,
80,80,4.22,-4.13,-0.414,8.51,-0.0648,-0.069,-0.0948,-0.208,0.35100000000000003,-0.218,4220000000.0,-4.308535208836195,-0.4199915025267632,8.616551208096277,-0.023534796367935932,-0.07230915395157997,-0.10784295919599762,-0.2489845672672773,0.44334627570473945,-0.2418285514451319,,,,,,,,,
81,81,4.27,-4.18,-0.737,8.94,-0.0502,-0.0593,-0.115,-0.119,0.252,-0.255,4270000000.0,-4.226333654727597,-0.6244332694369663,8.816658997692482,-0.041295828388985184,-0.06372493720592946,-0.11266344030320866,-0.17206803860140535,0.32029867521314115,-0.2497723116105173,,,,,,,,,
82,82,4.32,-3.93,-0.826,8.83,-0.0752,0.00489,-0.0612,-0.0989,0.0863,0.121,4320000000.0,-4.036820997812066,-0.754425541863353,8.824912627775287,-0.06387855670859942,-0.018448697686100076,-0.07800128390225575,-0.12877188470405915,0.16982291633273122,-0.026157773832150174,,,,,,,,,
83,83,4.37,-3.99,-0.879,9.07,-0.106,-0.0281,-0.0508,-0.188,0.234,-0.14400000000000002,4370000000.0,-4.006877818072502,-0.834764791798284,8.976540632266396,-0.0919346060750818,-0.02481720467001429,-0.05968041030761498,-0.16381928090438624,0.21109278671451864,-0.09722897513430157,,,,,,,,,
84,84,4.42,-4.04,-0.802,8.71,-0.0862,0.0593,-0.0618,0.0712,0.132,-0.0771,4420000000.0,-4.028060248027802,-0.8136344591732205,8.811639975169976,-0.08811492622898888,0.03068835927738952,-0.06110801650995745,-0.024749944565579496,0.16023118577805115,-0.08508909561150771,,,,,,,,,
85,85,4.47,-3.77,-0.848,8.86,-0.0941,0.0287,-0.0532,0.0141,0.14800000000000002,-0.113,4470000000.0,-3.863024326188316,-0.8357971145906264,8.841558657102341,-0.09210143462566524,0.029376320685037444,-0.0557817316991202,-0.001761038875683421,0.1523657708239432,-0.10192229312805393,,,,,,,,,
86,86,4.52,-4.21,-0.939,8.82,-0.142,0.0538,-0.0599,-0.17600000000000002,0.228,-0.158,4520000000.0,-4.084923873616642,-0.9023536369484009,8.828220774901979,-0.12533763633444178,0.045492526262735686,-0.05855550826807787,-0.1048644806081942,0.20100330292468885,-0.13574302827307985,,,,,,,,,
87,87,4.57,-4.16,-0.838,8.74,-0.14300000000000002,0.0519,-0.0581,0.0918,-0.0502,0.0135,4570000000.0,-4.132936815254299,-0.8608513683274132,8.77364109055139,-0.1371021037939584,0.049720560266246334,-0.05824870992702896,0.011508943950574613,0.0394638935412848,-0.04573385046720072,,,,,,,,,
88,88,4.62,-4.11,-1.18,8.91,-0.146,0.0336,-0.0147,-0.12,-0.0702,0.108,4620000000.0,-4.118268240128796,-1.0666733015507437,8.858002156382543,-0.14302877066299582,0.039083249616918996,-0.02891735955958722,-0.06630961310513772,-0.031056839878820824,0.04698376496372679,,,,,,,,,
89,89,4.67,-4.35,-1.18,8.89,-0.133,0.0324,-0.0282,-0.198,0.0498,0.0484,4670000000.0,-4.266466369582672,-1.1397587259691242,8.877798473224138,-0.13634885576950834,0.03467324233896303,-0.0284341969282194,-0.14423553741064776,0.020939157628875847,0.04783790286728525,,,,,,,,,
90,90,4.72,-4.13,-1.16,8.77,-0.0312,-0.133,-0.139,-0.439,-0.382,-0.159,4720000000.0,-4.179192825033243,-1.1528124932522663,8.81110707996058,-0.06631180648558252,-0.07596759261198666,-0.1029035505557893,-0.31865824772314266,-0.23817588012110505,-0.07690701315064599,,,,,,,,,
91,91,4.77,-4.51,-1.67,8.67,0.0885,-0.115,-0.173,0.156,-0.596,0.23,4770000000.0,-4.390752339633184,-1.4863515737170696,8.723808416496547,0.036804504115327694,-0.10172351097054076,-0.1501155879167224,-0.03778593724273116,-0.4682791421564878,0.1081900633890518,,,,,,,,,
92,92,4.82,-4.22,-2.15,8.73,-0.0215,-0.171,-0.0404,-0.569,-0.514,-0.39,4820000000.0,-4.281551862085569,-1.9143447737510595,8.727638679973033,-0.0020306825976853862,-0.14743628448101398,-0.07621887744273373,-0.3521243533082747,-0.4976805076781709,-0.19227071607095364,,,,,,,,,
93,93,4.87,-4.35,-1.64,8.6,-0.027000000000000003,-0.199,-0.038,-0.104,-0.0437,0.0127,4870000000.0,-4.325326077801693,-1.737417228639056,8.648672699712504,-0.018662126997798036,-0.181461108713608,-0.050477326725634715,-0.20530027586057734,-0.2057426932989906,-0.0686519059717124,,,,,,,,,
94,94,4.92,-3.65,-2.02,9.19,-0.119,-0.247,0.0256,-0.635,-0.0559,-0.397,4920000000.0,-3.8934384133227216,-1.9196575146946309,8.983575376062712,-0.08549470107132143,-0.2247075851529292,0.000763013548773582,-0.4595690079720689,-0.10938448522892334,-0.26668020639391,,,,,,,,,
95,95,4.97,-4.54,-1.64,8.46,-0.306,-0.374,0.132,-0.679,0.13699999999999998,0.0898,4970000000.0,-4.306930511065079,-1.7393037327671876,8.659655045851768,-0.2323678158603319,-0.32321965836977123,0.08915502405033257,-0.5894142075966015,0.049056119698182014,-0.05168530448963668,,,,,,,,,
96,96,5.02,-4.1,-1.47,8.62,-0.29600000000000004,-0.262,0.0812,0.5870000000000001,0.256,-0.00171,5020000000.0,-4.1745932715008465,-1.5656272302768115,8.635121589658608,-0.27475164034720945,-0.2828232625185374,0.08379708135510425,0.106712277924764,0.18213396429867126,-0.02154496151481074,,,,,,,,,
97,97,5.07,-2.87,-1.87,9.76,-0.125,-0.0513,-0.0276,0.74,-0.174,1.35,5070000000.0,-3.340273542652048,-1.761920107467154,9.331050205614662,-0.17500578144872234,-0.13005036641554113,0.008767836347858785,0.4814513412905193,-0.046882408825245185,0.8056403187260937,,,,,,,,,
98,98,5.12,-3.77,-1.19,9.03,-0.262,-0.0635,0.117,-0.498,1.11,0.26,5120000000.0,-3.615094225727561,-1.3930834650529291,9.144799323560076,-0.2329504722815695,-0.08613645551366061,0.08166541454646949,-0.09812514252105836,0.6970652259437796,0.4765620510326269,,,,,,,,,
99,99,5.17,-4.16,-0.8,9.16,-0.338,-0.0519,0.161,0.45,0.184,0.527,5170000000.0,-3.9635748446169874,-1.0105983442212958,9.154203430952014,-0.3029213607292566,-0.06354519402248099,0.13509961477772564,0.22622015550877544,0.3671322496744672,0.5069814231129306,,,,,,,,,
100,100,5.22,-3.28,-2.07,9.17,-0.453,0.057999999999999996,0.0347,0.26,-0.149,0.514,5220000000.0,-3.5264118105064934,-1.6938164354465264,9.163976340798673,-0.4028850315468602,0.016657593694325915,0.06747748934987842,0.2462088953494648,0.03522698287909737,0.5112143592308918,,,,,,,,,
101,101,5.27,-3.28,-2.07,9.17,-0.513,0.127,0.0971,-0.0618,-0.266,0.682,5270000000.0,-3.3688253463925517,-1.9364207263766424,9.167703044960293,-0.4762298925578847,0.08946811579564108,0.08742912875801899,0.06394898577347907,-0.1584807776608366,0.6142159772938278,,,,,,,,,
102,102,5.32,-3.08,-2.49,8.64,-0.526,0.173,-0.00252,0.239,-0.0741,0.0203,5320000000.0,-3.1841143468296624,-2.293429234860953,8.841229238825543,-0.5093805437679488,0.14458744452108732,0.026845717018415254,0.16753294464129,-0.10421867052113867,0.2560224374441909,,,,,,,,,
103,103,5.37,-3.5,-2.61,8.73,-0.573,0.297,-0.18,0.6890000000000001,-0.905,-0.0951,5370000000.0,-3.386131032902349,-2.4975886437809924,8.772414767556006,-0.5517558971805789,0.24515835867345154,-0.11247102605207017,0.4761037096788204,-0.6191710484270067,0.0442588311963307,,,,,,,,,
104,104,5.42,-3.36,-4.12,8.77,-0.5579999999999999,0.379,-0.131,0.213,-0.925,-0.0349,5420000000.0,-3.3694195241332694,-3.543896977916864,8.7709211066279,-0.5559149581666151,0.3334750842408445,-0.12495083887502804,0.32041580828710925,-0.8158381681672541,-0.003482234090474837,,,,,,,,,
105,105,5.47,-3.36,-4.12,8.77,-0.312,0.249,-0.208,0.8420000000000001,-0.0956,0.013999999999999999,5470000000.0,-3.363395438445679,-3.9154311845741967,8.770351528837441,-0.3934492495973216,0.2777333697388353,-0.1808869201593872,0.6290558854134796,-0.3526800547418234,0.007061384396133213,,,,,,,,,
106,106,5.52,-3.89,-2.71,7.55,-0.0471,0.29600000000000004,-0.151,-0.755,1.42,-0.67,5520000000.0,-3.700172143942312,-3.1380372524713307,8.015356822659799,-0.16275459215311255,0.2897867874571228,-0.1607571864800624,-0.1899396176868404,0.7872638804700205,-0.40127755510391705,,,,,,,,,
107,107,5.57,-4.78,-2.03,7.58,0.361,-0.102,-0.132,-0.136,2.18,-1.39,5570000000.0,-4.3907488928550125,-2.4234535440533014,7.746014590021247,0.1861053713698187,0.03126243299070214,-0.14138836618669026,-0.1580216157556567,1.6828802118531,-0.9975807384196108,,,,,,,,,
108,108,5.62,-3.86,-1.3,7.04,0.556,-0.152,-0.106,0.179,1.48,-1.14,5620000000.0,-4.0513217850151575,-1.6989277112804415,7.309224552506512,0.43248301890916657,-0.08966507827496098,-0.11755324890854606,0.041406164444232924,1.5524155798886208,-1.0834744613575142,,,,,,,,,
109,109,5.67,-3.86,-1.3,7.04,0.68,-0.25,-0.271,0.405,0.017,-0.45,5670000000.0,-3.9289667056161406,-1.4416554314946517,7.1426633873978975,0.5973479547927474,-0.19546364950350426,-0.22090419504750192,0.25655767777236044,0.5650474899944723,-0.7014230045706099,,,,,,,,,
110,110,5.72,-4.34,-2.92,9.17,0.8240000000000001,-0.21,-0.26,0.7759999999999999,-0.4,2.26,5720000000.0,-4.191832758534,-2.395053856473147,8.396915683409691,0.7483152694946359,-0.20505559867584053,-0.2472363752600883,0.5639303429363239,-0.05553830826909567,1.0846252375305558,,,,,,,,,
111,111,5.77,-2.94,-3.16,10.9,0.309,0.0214,0.12,-1.34,-0.846,-0.0166,5770000000.0,-3.3912547921126714,-2.8883749050042438,9.945498506347104,0.4556982388429476,-0.05562664942349138,0.00010823662214864972,-0.5626935443096373,-0.5638545432534576,0.4204710783698823,,,,,,,,,
112,112,5.82,-4.49,-2.44,8.86,0.11,-0.125,0.16,0.358,0.0957,0.373,5820000000.0,-4.093929374734511,-2.5992137305914467,9.27393298298159,0.2254372030867549,-0.10140333545897813,0.1078000891303064,-0.017886147827950727,-0.13971978674767646,0.3918410436013214,,,,,,,,,
113,113,5.87,-4.49,-2.44,8.86,-0.0557,0.191,0.393,-0.166,-0.69,0.951,5870000000.0,-4.347226186811555,-2.496535328798644,9.01784487104803,0.0381786744813632,0.09154187412696736,0.2998907102714802,-0.10553042245416358,-0.4935843222877946,0.729072445032222,,,,,,,,,
114,114,5.92,-3.53,-2.11,9.37,-0.0917,0.155,0.298,0.902,1.31,-0.242,5920000000.0,-3.824589814585405,-2.247254976624284,9.23571259766776,-0.048330295725329694,0.13341534189117166,0.2986172660074029,0.4906614690489416,0.6662329774450758,0.14341405243883365,,,,,,,,,
115,115,5.97,-2.9,-0.974,8.5,0.0586,0.117,0.179,0.0878,0.86,0.0043100000000000005,5970000000.0,-3.233291826915888,-1.4261208010437392,8.780549318729584,0.022893326721217286,0.12258351661965505,0.2180514855553247,0.2522738914960997,0.7908372811202687,0.05951973935105795,,,,,,,,,
116,116,6.02,-4.33,-1.99,8.66,0.0567,0.17800000000000002,0.106,-0.54,0.136,-0.0795,6020000000.0,-3.934663772995261,-1.789771828662091,8.705968982857852,0.04541111365756269,0.1591506289429568,0.14258147881128153,-0.21654299733529345,0.3697360255308673,-0.024323722558378474,,,,,,,,,
117,117,6.07,-4.36,-1.92,8.75,0.0225,0.0733,-0.00863,-0.338,0.207,0.0622,6070000000.0,-4.2066768927932685,-1.873757178737768,8.733209650206671,0.0301505888605314,0.10250124683701227,0.04073605350731785,-0.28841346152894043,0.2650866011988889,0.027859143725168067,,,,,,,,,
118,118,6.12,-4.31,-2.51,8.56,0.039,-0.0147,-0.0636,0.0284,-0.491,0.0627,6120000000.0,-4.272754538117331,-2.284076177583483,8.626050303489473,0.03604496299271002,0.02516485407493191,-0.029537382097362588,-0.10094357386498318,-0.22112429189883487,0.048871831292617685,,,,,,,,,
119,119,6.17,-4.02,-2.61,8.74,0.0274,0.0232,-0.0978,-0.227,-0.35100000000000003,0.33,6170000000.0,-4.1111117489593045,-2.4942674614850726,8.696547415382827,0.030286767257602636,0.023868325640708458,-0.07551428515898242,-0.1755356810357186,-0.3046424888072425,0.2184215699781876,,,,,,,,,
120,120,6.22,-4.08,-2.43,8.98,0.0836,0.022000000000000002,-0.126,0.18600000000000005,-0.108,0.232,6220000000.0,-4.0912149674111244,-2.4528208115942136,8.87191072965749,0.06579739093445411,0.022635492556922994,-0.10951791599911327,0.0383979503527295,-0.17818909178588466,0.2266107814445881,,,,,,,,,
121,121,6.27,-4.08,-2.43,8.98,0.0977,0.0819,-0.08800000000000001,0.35200000000000004,0.0487,-0.13,6270000000.0,-4.084042669648563,-2.438103497697902,8.938782030360887,0.08704692860858229,0.0617417596453371,-0.0950249596998849,0.2239675291925199,-0.032285237923413895,0.011537132099333295,,,,,,,,,
122,122,6.32,-4.07,-1.95,8.77,0.0567,0.111,-0.0141,-0.0335,0.0726,-0.0425,6320000000.0,-4.0750621449584346,-2.123320972454424,8.834361942610288,0.0668335901505736,0.09424529378519704,-0.04051959427767267,0.0716147577219321,0.03516251892944966,-0.0210529186142848,,,,,,,,,
123,123,6.37,-4.09,-2.03,8.64,0.0286,0.0177,0.0555,-0.0725,-0.0188,-0.336,6370000000.0,-4.084615370207965,-2.0631373774142183,8.714116260924499,0.04136714253799766,0.043736130480816766,0.024152456831804087,-0.013663111796662285,0.0004612499678589913,-0.21099899315899945,,,,,,,,,
124,124,6.42,-4.62,-2.21,8.68,0.126,0.0281,0.0702,-0.672,-0.147,0.423,6420000000.0,-4.4270070061698,-2.1578504944964454,8.693009744151615,0.09773899423290114,0.03341847682714463,0.0551668482555813,-0.4032246541328433,-0.09436554128733628,0.17136880879861466,,,,,,,,,
125,125,6.47,-4.62,-2.21,8.68,0.061,-0.162,0.203,-0.67,0.191,-0.274,6470000000.0,-4.550430724653224,-2.19148222776965,8.684961195139191,0.07326806050583405,-0.0955303227729492,0.15473686589862845,-0.5610852039322191,0.0891423199910763,-0.09723522371796052,,,,,,,,,
126,126,6.52,-4.99,-1.89,8.71,0.0311,-0.136,0.315,-0.211,0.508,0.448,6520000000.0,-4.831545999043651,-1.9970534822371162,8.700451974990411,0.04518095928300255,-0.122234641237018,0.2626788484298187,-0.3539272304414249,0.35849397248272363,0.23159873184465365,,,,,,,,,
127,127,6.57,-4.46,-1.36,9.09,-0.0147,-0.033,0.215,0.89,0.691,0.17600000000000002,6570000000.0,-4.593933169873581,-1.586211683546854,8.941453728095814,0.005295735195373554,-0.06335228757187722,0.23056572931662056,0.3821491162194406,0.5723161003155952,0.19806687261885925,,,,,,,,,
128,128,6.62,-2.94,-1.09,8.77,0.00176,-0.0568,0.158,1.11,0.526,-0.0869,6620000000.0,-3.5362020477073672,-1.2662001034388741,8.835380741230509,0.002940669556617909,-0.05902869657356535,0.1816905587305907,0.8128445966518141,0.5425319705155531,0.02620199935893519,,,,,,,,,
129,129,6.67,-2.94,-1.09,8.77,-0.0123,-0.0244,0.213,0.362,-0.0624,0.339,6670000000.0,-3.1549161325690878,-1.152567013977944,8.794931924267187,-0.007210762715910472,-0.03617861106885584,0.20277839767945824,0.5460636727085766,0.1535229421095901,0.2148519478020577,,,,,,,,,
130,130,6.72,-4.48,-1.71,8.92,-0.0697,0.0183,0.28800000000000003,-0.267,-0.124,-0.279,6720000000.0,-4.002340043194073,-1.5120608364390145,8.87230783212536,-0.0488332978461522,-0.00023036465592619904,0.2601776714373044,0.06494474348164397,-0.024941637125920457,-0.08299251070084285,,,,,,,,,
131,131,6.77,-4.39,-1.75,8.47,-0.111,-0.0244,0.305,0.154,-0.0632,-0.155,6770000000.0,-4.250258085811372,-1.665510050448609,8.623412229343153,-0.09024099948823387,-0.01617893536770827,0.2903668467450783,0.11764193219526772,-0.049544151375332086,-0.12642056945019514,,,,,,,,,
132,132,6.82,-3.86,-1.64,8.66,-0.14400000000000002,-0.00305,0.248,0.581,-0.0761,0.008320000000000001,6820000000.0,-4.00067832297686,-1.6490583687363234,8.64604788932994,-0.1260485342092205,-0.0075156785117580565,0.2618315135105424,0.3918275015436277,-0.06662121972721362,-0.04515789348318672,,,,,,,,,
133,133,6.87,-3.86,-1.64,8.66,-0.14400000000000002,0.0391,0.163,0.494,0.153,-0.0474,6870000000.0,-3.9107109898067223,-1.6432165319529044,8.654679546594501,-0.1380055568590132,0.023244133514379837,0.19526555339009227,0.4522866260544384,0.07460893604833735,-0.046510119414869384,,,,,,,,,
134,134,6.92,-3.67,-1.59,8.91,-0.0276,-0.0116,0.0433,0.0229,-0.118,0.102,6920000000.0,-3.756770408582673,-1.6088967093715474,8.812638545350296,-0.06446714951774979,0.00025189023856751064,0.09291223586750208,0.1982031597926896,-0.04925063695211215,0.04305703622393922,,,,,,,,,
135,135,6.97,-4.04,-1.77,8.88,-0.0386,-0.0183,0.0219,-0.262,0.114,-0.0589,6970000000.0,-3.937902711285484,-1.7127937308811971,8.854313124199297,-0.047237682836230144,-0.011989756938983824,0.045083384428553634,-0.07411555158479449,0.05572971615134069,-0.01843373467854626,,,,,,,,,
136,136,7.02,-4.62,-1.56,8.59,-0.0923,-0.0935,0.0793,-0.519,0.0707,-0.189,7020000000.0,-4.3741207203762364,-1.6142555737369308,8.690790630217387,-0.07725257482837901,-0.06577509268551772,0.06812929284874293,-0.3373696316184958,0.06535654165212171,-0.12130305492499713,,,,,,,,,
137,137,7.07,-4.54,-1.68,9.07,-0.103,-0.0177,0.151,-0.491,0.00527,0.301,7070000000.0,-4.480204596978642,-1.6566547413891377,8.92539588476472,-0.09440229715598723,-0.034052270912528125,0.12394517253046568,-0.4282782284966502,0.026717143568820798,0.1333899181640463,,,,,,,,,
138,138,7.12,-4.35,-1.24,8.72,0.0152,-0.0825,0.0708,0.324,-0.2,0.464,7120000000.0,-4.396935476666034,-1.3879501693494825,8.79832378739331,-0.02139892125113202,-0.06602098245964169,0.0881503185427979,0.01687177997910344,-0.11907613806853427,0.3327824171849294,,,,,,,,,
139,139,7.17,-3.75,-1.86,9.23,0.0885,-0.103,0.0421,0.298,-0.302,-0.15,7170000000.0,-3.983204242634799,-1.6923795730580768,9.065388606774302,0.051802028803926765,-0.09042195008244464,0.05713406106147876,0.1832254349544352,-0.23670759431538985,0.04161404994318346,,,,,,,,,
140,140,7.22,-4.2,-1.73,8.55,-0.0166,-0.0501,0.16699999999999998,-0.354,0.0868,-0.157,7220000000.0,-4.121850368175343,-1.7166413540333445,8.746533279143769,0.006241131629342055,-0.06381511485163578,0.13113203346704502,-0.1346701235190367,-0.028672010084362407,-0.07817102794696615,,,,,,,,,
141,141,7.27,-4.2,-1.73,8.55,-0.1,-0.0122,0.172,0.0342,0.00875,-0.468,7270000000.0,-4.1718288681450115,-1.7252564832955846,8.624944162383203,-0.06452345598237774,-0.029756374739022658,0.15865782753356086,-0.034743614091782615,-0.004607320914872669,-0.3132787251772524,,,,,,,,,
142,142,7.32,-3.29,-2.34,9.18,-0.085,-0.0177,0.18,0.607,-0.113,-0.0993,7320000000.0,-3.607877477683645,-2.1217103283598786,8.968340720698404,-0.0781623754276312,-0.02180085740117134,0.17303241983640308,0.3449990942533148,-0.07431058043034866,-0.18422714025140494,,,,,,,,,
143,143,7.37,-3.35,-1.78,8.72,-0.0948,0.0238,0.16899999999999998,0.18600000000000005,0.0307,-0.224,7370000000.0,-3.4429583932067254,-1.9013380915609484,8.814699943656425,-0.08924428702284318,0.008289316130269859,0.17031646506495302,0.25091363036480896,-0.006782220264144921,-0.20821434461411284,,,,,,,,,
144,144,7.42,-3.63,-1.84,9.0,0.0671,0.119,-0.00191,0.478,-0.155,0.436,7420000000.0,-3.5625761988963287,-1.8617805984770344,8.929339520986131,0.014892772792485437,0.08134284893031216,0.05431682195697053,0.3852887708783263,-0.10209550824175588,0.1803143731433587,,,,,,,,,
145,145,7.47,-3.63,-1.84,9.0,0.00542,0.0336,0.0555,0.0739,0.201,0.0602,7470000000.0,-3.605695460070935,-1.8477341063190391,8.973055036285515,0.008583193321890378,0.04983926084348349,0.05511372801695864,0.20102886689834013,0.09281383231181828,0.10787282448056563,,,,,,,,,
146,146,7.52,-4.72,-0.919,8.74,-0.00557,0.0354,0.106,-1.2,0.47,-0.069,7520000000.0,-4.318320632465347,-1.2487847279605062,8.828870746110724,-0.0008438982580125947,0.04031137255486244,0.08938714378954657,-0.6280101891124665,0.3353680891852858,0.0011999869016424275,,,,,,,,,
147,147,7.57,-5.17,-1.14,8.75,-0.00619,-0.0263,0.158,-0.894,0.147,-0.17800000000000002,7570000000.0,-4.862990696178893,-1.1786284201586703,8.780075785244403,-0.00440480429512406,-0.0036427952015547632,0.13559994664730168,-0.7854058961477922,0.2142356459030624,-0.10687637627332587,,,,,,,,,
148,148,7.62,-4.86,-1.35,8.78,0.0115,-0.099,0.227,-0.5429999999999999,0.00472,0.118,7620000000.0,-4.8610781574076345,-1.2891475860462511,8.780028733988036,0.0061889919636729926,-0.06656518203235089,0.19716059787602008,-0.641965623464221,0.07950400331135163,0.028747632348226068,,,,,,,,,
149,149,7.67,-4.86,-1.35,8.78,-0.0202,-0.128,0.279,-0.101,-0.00529,-0.109,7670000000.0,-4.860388734471734,-1.3283918979558804,8.78001079193028,-0.011388061511672844,-0.10710355344859283,0.2522818771007756,-0.32185686466005115,0.024976164723492462,-0.05432861590729728,,,,,,,,,
150,150,7.72,-4.09,-1.17,8.82,-0.038,-0.0684,0.299,0.555,0.0225,0.199,7720000000.0,-4.3677061870421765,-1.226243439213762,8.804750724643197,-0.02911361385579696,-0.08156463595522903,0.28374791805106897,0.1970107944567284,0.023383836767454255,0.09845507341273647,,,,,,,,,
151,151,7.77,-3.66,-1.3,8.96,-0.0606,-0.0403,0.304,0.414,-0.11,0.0934,7770000000.0,-3.9151106359454872,-1.2738097111728943,8.900798810283279,-0.050085916786362,-0.05433576135447786,0.2973882905895209,0.32541109227449394,-0.06239029848791078,0.09540633560244816,,,,,,,,,
152,152,7.82,-3.91,-1.39,8.89,-0.0477,-0.00916,0.342,0.156,-0.101,0.0784,7820000000.0,-3.911842312779056,-1.3487419166750318,8.894118123225807,-0.048496716081076384,-0.02452609191585331,0.3274356079594463,0.2251644750299695,-0.08721874964334986,0.08514973457059792,,,,,,,,,
153,153,7.87,-3.91,-1.39,8.89,-0.0606,0.0195,0.301,0.195,0.08199999999999999,0.0503,7870000000.0,-3.9106641630930286,-1.375349635084647,8.891570576522705,-0.05655841465969584,0.004524957062907457,0.3096304396407777,0.20731506908739694,0.02159947399265766,0.06413169352136014,,,,,,,,,
154,154,7.92,-3.95,-0.991,8.83,-0.121,0.069,0.233,0.245,0.189,0.103,7920000000.0,-3.9358204339429217,-1.1274789229322573,8.853478663578398,-0.09948135826316527,0.04706944560212255,0.25801755781154384,0.2296145970825798,0.1292484620064184,0.08757335342234424,,,,,,,,,
155,155,7.97,-3.89,-0.991,8.92,-0.13,0.108,0.166,0.319,0.0948,0.123,7970000000.0,-3.9065172005283406,-1.0394623742834463,8.894633462921501,-0.11980906652580935,0.08727507159107273,0.19604099343632791,0.28250714914080005,0.10709595179328847,0.1089393339046001,,,,,,,,,
156,156,8.02,-4.04,-1.29,8.95,-0.1,0.109,0.14,-0.0769,-0.08900000000000001,-0.0141,8020000000.0,-3.9918827270092274,-1.2010364309332604,8.928886957865696,-0.10661473889520699,0.10161047702558423,0.15829571911539975,0.06983305027194557,-0.019005990599927497,0.03473372840125453,,,,,,,,,
157,157,8.07,-4.48,-1.48,8.68,-0.147,0.0299,0.199,-0.264,-0.276,-0.0901,8070000000.0,-4.3040458049076165,-1.3809426838458547,8.774908263900956,-0.13351436105965744,0.054291614841548895,0.18571126274077449,-0.1277079374950865,-0.1842691811166457,-0.04055408345256255,,,,,,,,,
158,158,8.12,-4.48,-1.48,8.68,-0.125,0.0336,0.184,0.0688,-0.465,0.245,8120000000.0,-4.416572875667443,-1.4448256949697005,8.716191561444559,-0.12784315602378427,0.04063804898174372,0.18455867666381034,-0.011427141830560568,-0.36479662902314175,0.13166494035695853,,,,,,,,,
159,159,8.17,-4.19,-1.72,8.99,-0.0972,0.0159,0.123,0.14400000000000002,-0.063,-0.0391,8170000000.0,-4.27167395582911,-1.622288221864439,8.885588473921393,-0.10743250790025566,0.02431440525699344,0.14309708058015802,0.08054466864487751,-0.17072255278151047,0.028675796335484862,,,,,,,,,
160,160,8.22,-4.16,-1.28,8.63,-0.0508,-0.0257,0.061,-0.0216,0.0501,-0.0694,8220000000.0,-4.200255602142882,-1.401543296085986,8.72746363532498,-0.06971099653499882,-0.008688090230023841,0.08780225719249267,0.0201020045049696,-0.028719863827917188,-0.030474179750524414,,,,,,,,,
161,161,8.27,-4.16,-1.28,8.63,-0.0147,-0.00611,-0.00252,-0.185,-0.0905,0.05,8270000000.0,-4.1745110515928765,-1.323158857964824,8.667165883345367,-0.03306953425697074,-0.006986912069341904,0.026967532362196785,-0.10126420885975006,-0.06844834714959612,0.018060179862977317,,,,,,,,,
162,162,8.32,-4.31,-1.35,8.73,-0.016,-0.0232,-0.0202,0.0345,-0.194,0.0854,8320000000.0,-4.261159547725853,-1.3404689793643063,8.706039180199538,-0.021699940737271863,-0.0176852770206335,-0.004801202060998648,-0.0209276578684338,-0.14918590316117813,0.058673144631628024,,,,,,,,,
163,163,8.37,-4.23,-1.54,8.81,-0.0251,-0.00489,-0.0196,0.132,-0.0852,0.138,8370000000.0,-4.241232258674382,-1.4691483946199997,8.77035687540497,-0.023964636141571457,-0.009242187925635545,-0.01476863247740421,0.06956512154863911,-0.10803897005664788,0.10651554493891044,,,,,,,,,
164,164,8.42,-4.08,-1.52,8.94,0.0274,0.00428,-0.0538,0.16899999999999998,-0.157,0.154,8420000000.0,-4.138120193687692,-1.5019430629423316,8.875309719886163,0.010248075913877152,-0.00031943955390297327,-0.04105741976127918,0.12840430517305326,-0.13952397285046114,0.13515364430560567,,,,,,,,,
165,165,8.47,-4.02,-1.43,8.71,0.0622,0.0232,-0.103,0.195,-0.0312,-0.036000000000000004,8470000000.0,-4.0625793968812385,-1.4555462682934104,8.773037586692903,0.044851965009354434,0.015200093202355585,-0.08277758868154962,0.16781136199345886,-0.06986489392479689,0.0319300712848041,,,,,,,,,
166,166,8.52,-4.06,-1.48,8.75,0.158,0.0171,-0.16899999999999998,0.0659,-0.229,0.284,8520000000.0,-4.060929772201321,-1.4713167231467887,8.758784923993902,0.12021707374525305,0.016453765841276245,-0.1408509452350823,0.10750675288487513,-0.1721987050387751,0.18395464542722567,,,,,,,,,
167,167,8.57,-4.14,-1.63,9.03,0.134,0.00916,-0.197,-0.0638,0.0697,-0.083,8570000000.0,-4.111497052653753,-1.5736530641403057,8.926577377381307,0.1293975417999897,0.011640902821754609,-0.17866900038648925,0.006138403570175088,-0.016642731626286874,0.022953035612152617,,,,,,,,,
168,168,8.62,-4.44,-1.32,8.78,0.0977,0.0226,-0.196,-0.174,0.0244,-0.228,8620000000.0,-4.321582846932296,-1.4100698410499746,8.83589419286029,0.10828459409868194,0.01887237109801973,-0.19034194028336068,-0.10045594743994493,0.009750307248751658,-0.12839792947104528,,,,,,,,,
169,169,8.67,-4.74,-0.934,8.53,0.0573,-0.022000000000000002,-0.153,-0.502,0.397,-0.215,8670000000.0,-4.589170816099023,-1.1030479137302296,8.646646481439396,0.07432501957087484,-0.008097663912174924,-0.16519103170330876,-0.3380639492943184,0.2587760493849151,-0.1806280507598138,,,,,,,,,
170,170,8.72,-4.54,-1.25,8.69,0.0134,-0.0122,-0.119,-0.00384,-0.0166,0.134,8720000000.0,-4.557724838966334,-1.1978187021859381,8.673467741167709,0.03374437262479302,-0.010804630474496604,-0.13408000081407062,-0.14029165165244892,0.08169205508865965,0.00912561964769065,,,,,,,,,
171,171,8.77,-4.27,-1.34,8.87,0.0152,0.000611,-0.106,0.17800000000000002,0.00661,0.0908,8770000000.0,-4.3737176777085365,-1.289512785630759,8.79505627389299,0.021392425458538297,-0.003271914704028884,-0.11516728483265752,0.04805293584690504,0.03340960550694475,0.05838382681963429,,,,,,,,,
172,172,8.82,-4.07,-1.32,8.77,0.0299,0.0177,-0.12,0.182,0.0285,-0.0192,8820000000.0,-4.179482822601575,-1.3091743119680763,8.779554993281451,0.027059109829225755,0.010566608804630723,-0.11842226032863805,0.1273142154689061,0.030252422615729475,0.01159265265510294,,,,,,,,,
173,173,8.87,-4.05,-1.36,8.76,0.0561,0.0434,-0.139,0.184,-0.0072099999999999985,0.024,8870000000.0,-4.09667547781983,-1.3419522874740093,8.767457048090343,0.04640252734520873,0.03223204464539398,-0.13228197864267308,0.16085722739696232,0.006161745719702527,0.019075582761424088,,,,,,,,,
174,174,8.92,-4.14,-1.36,8.81,0.061,0.047,-0.132,-0.0327,-0.0181,0.00707,8920000000.0,-4.1243824956490425,-1.3535914369752775,8.793777353794509,0.05612554281732343,0.041976823820197434,-0.13209205716415473,0.04632247501238276,-0.009440072291827988,0.011834958795212224,,,,,,,,,
175,175,8.97,-4.27,-1.38,8.74,0.0708,0.0305,-0.113,-0.14300000000000002,-0.015,-0.0127,8970000000.0,-4.2175084781517365,-1.3706225656340325,8.76050677919523,0.06589983461362554,0.034403729243577943,-0.11923298788768982,-0.06570642736551711,-0.013015452759067885,-0.002962191029575309,,,,,,,,,
176,176,9.02,-4.43,-1.29,8.7,0.0439,0.0275,-0.111,-0.206,0.0961,0.0101,9020000000.0,-4.353401950846801,-1.3186282869434154,8.723072934893393,0.05124629081858684,0.029848235667842414,-0.11368782680904248,-0.14872316599837387,0.05715259824938335,0.004915678043120642,,,,,,,,,
177,177,9.07,-4.43,-1.29,8.7,0.0305,0.00672,-0.0917,-0.17600000000000002,0.0823,-0.0248,9070000000.0,-4.402388187530224,-1.3001656096868182,8.708798285322892,0.03742770053353737,0.01458684240421519,-0.09887837365209108,-0.16486384638382062,0.07332394773061984,-0.013005988632973805,,,,,,,,,
178,178,9.12,-4.38,-1.26,8.7,0.0323,0.007940000000000001,-0.077,-0.0606,0.0267,0.0174,9120000000.0,-4.38807046120216,-1.2742624224694503,8.703354932545187,0.03401226563263031,0.01020085817747207,-0.08414263845025283,-0.10316718991168042,0.04334183768223012,0.00533200734896211,,,,,,,,,
179,179,9.17,-4.35,-1.32,8.73,0.0219,0.00489,-0.0685,-0.0434,0.127,0.0436,9170000000.0,-4.363723398909387,-1.3037590520551825,8.719839151996496,0.025944585499854175,0.006696436289611978,-0.07360685467887748,-0.06780080058041643,0.09713926234387266,0.028411615329829106,,,,,,,,,
180,180,9.22,-4.32,-1.25,8.74,0.0121,0.00122,-0.0526,0.00238,0.0785,-0.006690000000000001,9220000000.0,-4.335761313944791,-1.269089331609375,8.732311921300612,0.016723049928594066,0.0030827560562463646,-0.05945811372582002,-0.026272303897763142,0.08515305449228999,0.007241664671546056,,,,,,,,,
181,181,9.27,-4.32,-1.25,8.74,0.007859999999999999,0.0104,-0.0386,0.00948,0.0905,0.00525,9270000000.0,-4.325681673730493,-1.2567784413482337,8.737068162993406,0.010819592036092349,0.007911111284453268,-0.04540955518899776,-0.005116383712524797,0.08859147248163499,0.006040482227210182,,,,,,,,,
182,182,9.32,-4.32,-1.28,8.77,-0.00435,0.00733,-0.0208,-0.0175,0.0302,-0.0151,9320000000.0,-4.322048212671408,-1.2717542254085181,8.757442384283229,0.0007155024290243089,0.007527659258856669,-0.028834288365392133,-0.01244421364656962,0.05104211021217565,-0.006709443043027616,,,,,,,,,
183,183,9.37,-4.31,-1.31,8.7,0.000535,0.0055,-0.0068,-0.0128,0.0356,0.0008300000000000001,9370000000.0,-4.314343046159299,-1.2964192497869549,8.721904389040562,0.0005952742308384273,0.0061896883828282045,-0.01399354031180765,-0.012654745000666157,0.041111868567990775,-0.002162369230182903,,,,,,,,,
184,184,9.42,-4.32,-1.31,8.71,-0.00619,0.00367,0.006640000000000001,-0.0352,0.0188,0.0231,9420000000.0,-4.317960917801004,-1.3051775669728678,8.714539524821117,-0.003924228958669396,0.004527047285100092,-9.623777702168211e-05,-0.02599558084602751,0.026763943732829604,0.013073485292113584,,,,,,,,,
185,185,9.47,-4.34,-1.34,8.75,-0.0276,0.00977,0.0311,-0.0416,0.0118,0.0395,9470000000.0,-4.332055553408985,-1.3276349044698357,8.73647785536798,-0.019694073484703083,0.007986661308560138,0.020915355120616097,-0.03522927537170628,0.017141193837140713,0.029011442640645924,,,,,,,,,
186,186,9.47,-4.34,-1.34,8.75,-0.0434,0.0415,0.0567,0.454,-0.061,0.0768,9470000000.0,-4.337136321029137,-1.3356092928966108,8.744843599965119,-0.03548400455760447,0.030100765618423626,0.04501737614214695,0.2542652305896285,-0.033108473441761,0.057832950247803334,,,,,,,,,
187,187,9.57,-3.85,-1.42,8.78,-0.0117,0.0568,0.0128,-0.0127,0.0993,-0.0291,9570000000.0,-4.025600537374242,-1.3900336293345423,8.766593643153938,-0.01964206794307304,0.04771851762886031,0.02331801553201672,0.09629232915631702,0.052038440805504835,0.005403275471823163,,,,,,,,,
188,188,9.62,-4.53,-1.31,8.64,-7.64e-05,0.0287,0.0244,-0.313,-0.0041,-0.0791,9620000000.0,-4.348176600131802,-1.3384191489255304,8.688274172173795,-0.006609861087693309,0.035168961956658765,0.02404676391265368,-0.14590061727595993,0.015937918023911986,-0.045561049135460205,,,,,,,,,
189,189,9.67,-4.53,-1.31,8.64,-0.0215,-0.011000000000000001,0.0543,-0.342,0.0274,-0.0698,9670000000.0,-4.464457294452613,-1.3200913344513867,8.658408604700309,-0.016527814335566486,0.004703919461486822,0.04442321694580302,-0.2619396595618245,0.02330875244983916,-0.06017967340498372,,,,,,,,,
190,190,9.72,-4.66,-1.38,8.65,-0.0331,-0.033,0.0903,-0.0491,-0.0997,0.0379,9720000000.0,-4.589511592229691,-1.3587269956494612,8.653206217613514,-0.027566137789670517,-0.020175381609704345,0.07532259468743957,-0.1359947998467245,-0.05579355383630443,-0.0010273570988031944,,,,,,,,,
191,191,9.77,-4.44,-1.45,8.7,-0.0184,-0.022000000000000002,0.0769,0.226,-0.0351,0.0596,9770000000.0,-4.493895268635791,-1.4175898490162773,8.682156006806963,-0.021460800687737498,-0.02137937387814779,0.076385022627731,0.0782105036704503,-0.04248630778131018,0.035537288873579626,,,,,,,,,
192,192,9.82,-4.11,-1.39,8.76,0.000535,0.00122,0.0457,0.281,-0.0374,0.0852,9820000000.0,-4.24838483719233,-1.3997968855631862,8.73031588809527,-0.006809942596344572,-0.00646695530612186,0.055717747020673725,0.1982083146869716,-0.039215494154338934,0.06548910338659097,,,,,,,,,
193,193,9.87,-4.17,-1.37,8.74,0.00909,0.00672,0.0299,0.18600000000000005,-0.035,0.0562,9870000000.0,-4.198255844386338,-1.3805805956953352,8.736307015559346,0.003780615278653138,0.002234586501413916,0.038328726713355625,0.1909842196511384,-0.03650466828997806,0.05988680195187671,,,,,,,,,
194,194,9.92,-4.37,-1.37,8.68,0.00481,-0.000611,0.0378,-0.102,-0.0168,0.00288,9920000000.0,-4.308090405412571,-1.373757072668688,8.701471745637845,0.0044662628402948774,0.00035689833168840225,0.03797261296301157,0.017614950268975218,-0.023833335818510448,0.025505729573253283,,,,,,,,,
195,195,9.97,-4.46,-1.34,8.69,-0.0123,-0.00489,0.0549,-0.0878,-0.0175,0.0102,9970000000.0,-4.40524037179922,-1.3519868391819791,8.694374261687818,-0.006701329335773139,-0.003105319000593357,0.04937371241422248,-0.04476285858677236,-0.019760605476388683,0.01627477175775159,,,,,,,,,
196,196,10.0,-4.38,-1.33,8.71,-0.0166,-0.0055,0.05,0.0493,-0.0463,0.0505,10000000000.0,-4.389098603105482,-1.3378073465956761,8.704041460090632,-0.013294588542852254,-0.004685472733831837,0.04979553621949942,0.010897508402167466,-0.03682709422440905,0.036916170159993225,,,,,,,,,
197,197,10.1,-4.25,-1.3,8.75,-0.0111,0.00367,0.0244,0.108,0.0149,0.063,10100000000.0,-4.300141606943466,-1.3134250009191664,8.732474627861134,-0.011832827312607907,0.0008279679330601385,0.03269088745573871,0.06835653687415602,-0.003563342861893755,0.05264745215547269,,,,,,,,,
198,198,10.1,-4.25,-1.3,8.75,0.000535,0.0116,0.00481,0.0181,-0.0319,0.0157,10100000000.0,-4.268074809457048,-1.3047670602702959,8.743317049035687,-0.0035949238407932908,0.007935998885026779,0.013912280973444309,0.03861794212147944,-0.02178558265487016,0.030364268313682764,,,,,,,,,
199,199,10.2,-4.34,-1.34,8.7,-0.000687,0.00489,0.0128,-0.0395,-0.0448,0.0239,10200000000.0,-4.314072844879373,-1.3274891374171498,8.716517974300503,-0.0016580277828259465,0.00592606662298462,0.013163126460971824,-0.007607246971325505,-0.036585289019828895,0.026465637688647438,,,,,,,,,
200,200,10.2,-4.43,-1.35,8.68,-0.00557,-0.00244,0.0225,-0.0758,-0.0159,0.0222,10200000000.0,-4.388211017315499,-1.3420066206966326,8.693925589623825,-0.0042636956181156425,0.00040563550910244304,0.01945178890101379,-0.04795934559921988,-0.02328335717144893,0.02389301110752668,0.2739758671732065,1.9432444813702308,0.03516975396370019,2.9311839126137476,3.0514405679596477,2.789541326583035,2.2965194962658835,3.102244788338266,2.6489108810109068
201,201,10.3,-4.43,-1.35,8.68,-0.00619,-0.007940000000000001,0.0195,-0.0684,0.0197,-0.00925,10300000000.0,-4.414935995272182,-1.3471616418858294,8.68531043453526,-0.005546759328082183,-0.00510131391415907,0.019484260780087054,-0.06005481568742915,0.004357625446443459,0.0039043039762868756,0.2726208154208306,1.9345621327824323,0.034097150818592444,2.979640382853056,3.073021493452739,2.8005207041293496,2.269732300891389,3.0209094039810522,2.6160740574813093
202,202,10.3,-4.39,-1.27,8.72,-0.0111,-0.00367,0.0097,-0.0088,0.00512,0.0385,10300000000.0,-4.39898872432021,-1.297399357910888,8.706771991607456,-0.00924563525569607,-0.004156847388183263,0.01289427053088825,-0.029725502986754613,0.004847879804503523,0.0247691320668494,0.27042392988008807,1.914177101543032,0.033381288109224104,2.9810344306932675,3.192176293567584,2.763203343481207,2.2271252394960572,3.0635003756908894,2.521367354114911
203,203,10.4,-4.37,-1.3,8.72,-0.00374,0.00122,0.007859999999999999,0.0303,-0.0454,0.0284,10400000000.0,-4.380449645128599,-1.2990765058065663,8.714955928153557,-0.005578468012520828,-0.0006088818996145165,0.009503539865608935,0.005793740321193026,-0.02746464514193284,0.026958925834979088,0.263232771808561,1.8919850282506938,0.03208843429973695,2.9473365115090124,3.228510195921606,2.7058686762246382,2.2060487979090704,3.141618076049944,2.6179805976102197
204,204,10.4,-4.33,-1.35,8.7,-0.000687,-0.00122,0.00725,0.0184,-0.00686,0.0117,10400000000.0,-4.348185800814097,-1.3319175635802103,8.705703026769209,-0.002320382306057334,-0.0010121341586118435,0.007985713646197375,0.01325331653240404,-0.014214571796889978,0.017756195162427157,0.2539609980623616,1.8622769964671022,0.03196483943652496,2.9102973342956076,3.20128610466646,2.7222612071667527,2.246425529404235,3.066373270792148,2.646799959862673
205,205,10.5,-4.36,-1.33,8.71,-0.0013,0.000611,0.007859999999999999,-0.000746,-0.0216,0.0236,10500000000.0,-4.355741358707665,-1.3306809363917005,8.708361458600521,-0.00164073092505394,5.890683860784989e-05,0.007901041934237761,0.0049694188753476145,-0.018963863644037987,0.02128062208861701,0.24510001695293804,1.812910921080899,0.032587057776551055,2.854586936629794,3.12974822606869,2.813965872469501,2.2056017362539837,3.20094008389905,2.7508937242349063
206,206,10.5,-4.34,-1.35,8.72,0.00115,0.00122,0.00848,0.0211,-0.0030800000000000003,0.00933,10500000000.0,-4.345674468162975,-1.343139998364697,8.715562039675177,0.0002181058461093509,0.0008250655376982551,0.008290987607799779,0.014514461974565912,-0.008749547478649283,0.014073145152134658,0.24028605875399586,1.7606665484985167,0.033281007767896706,2.8412588842244584,3.093116848924041,2.8824283869449294,2.24003990314861,3.018268798770659,2.7076022975528518
207,207,10.6,-4.34,-1.31,8.7,0.00298,0.00305,0.00298,0.0357,0.0162,0.0235,10600000000.0,-4.342045603044523,-1.3217676634969524,8.705934155303645,0.002057735212188288,0.0022932103337838772,0.0047138796732836144,0.02705070512044528,0.0072945696907438145,0.019758525498218514,0.23544162484267162,1.7065635130780903,0.033454484688015734,2.811369275274242,3.097930826183018,2.902772222406566,2.2789049501658645,3.1074456054703763,2.749343836979626
208,208,10.6,-4.36,-1.29,8.74,0.00298,0.000611,-0.00496,-0.0259,0.000321,0.026000000000000002,10600000000.0,-4.353527969239738,-1.301280372648331,8.727009528271754,0.002672033017631387,0.001183187337263583,-0.0018017658456691745,-0.004282126569769104,0.0028101289438292702,0.023522788671304848,0.23351368231968217,1.64455687405457,0.03349330828451054,2.85641566004284,3.1080734497640488,2.9178072350318414,2.366450087422971,3.2791985327679436,2.693072916025264
209,209,10.7,-4.36,-1.29,8.74,0.00176,0.000611,-0.00435,-0.00881,-0.0072099999999999985,0.00692,10700000000.0,-4.35766707832989,-1.2940055291785169,8.73504620121567,0.0020645504210777908,0.0008056239060030094,-0.0035180773280396012,-0.006961431409811539,-0.003633439601631393,0.013509568188963405,0.22934927581065195,1.5563276647025976,0.0324335456917826,2.9662147963161045,3.107225452227759,2.909225140435487,2.384736585181245,3.304547421716376,2.601656198387459
210,210,10.7,-4.35,-1.31,8.72,0.000535,0.0,-0.00924,-0.00451,0.00592,0.00446,10700000000.0,-4.352763731165081,-1.3043204775833537,8.725737733804769,0.0010457547657965294,0.0002740250672369569,-0.007371962029204393,-0.0055108314556043675,0.00251001852815498,0.008051730709798099,0.2207171459459417,1.481925602191247,0.032551668812837074,2.9029902440421353,3.0803718395307462,2.874686541070817,2.317649417981878,3.150770927262881,2.696084801420026
211,211,10.8,-4.36,-1.3,8.69,0.00115,0.00122,-0.00863,0.031,-0.00189,0.0189,10800000000.0,-4.3573915894012085,-1.3015341300295578,8.703627612072346,0.0011151899515676447,0.0008982358925310049,-0.008219288030707754,0.016093936660926324,-0.0003194680978842053,0.014594373061234112,0.2143036569910262,1.4110940354799906,0.03285415706978969,2.8934662407486225,2.9345864656116425,2.780452790490314,2.3884881090993892,3.3543512444030483,2.847454012259758
212,212,10.8,-4.33,-1.29,8.7,0.00237,0.0055,-0.0068,0.0329,0.00147,0.0332,10800000000.0,-4.339873941878413,-1.294095636027752,8.701383199476577,0.00195098777207988,0.003934755069450514,-0.007263355418854474,0.026038688177231185,0.0008312716361361288,0.025815514524890164,0.21116331096266067,1.3396073605496175,0.03346216248517871,2.92105917753056,2.9848878941859263,2.785212673806846,2.405437916253007,3.241429524900137,2.8191420327459413
213,213,10.9,-4.33,-1.29,8.7,-0.000687,0.00489,-0.00435,-0.0138,-0.00972,0.0123,10900000000.0,-4.333559263103415,-1.2914542970672165,8.700527337518135,0.00019388945430256916,0.004565082797374747,-0.005301123995039573,0.0024647076810261933,-0.005953855137948565,0.017664243422227964,0.20524036194934486,1.2477753601244732,0.03323759968893755,2.9573993842063113,3.0236026591010776,2.7986251486797404,2.4162285880720997,3.205129130178675,2.836754786475772
214,214,10.9,-4.41,-1.31,8.68,0.0042,-0.000611,-0.00374,-0.0339,0.0101,0.00355,10900000000.0,-4.382444906906857,-1.3034145591580226,8.687827879363644,0.002862260374038645,0.0011495937810632128,-0.0042496606339367925,-0.019053594148924432,0.004369775878782298,0.00915187634265853,0.1952494065191043,1.1691698389302771,0.03302809859212136,3.032002457965155,2.9613026608574136,2.7974107542239444,2.432969390245906,3.2208229931338774,2.940275140687131
215,215,11.0,-4.4,-1.3,8.69,0.000535,0.00428,-0.0068,0.0041600000000000005,-0.00233,0.0489,11000000000.0,-4.393671884012633,-1.3012124469534792,8.689171445533523,0.0013121298751091427,0.003215223034522337,-0.005967390058550735,-0.00531727793951052,6.140161918028691e-05,0.03312415853450325,0.1846043383205413,1.1214025334718467,0.03308941678063487,3.0280343863494754,2.9239670119619374,2.6783745493613873,2.418622743627888,3.2491291065291175,2.8987742983524427
216,216,11.0,-4.4,-1.27,8.74,-7.64e-05,-0.00122,-0.0068,0.0134,-0.0172,0.0203,11000000000.0,-4.3977189316510215,-1.2810832327986539,8.720617403383615,0.0003872645137347995,0.00028859761447697004,-0.0065281776615597606,0.005758406460430736,-0.011038757813788444,0.025389848296741572,0.17227629584668547,1.0379855827425772,0.033333396029815075,2.9566096109712467,3.1545936991310493,2.5942543292311875,2.38512557303206,3.3926779110645837,2.9618064949760754
217,217,11.1,-4.38,-1.35,8.7,0.00603,0.00183,-0.0068,-0.0168,-0.0367,0.0158,11100000000.0,-4.386387309913891,-1.3255283222886511,8.707861917379255,0.004145750750341657,0.0013057070787514725,-0.006711258146287025,-0.007590211334531795,-0.027540538285283973,0.019606164883807536,0.15352914578161306,0.9776642794104464,0.033417765797547176,3.066078375158911,3.064914881618064,2.6214791270375266,2.3884832475131486,3.2238645550399876,2.9343409280492585
218,218,11.1,-4.38,-1.25,8.71,0.00542,-0.000611,-0.00924,-0.0339,0.0247,-0.0108,11100000000.0,-4.382302540473436,-1.2768193938499484,8.709184708456213,0.004994496502155953,4.0949109782925566e-05,-0.00841444065906301,-0.02315865696796701,0.006053390341887215,0.0012680625825898654,0.13798061946780613,0.961506628633998,0.03341232171640136,3.1221412228211647,3.0119143819505645,2.6198551507692103,2.356150667817736,3.2301855458323105,3.0479302438727953
219,219,11.2,-4.4,-1.28,8.67,0.00359,-0.00305,-0.000687,0.0107,-0.0045,0.0222,11200000000.0,-4.3936205644336646,-1.2788705783471872,8.684942353879842,0.00405899622888905,-0.0019986439483577058,-0.0032097796961384987,-0.0031232750486931762,-0.0007330984858047321,0.0138922129559452,0.13381646622249224,0.9113925965251096,0.0336270682006095,3.218280619580369,2.9807395721379155,2.6403318702681307,2.4899632716541746,3.243922621583171,3.03275922396771
220,220,11.2,-4.32,-1.3,8.72,0.00237,-0.000611,0.000535,0.0402,0.0488,0.0188,11200000000.0,-4.346538502852326,-1.292497111195117,8.706631631394185,0.0029339975941412677,-0.0010829934714029882,-0.0006875592694678564,0.022512659836703343,0.03111977612263597,0.01685212241601286,0.1304416170439572,0.8425008417264561,0.03353459145887892,3.1210051291903205,3.045301864102081,2.676050783645437,2.547373687621613,3.4925636562089024,3.0175529530144427
221,221,11.3,-4.32,-1.3,8.72,-0.00435,0.00367,0.00237,0.0182,0.0629,0.0253,11300000000.0,-4.32956658384528,-1.2973357643014471,8.714902404586969,-0.0019176928491255359,0.0020533159084007825,0.0013717976978127665,0.019960704782421058,0.0515564440223122,0.02194707733762241,0.13011322165031583,0.7439743710541992,0.032734076402100916,2.999843676803398,3.1277327025848853,2.6936478111314153,2.572810989035267,3.582113262195196,2.8963793735236028
222,222,11.3,-4.35,-1.3,8.71,-0.00313,0.00305,-0.000687,0.00715,0.025,0.0163,11300000000.0,-4.342634197741257,-1.299053924316521,8.711869457767166,-0.002725180674799653,0.0027109876463830397,-1.4863737904407873e-05,0.012380151289747995,0.03447899254917588,0.01854129838552237,0.130030909173479,0.6405158795211149,0.03188503781852253,3.238491144756675,3.198771331363452,2.723718920533991,2.5617741780038674,3.4002004576041664,2.89678039513342
223,223,11.4,-4.35,-1.28,8.7,-0.00435,0.00733,-0.00191,-0.00542,0.0233,0.0388,11400000000.0,-4.3473447494292845,-1.2867658501019694,8.704526062874713,-0.003807432627867747,0.005758888224451241,-0.0012912943318707465,0.0018471634799771038,0.02729020201553654,0.030759418022749688,0.12939949763333142,0.5373315916753684,0.03204247178678605,3.5382463857224655,3.079233062958086,2.786436814391867,2.5596252973321825,3.248648676284648,3.0420147062724596
224,224,11.4,-4.4,-1.3,8.71,-0.00557,0.00611,0.00359,0.00469,-0.008440000000000001,0.00464,11400000000.0,-4.381019145159753,-1.2953006476212887,8.707912646904465,-0.004981435127858435,0.005990572747051904,0.0019964025457121226,0.0035293717207111578,0.004313451092896117,0.015006673201135204,0.12615629856390656,0.49913091624759615,0.03230118807392739,3.2196053753059464,3.011940286560852,2.820456783795513,2.6127696545561667,3.325132413282877,3.03959835196883
225,225,11.5,-4.4,-1.3,8.71,-0.00496,0.000611,0.0121,-0.0571,-0.0106,0.03,11500000000.0,-4.393157932157459,-1.298331273605875,8.709204053148396,-0.0049671577529052675,0.002440808885414842,0.008801475684806048,-0.0323472029900559,-0.005276828967796462,0.024049219240532004,0.12108992406601735,0.49307435107160763,0.03140084859069541,3.438085228446102,3.2013419269606405,3.234598918206102,2.565570139855199,3.4760848303776894,2.9221371673077976
226,226,11.5,-4.42,-1.29,8.69,-0.00435,-0.00428,0.0201,-0.121,-0.00823,0.012,11500000000.0,-4.410324147055526,-1.2929583319639426,8.697322822866694,-0.004556084298866846,-0.00199398279480467,0.016411367208832916,-0.0848062420843392,-0.007175902213268289,0.016782278079801847,0.12232481940498971,0.5017877741108517,0.031190394082498605,3.3300606837161677,3.2941743893812303,3.371254544158989,2.757133530960156,3.4562072994509063,2.8854953768788203
227,227,11.6,-4.49,-1.31,8.69,-0.0068,-0.0116,0.0268,-0.0613,-0.0107,0.0225,11600000000.0,-4.4612786787740895,-1.3039486277436485,8.692792152776542,-0.006050701034808258,-0.008332607399878423,0.02340841960924983,-0.07089675460441232,-0.009442117427107728,0.020230663804627357,0.12548455532523425,0.5012459707398585,0.031029997764954506,3.227605881506136,3.390786340873737,3.4289150247764844,2.8390683464869175,3.499848309498898,2.845191352925984
228,228,11.6,-4.36,-1.34,8.71,-0.00191,-0.0134,0.025,0.0414,-0.021,0.0302,11600000000.0,-4.396508544776927,-1.3271985197573548,8.70343815442668,-0.003292682618299493,-0.011676375854478515,0.024480396558071923,-0.004446737165876889,-0.016874557423168117,0.026243218221491074,0.12840792902325487,0.4953247943879618,0.03110212845731847,3.5351894541569,3.2771722185987358,3.012411869745603,3.022276035196421,3.363404760335669,2.741847368918387
229,229,11.7,-4.29,-1.31,8.71,0.00237,-0.00305,0.0164,0.073,-0.0171,0.0228,11700000000.0,-4.3283936723709235,-1.3161069950170292,8.707497794725906,0.00047908995599227344,-0.005984177070257173,0.01903800936592604,0.04138127417163843,-0.017019531561760424,0.024166597227012598,0.1318728824885224,0.4971395571074065,0.03150819843882814,3.4937278279953867,3.2841097917607205,2.6774378262178122,3.189760910441599,3.3749796047889253,2.7814491217653594
230,230,11.7,-4.27,-1.31,8.75,-7.64e-05,0.00183,0.00176,0.0636,-0.0187,0.0394,11700000000.0,-4.291049462797754,-1.3121684993455591,8.73379263210668,0.00010909185374366108,-0.000827915684846278,0.0074007565325176295,0.05452889330944364,-0.01810017763222873,0.033353934703995086,0.1238195262068296,0.5056387171719369,0.030865803454255686,3.436897896558237,3.195164029412488,2.6311771066751084,3.2260749969370623,3.497556050577196,2.7841700281210997
231,231,11.8,-4.3,-1.31,8.73,0.00176,0.0104,-0.0117,0.005679999999999999,0.0168,0.0263,11800000000.0,-4.296773674637214,-1.3107699767332632,8.731445961371165,0.0012087208928659348,0.006580934661329854,-0.005464170488524892,0.025623251162087992,0.00434281539606559,0.029099673272518226,0.12280927085638622,0.5146918572463406,0.031032726362145262,3.357779522090466,3.2355923057342504,2.7368016868562597,3.1785036409415763,3.6064370428829435,2.8672179289025657
232,232,11.8,-4.37,-1.28,8.71,0.000535,0.0104,-0.0172,-0.00571,0.0167,0.00896,11800000000.0,-4.343603647178317,-1.2909261096524252,8.718178013037095,0.0007599720909229931,0.009100982414545216,-0.013368600868706313,0.007082242595020567,0.012289256413259285,0.016953341026915557,0.11468855874590143,0.5457625931143005,0.030942683855294157,3.3165778276311886,3.0686346084685177,2.7129872223036395,3.2815806951272033,3.568911433073017,2.826525230362185
233,233,11.9,-4.37,-1.28,8.71,-0.00191,0.0104,-0.0147,-0.0243,0.0393,0.00855,11900000000.0,-4.360484694319737,-1.2838797398851598,8.713118545688213,-0.0010184301890482212,0.009958151932318441,-0.014265337872727596,-0.011487755679922662,0.02965885010465738,0.011885246458618864,0.12057695645086608,0.5414281215395322,0.031466023031629396,3.3409898272671157,3.0802654783350882,2.672320115826397,3.3130146072494004,3.622093424478863,2.725998656072968
234,234,11.9,-4.4,-1.28,8.7,0.00176,0.00305,-0.00863,-0.0289,0.0148,0.00294,11900000000.0,-4.3857557703827705,-1.2813776405365418,8.705002377629134,0.0008322133586596925,0.0053997400615119215,-0.010469770359610343,-0.021791204732921086,0.020103681691336247,0.006490325950102321,0.12244322163267736,0.5052271359684426,0.02949637839839488,3.504112669965115,2.822203276020165,2.787122346631747,2.933183869996015,3.4177007342134305,3.022911052515485
235,235,12.0,-4.4,-1.29,8.69,0.00115,-0.00367,-0.00252,-0.0847,0.00735,0.0253,12000000000.0,-4.394865368428339,-1.2869382569947643,8.695720597747552,0.001043883187175756,-0.0005850169095934074,-0.005115363805321898,-0.05901659702004119,0.011902268069421249,0.017834529423500726,0.1114133172276204,0.48440985938711834,0.03235913486768315,3.3867590877840006,2.8309738460453535,2.8067331889766596,3.0647003101909585,3.3616312418395804,3.041671921073614
236,236,12.0,-4.42,-1.28,8.69,-0.000687,-0.00183,0.00115,-0.0459,0.0136,0.0134,12000000000.0,-4.410939635611587,-1.2824636910732634,8.692181176198119,-0.00010901523187434552,-0.0014065311936633624,-0.0008954550469335515,-0.05125503519384207,0.012994015824517329,0.01516004346549238,0.11237614172194949,0.43459143934452377,0.027507939840426293,3.245912606862651,2.6881093335193254,2.794026523138134,3.029929627723367,3.485434546747251,2.843415900322622
237,237,12.1,-4.42,-1.28,8.69,-0.000687,-0.00183,0.00481,-0.0173,0.000929,0.0156,12100000000.0,-4.416734011464489,-1.2808748149785758,8.690831488415773,-0.0004939965665824512,-0.0016859612170911295,0.00294733839516437,-0.031162623333175564,0.0052354572821116975,0.01542538308112071,0.1147260836693629,0.42639239423599445,0.0254590425091749,3.181362864681643,2.803021229628225,2.9003925960140315,3.0795356581951148,3.4836016875769005,3.0792484794901682
238,238,12.1,-4.37,-1.27,8.7,0.00115,-0.00244,0.0042,-0.0108,0.0141,0.005529999999999999,12100000000.0,-4.386846382358323,-1.2738615317813102,8.69650365305368,0.0006010288483316415,-0.0021835210751841127,0.003791043116598617,-0.019113328976658364,0.01093591192774936,0.00945743077176682,0.11350023971078316,0.4523179796966478,0.02653677654005432,3.3198163051317113,2.928434664277464,2.943347050375444,3.2252996619286134,3.5810086446364893,3.0650144980291625
239,239,12.2,-4.38,-1.29,8.69,-7.64e-05,-0.00428,0.0042,-0.0211,0.0104,0.0242,12200000000.0,-4.382468024738219,-1.2842693577683888,8.692479778714045,0.0001498102698243391,-0.003566903259225781,0.004066487631666437,-0.020288913204151417,0.010591287113628623,0.018348744057336348,0.10993496737222469,0.44339022423264307,0.023514878039682913,3.3364332980199265,3.060961179590648,3.0659087050804326,3.3628599029525392,3.4107398253986263,3.06012556751344
240,240,12.2,-4.36,-1.3,8.7,0.000535,-0.00305,0.00237,-0.0029100000000000003,-0.00201,0.026000000000000002,12200000000.0,-4.368099252739482,-1.2944141667739877,8.697132195668981,0.0004063756089961411,-0.00322581953318318,0.0029238527118780736,-0.01000518699782283,0.0024878727044373512,0.02296325309818857,0.10196501460349898,0.43077319024412836,0.021811569105188243,3.161902640559486,2.9371137749661345,3.1507890639108083,3.2763370330028883,3.5638644184898083,3.1406242248978486
241,241,12.3,-4.36,-1.29,8.69,0.006640000000000001,-0.00428,-0.00863,0.00648,0.00908,0.0006219999999999999,12300000000.0,-4.3629196657290015,-1.2915674043265564,8.692719460898466,0.004558438303302496,-0.0039214308531885945,-0.004858010528592268,-0.00025031062837815686,0.006727022315955407,0.009489137495297714,0.09991180813496248,0.4140974546263431,0.020556886023386293,3.078402398104872,2.670775543293638,3.2406843717035336,3.4223327266652483,3.4613231687499053,3.211785742888757
242,242,12.3,-4.36,-1.27,8.7,-0.000687,0.00122,-0.00435,0.0363,-0.000332,0.0455,12300000000.0,-4.361052552686811,-1.2776583692630603,8.697223593687399,0.0010645817625828699,-0.0005288072750286307,-0.004515850379712577,0.021377818913990085,0.002187630198185039,0.031207458765459536,0.10175124704762002,0.4256100121450968,0.017133813872227222,3.1566647109139745,2.6271819200173208,3.276198140188485,3.323290314622134,3.49982625685917,3.262836966206926
243,243,12.4,-4.33,-1.3,8.73,-0.00374,0.0055,0.00298,0.07400000000000001,0.0291,0.0333,12400000000.0,-4.341193628618632,-1.292066667199136,8.717501088267662,-0.002135631208132112,0.003449360337458649,0.0005328277135105515,0.052516251297038206,0.01949396496334629,0.032469481008462635,0.09423545586402411,0.38578749523173256,0.017747570559737524,3.315281612942615,2.837326789233648,3.191207476811474,3.4871869743762485,3.5285270464677088,3.483801197770839
244,244,12.4,-4.34,-1.29,8.7,-0.00191,0.00611,0.00115,-0.00379,0.00744,0.0147,12400000000.0,-4.34043037118602,-1.2907338294005846,8.70667357279266,-0.0019853438428755013,0.00520500949625581,0.0009485116091617943,0.019197823014119715,0.01174251273021553,0.02175262291015988,0.08945698188797001,0.3781612150425604,0.01396794989778619,3.078777593091037,3.1637044313397245,3.2386292883458023,3.394779545383404,3.5602285204373647,3.3785828252472188
245,245,12.5,-4.43,-1.31,8.71,-0.00435,0.00122,0.00176,-0.0631,-0.0158,0.0283,12500000000.0,-4.397712253809353,-1.3031587278947026,8.708731556960313,-0.0035603827869502367,0.002575461865640636,0.0014950731686008164,-0.02950075203787727,-0.0059690422419907685,0.02570137727409581,0.08495506901907972,0.3991829765294457,0.012234942422293733,2.937899209667671,3.3452144163915034,3.272198912884791,3.417298782733762,3.653913659557006,3.5228022410583524
246,246,12.5,-4.4,-1.34,8.7,0.00298,-0.00122,-0.00191,-0.0368,-0.0173,0.0188,12500000000.0,-4.399175385056955,-1.326918033781909,8.703329487015614,0.0007960042798714552,7.098912990731324e-05,-0.000798344810042398,-0.033819979324411865,-0.013255555861163316,0.021539123771801685,0.08323462520716174,0.390712442347701,0.01171495616643853,2.859939393389322,3.121531181554276,3.2956802543685355,3.4379234109855594,3.6061137409790924,3.523239826123377
247,247,12.6,-4.4,-1.32,8.7,0.00237,-0.00305,-0.000687,0.00611,0.0323,0.0282,12600000000.0,-4.399702807693028,-1.3224565622792488,8.701269515434973,0.0018444037713744696,-0.0019884261302504642,-0.0007233507660296952,-0.010191978512558552,0.016039510536073,0.025556330106390364,0.08554361482974165,0.3892427624450351,0.011186035873037509,3.010813875238723,2.8512597033477594,3.420532744701349,3.6210447540939503,3.64027232675805,3.614017431677824
248,248,12.6,-4.36,-1.25,8.69,0.00115,-0.00183,0.00237,-0.0114,0.0447,-0.00118,12600000000.0,-4.374311965832083,-1.2757286408845927,8.69429714523525,0.0013818786338056028,-0.001883887070501107,0.001360112837975467,-0.010906808265554766,0.034469995125871636,0.00943152270651586,0.07963293656985065,0.383679238921637,0.011306376954802962,3.188907289447233,2.8584103726149106,3.34896474556505,3.6642724305585417,3.4605659205478903,3.592939192069363
249,249,12.7,-4.36,-1.25,8.69,-7.64e-05,0.000611,0.000535,-0.0215,0.00238,0.039,12700000000.0,-4.365159195177803,-1.259135997360972,8.69163837098609,0.00041055535165556003,-0.00023761136115567108,0.0008043748171771244,-0.01717518016679734,0.013834124509448716,0.02726441196865859,0.07547437033842054,0.3629552677577767,0.010828878389228113,3.164630971238549,2.852501700415292,3.288185467462334,3.6917357744284804,3.5298191412474362,3.604755208960303
250,250,12.7,-4.35,-1.27,8.72,-0.00191,0.000611,-7.64e-05,0.0555,-0.0073700000000000015,0.0128,12700000000.0,-4.355464454031994,-1.2661422829769935,8.70918502390549,-0.0011351090919157984,0.00032235316892155203,0.00021114679975717395,0.02582933082278876,0.00019854859224587536,0.018540856370387063,0.08168596317883657,0.37211706377640663,0.010574915917374876,3.3069177442287754,2.836599909088676,3.3048849118102486,3.505686636958475,3.5031953871673784,3.600464460877965
251,251,12.8,-4.31,-1.3,8.7,0.00298,0.00428,-0.0013,0.00304,-0.0216,0.0417,12800000000.0,-4.326388774890017,-1.287977413732924,8.70350240758669,0.0016058632307720054,0.0029338452567849263,-0.0008066554863688165,0.012344066504045426,-0.013819279632285214,0.032508246730778914,0.07531486046549975,0.35729219317786165,0.0110347122517322,3.3579318082874146,2.91825136949703,3.4060487636894057,3.7972541263579926,3.6570230794249614,3.6436452551192153
252,252,12.8,-4.4,-1.31,8.71,0.00115,0.00305,-0.0105,-0.0513,-0.00939,0.0278,12800000000.0,-4.373465034514453,-1.302179950726548,8.707522296386369,0.0013022240396230614,0.003010491064910168,-0.007335411025261148,-0.025316410447652947,-0.010970976424122592,0.029668680418457025,0.07066245272406581,0.3487454076273537,0.010014451751568306,3.35269225089344,2.9290584279359644,3.100206931487037,3.6537469171663592,3.414775331012805,3.648016400005333
253,253,12.9,-4.4,-1.28,8.71,-0.000687,0.00122,-0.008020000000000001,-0.0291,0.0141,0.026000000000000002,12900000000.0,-4.390434862059503,-1.2878758725536197,8.709055200767367,-2.2748823193919236e-05,0.001829017952766004,-0.007796501778236869,-0.02755529659035316,0.005151227037760525,0.02745608219621952,0.06844735148349768,0.3529149317393212,0.009823723285196062,3.309547198823489,3.0897485535614178,3.1089959933119484,3.460012817024938,3.4851111178342937,3.6451638597813862
254,254,12.9,-4.35,-1.28,8.69,0.00298,-0.000611,-0.00619,0.0187,0.0393,0.0141,12900000000.0,-4.364575706954176,-1.2827966295020647,8.697266060981383,0.001977307873121026,0.00021894816910717431,-0.006714475151009152,-0.0001843787330289906,0.02711101932206761,0.019400965889123392,0.0710158660184103,0.33539977632374385,0.009555217709111025,3.4058000182080557,2.9235373534758864,3.202731406360732,3.5709308295352176,3.6449303789640437,3.6164735493491458
255,255,12.9,-4.35,-1.28,8.69,0.00237,0.000611,-0.00191,-0.0132,0.048,-0.00313,12900000000.0,-4.355254120955226,-1.2809930382699088,8.692770507764205,0.0022388702972279827,0.0004776474136003865,-0.003478518333282559,-0.007886188593595116,0.04054393849153077,0.005812433539046671,0.05975877843000171,0.3339384761705907,0.010011850243714104,3.2815494071335616,2.795044055930831,3.145053111982932,3.442810589976086,3.605649810205211,3.728880106693509
256,256,13.0,-4.37,-1.27,8.67,-0.00374,0.0,0.00603,-0.0124,0.0414,0.0185,13000000000.0,-4.364684402036312,-1.273903511755397,8.678683125974501,-0.001743507184080991,0.0001624670812920434,0.002925751250459402,-0.010557172899258177,0.041094439785970015,0.013464365140157015,0.06199441043112181,0.32019358313024077,0.008993574877288902,3.2251608408658448,2.92445588433037,3.0950213518121603,3.6085548629307582,3.552382225072207,3.7881975054058725
257,257,13.1,-4.37,-1.27,8.67,-0.00496,0.00122,0.00359,-0.0259,0.026000000000000002,0.0164,13100000000.0,-4.368083785184509,-1.271386087853464,8.673311184028266,-0.003885933422221245,0.0008602905381645468,0.003373142589870255,-0.01963607437610118,0.03138777283924099,0.015234860484247553,0.05176865442758727,0.3246976394996938,0.00669433570030948,3.354847768101211,2.9743584287598006,2.950568197944478,3.6751000768055206,3.5479273524239248,3.8411185916478106
258,258,13.1,-4.39,-1.26,8.7,-0.00496,0.00305,0.0042,-0.0126,0.0144,0.0172,13100000000.0,-4.382099661093116,-1.2640430861003449,8.689822634575226,-0.004601342602288008,0.002305191772081913,0.0039300555304739694,-0.015472576831915344,0.020463574013942488,0.01642004579102586,0.04721019022636604,0.32078536007302577,0.006060756320174405,3.4103290895598724,3.018338910512645,3.1207995448799797,3.79422310117776,3.5424438735974006,3.7625119868542747
259,259,13.2,-4.38,-1.28,8.7,-0.00496,0.00244,0.007859999999999999,0.00566,0.022000000000000002,0.0204,13200000000.0,-4.380756949093774,-1.274333832142562,8.696118946772232,-0.004840235445277122,0.002394146272875173,0.006576990101189732,-0.00296767333375606,0.021451591782028923,0.018820375478896482,0.03291645428664632,0.3219652512560686,0.004869159946053848,3.2995195841099925,2.847264923522658,3.107981082512799,3.5432907659426554,3.4005545289500176,3.722785129780505
260,260,13.2,-4.39,-1.3,8.71,-0.00924,-0.00244,0.0146,-0.0592,-0.008790000000000001,0.0239,13200000000.0,-4.386668023314459,-1.2908861554692093,8.70470676093417,-0.007770809369490147,-0.0007957125445024893,0.011980725958720859,-0.03624235777908424,0.0020043597363388,0.02188392132751905,0.0246857908044765,0.3363309060003105,0.004041883438695429,3.326628850138246,3.1669399691163593,3.184799418220498,3.7715873164023965,3.42151813458825,3.723920657721326
261,261,13.3,-4.39,-1.3,8.71,-0.00252,-0.00428,0.0213,-0.0398,-0.0472,0.00964,13300000000.0,-4.3887988194085255,-1.2967637291392886,8.707981552503794,-0.004273375353801728,-0.003094853804016797,0.018257533477821258,-0.03834754194637637,-0.029637117077301225,0.014499554249559982,0.01574361797380551,0.2624884399118812,0.00331721378362313,3.2143851291353087,3.4066468266404275,3.1730910063534776,3.7345192732274453,3.402266312817756,3.7019009529740496
262,262,13.3,-4.39,-1.32,8.68,-0.00252,-0.00611,0.0213,0.0103,0.0378,0.0258,13300000000.0,-4.389566918712473,-1.311749053519938,8.690670395507201,-0.0031054955188006307,-0.005084427577151263,0.02030672457436223,-0.009561046537889663,0.013729159465543574,0.021314907161418054,0.01706618751123427,0.24704253362516462,0.002506378368866198,3.1957665338449126,3.620831893515907,3.1552966296957323,3.6840691875078524,3.400015036330322,3.6715831313208565
263,263,13.4,-4.36,-1.25,8.71,-0.00313,-0.00367,0.0176,0.0195,-0.0226,0.00839,13400000000.0,-4.37065822848362,-1.2719265056607991,8.702629064629509,-0.00312181740322724,-0.004151103666330584,0.018483665060385627,0.007635417197616993,-0.0096327589592959,0.013519834457203514,0.016409208570037265,0.2502147695365231,0.00251157899515487,3.0516723582924863,3.6018958271784274,3.051806997605016,3.6026887384942516,3.2998783330333974,3.733727209469691
264,264,13.4,-4.33,-1.32,8.69,-7.64e-05,0.00183,0.0097,0.0472,-0.0415,0.0387,13400000000.0,-4.344656237224879,-1.3029295900600846,8.694815582192176,-0.0010933402932747703,-0.00020441375172540902,0.012567605767979757,0.03104720085826204,-0.030125383749647936,0.028706111290855037,0.014514247028904342,0.24759540681052442,0.002494790179693804,3.031623182469432,2.86132085216774,3.0423305522684023,3.698189699704172,3.345718163359981,3.793034906409559
265,265,13.5,-4.33,-1.32,8.69,0.000535,0.000611,0.000535,0.0461,-0.006409999999999999,0.0284,13500000000.0,-4.335283162324517,-1.313938492493928,8.691836066574734,-8.743151787093601e-06,0.00033364501005045687,0.0044632881511966855,0.039954483026671365,-0.014874911135427812,0.028521494232157312,0.014839743124326203,0.24961376128041537,0.0024607795157079258,3.137660564224927,3.0479503939256207,3.2183314997678965,3.6234939012153466,3.5771899131892804,3.7464274168630003
266,266,13.5,-4.34,-1.29,8.69,0.0042,0.00367,-0.0105,0.000233,0.00807,0.0115,13500000000.0,-4.338299794234451,-1.2985003079747608,8.690699887747204,0.002794596328482876,0.0025351715884993453,-0.005614931060165817,0.016449856926528755,-0.0001199002884389663,0.0182557504115888,0.014649771736902278,0.2474660267285526,0.0024456854160951427,3.412307449389829,2.5376929401939754,3.397153551353192,3.753555984186138,3.5454160454522725,3.7090360702902414
267,267,13.6,-4.37,-1.28,8.7,-0.00191,0.0055,-0.0147,0.01,0.0383,0.0214,13600000000.0,-4.35857278648127,-1.286569266168135,8.696453469764677,-0.0003390187667907099,0.004491542685617186,-0.011733995133790632,0.012633245129709442,0.0245864946517314,0.02015206278135959,0.016720582892285903,0.24888877730258005,0.0024245259358972953,2.722455198309655,2.705713940445815,3.8547220666567488,3.6321191209302963,3.3538001459636155,3.7959323405395224
268,268,13.6,-4.38,-1.25,8.72,-0.00557,0.00672,-0.0123,-0.01,0.0512,0.00111,13600000000.0,-4.372276092542678,-1.2629854010051826,8.711021165744343,-0.0038232458411928366,0.005962012073851104,-0.012115215960915231,-0.000759657612121779,0.041700639528223206,0.008667704452194617,0.013356756190751117,0.30578005425614957,0.0024295773298451157,2.899355208251417,2.7830955194760656,3.6456237159660936,3.487783333282862,3.9306547288038662,3.7199156303782197
269,269,13.7,-4.42,-1.29,8.7,-0.00374,0.00244,-0.00619,-0.0462,0.00222,0.0147,13700000000.0,-4.402796760217378,-1.2804073464591248,8.704202583638606,-0.0037677978965686243,0.0036379778195795845,-0.008124406971400246,-0.02764833775171129,0.016312123048301597,0.012305810588483106,0.013379836079818835,0.2142191591357342,0.002340974286693386,2.961753700099471,2.687307594406672,2.870759682961589,3.448088318594825,3.7202158626034163,3.7203986968413187
270,270,13.7,-4.43,-1.34,8.69,0.00176,-0.00244,-0.00252,-0.0404,-0.0198,0.00591,13700000000.0,-4.420193794928228,-1.3188392331298942,8.695415612268333,-8.586860949553717e-05,-0.0003726354477612075,-0.0043496723676526225,-0.03519395270534605,-0.0069102268736210845,0.00844846681264565,0.01301290022861872,0.18945953729886159,0.0023939031107068345,2.7968736069523943,2.6839293098572936,3.4228640446951237,3.4587785149524843,3.4599980881436356,3.774914910319014
271,271,13.8,-4.41,-1.32,8.69,0.00603,-0.00916,0.00237,-0.00578,0.000515,0.000299,13800000000.0,-4.413674513427036,-1.3195878564751722,8.692064876071294,0.003987759882919091,-0.006171064098631157,0.000176226616097991,-0.01778866183805097,-0.0021353423427113924,0.0035334847626831687,0.012006253537703664,0.19825829193743516,0.002351024974769975,2.716241517828365,2.8300502145798276,2.921983990279952,3.634792680820854,3.515415730370247,3.7495910758187874
272,272,13.8,-4.37,-1.3,8.68,0.00542,-0.00611,0.00176,-0.00387,0.0092,0.0151,13800000000.0,-4.385743508967697,-1.3069554320676355,8.684600888550634,0.0049417394387347505,-0.0061307703265849785,0.0012429450721182008,-0.009552490382117652,0.005153990703090225,0.010509305171538924,0.012011879709023607,0.16020735587834983,0.0023555632051582205,2.691238949374483,2.8460319411903683,2.809344479302966,3.6582199671468563,3.3594560906138167,3.7690425129736327
273,273,13.9,-4.37,-1.3,8.68,0.00237,-0.00305,-0.0013,-0.0344,0.0238,0.0282,13900000000.0,-4.375675072507021,-1.3024697774787433,8.681754645845855,0.003228767413854366,-0.004097893760728631,-0.0004698040174151207,-0.024255653658729587,0.017144539305890927,0.0211786473728138,0.01243933968235147,0.15288486887910463,0.0023182744682644398,2.6906506963208385,2.873790775429676,2.722804014533486,3.7860888018467125,3.2559918591415697,3.7882773182584986
274,274,13.9,-4.35,-1.25,8.68,-0.00191,0.00122,-0.00313,0.0385,0.0322,0.0514,13900000000.0,-4.35925516778422,-1.2686315223849878,8.680669287984243,-0.0001940382887398329,-0.0005888294016601447,-0.0022615251346868193,0.012879117190124405,0.026826141366556443,0.03940528737233625,0.012820164584083462,0.15311455887722808,0.0023763829279828865,2.790155447387883,2.7170673549121043,2.700515059512484,3.5589507285866975,3.3003619497173595,3.702984080750363
275,275,14.0,-4.33,-1.26,8.74,-0.00863,0.00489,-0.00313,0.0167,0.04,0.0346,14000000000.0,-4.340545715804988,-1.263064965920445,8.717375275254039,-0.00581302349680248,0.0030264299227373325,-0.00284646882617727,0.015140070328973196,0.035297754479556825,0.036507196286126926,0.012668763628121624,0.15475797487665605,0.002286706530497489,2.8643978890951267,2.8081945418835876,2.7219186693577333,3.798064661652521,3.3957996027003117,3.758128860651593
276,276,14.0,-4.35,-1.3,8.71,-0.00191,0.007940000000000001,-0.0013,0.0101,-0.00242,0.00181,14000000000.0,-4.346591903332927,-1.2868846875126154,8.712812437652453,-0.0032133162020570355,0.0062686972970424715,-0.001804876110188012,0.012157679722750269,0.011042883199875723,0.015581152807764141,0.012737258648274637,0.1544274351316827,0.002212663460341349,2.9584679262686215,2.8693246686969918,2.7541034489839222,3.828761721576937,3.2990133148501926,3.751156878253037
277,277,14.1,-4.35,-1.3,8.71,-0.00313,0.0055,-0.00313,-0.0252,0.0107,-0.0133,14100000000.0,-4.348771404433326,-1.2953428456633431,8.711072490579838,-0.003157821399644713,0.005761464823839603,-0.002697386492140493,-0.00994819920446658,0.010822388181832572,-0.0018372071690153575,0.012129079331163223,0.15356881169327027,0.002212964270914964,3.0482043738952207,2.8410575078077267,2.7623720823731133,3.679717266312908,3.3106734321314266,3.8002913431076744
278,278,14.1,-4.43,-1.28,8.7,-0.00313,0.00244,-7.64e-05,-0.0492,-0.0164,0.00248,14100000000.0,-4.400718990047183,-1.2854480811248257,8.704222155340489,-0.0031392903107395342,0.003569763640160256,-0.0009320741888471992,-0.033174896523475286,-0.006683307259284215,0.0007665209481713398,0.01213755139797137,0.1515991272691723,0.0022112681946418107,3.070892336909025,2.9852370405385913,2.73978969699206,3.7523182820582672,3.3782558858918974,3.699933636188464
279,279,14.2,-4.42,-1.31,8.68,0.00115,-0.00305,-0.000687,-0.0196,-0.016,-0.00419,14200000000.0,-4.413049721463316,-1.3012818086079552,8.689236824413893,-0.0002823002459693721,-0.000798352308861861,-0.0007670094335225021,-0.025142143530717302,-0.012674522922273073,-0.0022227801877329643,0.011569631717534739,0.1510592110052436,0.002215170420468277,3.061882214962482,2.948185476449267,2.6878254389152403,3.7824508893003377,3.3786273294777978,3.764521939305601
280,280,14.2,-4.41,-1.31,8.68,0.00298,-0.00428,0.00115,-0.03,-0.00952,0.0145,14200000000.0,-4.411099251593664,-1.3069042156814217,8.683522467481957,0.0018906372250271466,-0.0030957516939635536,0.0005241534142437663,-0.02801671103157257,-0.010645967613721972,0.007862807538921972,0.010927917636843053,0.14594513742358672,0.002211814441649283,3.028375902082013,2.9472691297254405,2.675390319923543,3.527547698401141,3.373820294933355,3.6787372940016625
281,281,14.3,-4.38,-1.31,8.7,0.00542,-0.00367,0.000535,-0.007909999999999999,-0.0184,0.0133,14300000000.0,-4.391210584399494,-1.3089006793273603,8.693716503764593,0.0042414582460976345,-0.003474675076584898,0.0005314589116044714,-0.016118849091196825,-0.015632294868857102,0.011142003932753292,0.011043409942595863,0.14095533556490503,0.002221488903820677,2.9688869515562164,2.9937806120167414,2.6212211736043454,3.619962784732033,3.340730073587307,3.6443235334801747
282,282,14.3,-4.35,-1.25,8.69,0.000535,-0.00183,-0.00252,0.0123,0.0319,0.0314,14300000000.0,-4.36485533567654,-1.2709150748890308,8.691416954947359,0.0017726782016905273,-0.0023894200672449108,-0.0015237894253558356,0.0006976029050766372,0.014933938576502756,0.02335969664554146,0.011295342780386032,0.13927993174133468,0.0022600118802134452,2.9291939953514254,2.899293486842559,2.5317047272077335,3.6705989542598707,3.4230637601306184,3.6964161354147733
283,283,14.4,-4.36,-1.26,8.72,-0.00435,0.00305,0.00176,0.0246,0.00101,0.0268,14400000000.0,-4.3617503138397975,-1.2638758338455778,8.709100591317252,-0.0023054861554052484,0.0011998345942319144,0.0006879403622361153,0.014841508034860354,0.005979976654207552,0.025434559405682792,0.010945291249862455,0.136374570655975,0.0022416684944057577,2.920056132995618,2.9610971965148654,2.5107866264642396,3.656823554320519,3.4135793387803135,3.7203048746944143
284,284,14.4,-4.35,-1.25,8.7,-0.007409999999999998,0.00611,0.00298,0.035,0.0259,0.0178,14400000000.0,-4.354235636600682,-1.2549271775358488,8.70347021090393,-0.005705476461527466,0.004439855385949818,0.002231710724374635,0.026770010793779282,0.01878979594250489,0.02083012018651776,0.010785982633069659,0.13334927430969018,0.002205004786278971,2.924688009624976,2.8779743932930377,2.548296720608388,3.763936639382689,3.34123304995251,3.722501918768326
285,285,14.5,-4.35,-1.25,8.7,-7.64e-05,0.000611,0.00603,0.0105,0.0017399999999999998,0.0091,14500000000.0,-4.3515267812705885,-1.2517495942038477,8.701323177681783,-0.001956088039528627,0.001913347589920553,0.004789971319109479,0.01714246180693784,0.00782571253387142,0.013755629340096269,0.01113223981858563,0.13194512396618877,0.002201971228236157,2.9705852636364765,2.9547503456722355,2.5679607182213435,3.7014478603540226,3.4134105934760073,3.6826466597936465
286,286,14.5,-4.36,-1.29,8.69,0.00115,0.00122,-0.00313,-0.0532,0.0128,0.0406,14500000000.0,-4.356945699550169,-1.2764176175905912,8.694317608262294,0.00011280029547793306,0.0014558353643864892,-0.0005443648176604388,-0.02448169507263689,0.011024489765281769,0.02994559758986017,0.011274793045317666,0.12991764505442946,0.0022252045466653373,2.9628636697953215,2.908955431785972,2.6055913598227303,3.5995049276653015,3.3629379619195614,3.7147708841296208
287,287,14.6,-4.43,-1.28,8.72,-0.000687,0.0,-0.00496,-0.0268,0.0274,0.0191,14600000000.0,-4.403665621311898,-1.2787279113924246,8.710206697579338,-0.00041992686853444704,0.0004951881152474853,-0.003518426387113097,-0.025853518756360418,0.021554965360036128,0.02340456581663029,0.01115381822841225,0.1268374453506563,0.002222209064751104,2.958265039586615,2.8026492420450784,2.633703840558222,3.5864166270191338,3.2705867812897096,3.6375295981359677
288,288,14.6,-4.4,-1.32,8.69,0.00176,-0.00428,-0.00191,0.0154,-0.0249,-0.005229999999999999,14600000000.0,-4.4013214268333485,-1.3053447049934288,8.697705161313692,0.001032068439863176,-0.002655766610292314,-0.002435103404410368,-0.0014423322192722438,-0.008318478401759567,0.006134923611693155,0.01079344038579301,0.12176480174752834,0.0022084043423614068,2.9747152698632062,2.8397043004327744,2.638710195478642,3.6075033092622872,3.226959812487936,3.578586904245138
289,289,14.7,-4.4,-1.28,8.72,0.000535,-0.00244,-0.000687,-0.0242,0.0129,0.0419,14700000000.0,-4.400476402688475,-1.2889996469014384,8.711498473340338,0.0007009834619052725,-0.0025133908644226237,-0.0012577037995677488,-0.014908860360740529,0.0053263283916504395,0.027705011551817163,0.010944823606033782,0.1174663696367919,0.002237614156471412,2.97642867846983,2.8924666120662774,2.596174898268519,3.4482530837276006,3.466106289161955,3.652868182916767
290,290,14.7,-4.42,-1.32,8.69,0.00237,-0.00977,0.00542,0.00229,-0.00952,0.0311,14700000000.0,-4.412962274718932,-1.3089921012520922,8.698197754224088,0.0018126739669778109,-0.007301735834084195,0.003239928066549776,-0.00473167787099326,-0.0042207876827089815,0.029752544765314425,0.010885593424918924,0.1190871586259787,0.002244549232578093,2.97353481747849,3.047050524322954,2.580891617957167,3.6568994259132745,3.506485748167279,3.713382251791338
291,291,14.8,-4.37,-1.3,8.72,0.0042,-0.00428,-0.0013,-0.01,-0.00916,0.0222,14800000000.0,-4.385486764524876,-1.3031929794690014,8.71168631381753,0.0034028126135048024,-0.005307813792031572,0.0001821515762015871,-0.007849132888394414,-0.007397009546647809,0.025197568950033077,0.011236134218075351,0.1198453158602342,0.00220516797870217,2.98581367414648,3.127446351946417,2.6328706606556174,3.5520525231005986,3.371926733775521,3.6412777712960716
292,292,14.8,-4.37,-1.29,8.74,0.0042,-0.00183,-0.00374,0.0409,0.0304,0.002,14800000000.0,-4.375582522483875,-1.294684677795212,8.729202999142593,0.003933799288822898,-0.0030129442154385308,-0.002459534133119956,0.02099747707518304,0.016908827998046126,0.01120700524331482,0.011432785525565451,0.12071243130451155,0.002182817337096779,3.017209913426948,3.1636854431288826,2.6401742937773656,3.5680842729324436,3.3500566909178726,3.6130596394583097
293,293,14.9,-4.37,-1.29,8.74,0.00298,0.00367,0.000535,0.0565,0.00296,0.0348,14900000000.0,-4.372012288129213,-1.29166346023511,8.735882637563803,0.0032984972752680658,0.0013968620985552007,-0.00044262639184198486,0.0420055925893671,0.007938860589565012,0.025436052479960333,0.011103240451323455,0.11830831863277795,0.002235535754284379,2.958755090419702,3.087417184401878,2.7176480958029536,3.6862990381090466,3.2898187122028566,3.5944741027082863
294,294,14.9,-4.33,-1.26,8.69,-0.00191,0.00733,0.0042,-0.0149,0.0626,0.0226,14900000000.0,-4.345144342245429,-1.271243389505299,8.707496168689692,-0.0001707537610897954,0.005311901312918378,0.0026843203697273802,0.008332512659412573,0.04308938740582772,0.02372561622638079,0.010919584197567962,0.1187949630978467,0.0022672030511661527,2.8795333004224175,2.9759757490503915,2.71879592690037,3.5078174477212847,3.3241605995586276,3.6090578947667526
295,295,15.0,-4.38,-1.22,8.71,-0.0105,0.00611,0.0134,-0.0076,0.0703,0.00207,15000000000.0,-4.3674354704393386,-1.2381960620503425,8.709045237491589,-0.007050808773276098,0.005838534534712194,0.009901648813728844,-0.0010953265691741425,0.060587509023189774,0.010665011414609307,0.010618077051223156,0.11924805184317787,0.0022018099081612488,2.8755641401312144,3.1312813794136023,2.7417652659629295,3.6742025859127807,3.405269592397163,3.786370476436218
296,296,15.0,-4.38,-1.2,8.67,-0.0202,0.0122,0.0195,-0.0526,0.102,0.0377,15000000000.0,-4.375470870962937,-1.2135630916089053,8.684889169410484,-0.01580915887355458,0.010036209782231423,0.016366423889592734,-0.03157248906117568,0.0872183253249536,0.02696994183952675,0.010917890237952697,0.1191329850929302,0.002191527547193437,2.950083227752144,3.18414110338361,2.745070836746702,3.722462762982965,3.465460398210931,3.857162347972579
297,297,15.1,-4.5,-1.23,8.7,-0.0239,-0.00122,0.0286,-0.117,0.0463,0.0182,15100000000.0,-4.455110328200394,-1.2241634213840673,8.694237668273901,-0.02119826802287749,0.002608689332505499,0.024606100900309538,-0.08212301032581522,0.06090528809447579,0.021680748807646272,0.012057623770539132,0.1211671540069656,0.0022744007600090425,2.9213750461391292,2.8875363785104393,2.726418328241435,3.557593964193111,3.2756192330108806,3.8029338521427656
298,298,15.1,-4.51,-1.27,8.66,-0.0215,-0.0116,0.0378,-0.0706,-0.0434,0.015,15100000000.0,-4.4902137769427934,-1.2537238515773492,8.67305575721712,-0.021399244706508933,-0.006767053634954371,0.03349258349712672,-0.07530443362622465,-0.006169525560924469,0.017651557340353383,0.011261418731361002,0.11942312500837021,0.0021651919437604386,2.92219292236627,2.858088804834092,2.724053191801898,3.5675765566287176,3.2003335078903525,3.681596307730087
299,299,15.2,-4.46,-1.32,8.69,-0.016,-0.0195,0.0439,-0.0153,-0.0551,-0.0208,15200000000.0,-4.470891343891027,-1.2964659995262886,8.683538391515508,-0.01780294203094299,-0.01516901348888934,0.040502289048052205,-0.039797658269531085,-0.03763487678149067,-0.005538759142665253,0.01021610862768073,0.11697957910902038,0.002103100460728436,2.941644529007741,2.941600279156966,2.760447167177309,3.695669113482193,3.3916814315598534,3.6354760135111786
300,300,15.2,-4.37,-1.32,8.67,-0.0166,-0.0153,0.0421,-0.0227,-0.0482,0.0341,15200000000.0,-4.406368761555608,-1.311643332546535,8.675162642660482,-0.017001691963394988,-0.015255446280451182,0.0415783956198932,-0.02968036099987388,-0.04442891075586043,0.018367564227732964,0.010467557792566124,0.11215724107710241,0.00204386050785843,2.929753829800534,3.1185547481837697,2.728267470997964,3.594613884592441,3.390216117025032,3.6879467132559167
301,301,15.3,-4.37,-1.32,8.67,-0.0239,-0.013999999999999999,0.0433,0.0214,-0.0534,0.0256,15300000000.0,-4.3831099660665815,-1.3170326601461368,8.671968717964102,-0.021596484355751483,-0.014427028019614771,0.04273794672496733,0.0005457211098016528,-0.050197880462664886,0.022729480125520285,0.01059797415888844,0.11443875116557284,0.0020967298813518672,2.934613526289929,3.262377649314815,2.6861310545195907,3.572261625868934,3.3678137916178343,3.7201964970486117
302,302,15.3,-4.3,-1.41,8.76,-0.0013,-0.00244,0.0231,0.153,-0.0757,0.0236,15300000000.0,-4.329959209695555,-1.3769881542048592,8.726431168771954,-0.00807749878980232,-0.006517269938911425,0.029511205844933545,0.09075838393820757,-0.06659733565263133,0.0232544953227217,0.011208629592835738,0.120322947339812,0.002067235527766397,2.9794480443876523,3.1374483216010995,2.6398449392204766,3.4988660085130077,3.4367844255709477,3.7160591671103425
303,303,15.4,-4.22,-1.36,8.71,0.0097,0.0134,-0.0172,0.121,-0.0124,0.0759,15400000000.0,-4.259637441968178,-1.3660323423238416,8.716265721944435,0.0037636530685800397,0.006625335777463659,-0.0019501800293550207,0.10865343237554008,-0.03174506493050381,0.05500525067244938,0.010257151495470383,0.12338550090887887,0.0020463304091908607,3.0837327151634186,2.9922466256191784,2.594080952842727,3.5114914011639096,3.278893545610592,3.7825572337966937
304,304,15.4,-4.29,-1.32,8.72,0.007859999999999999,0.0122,-0.0386,0.0492,-0.0449,0.00606,15400000000.0,-4.279055024205273,-1.3363456837924392,8.718576172779903,0.0064921284731785526,0.010303832505242187,-0.02663492408032321,0.07347270320978963,-0.040204509646552866,0.02548613807290596,0.00977971177889646,0.13899765126062286,0.0020112376136486843,3.310358664975834,3.0485432166604327,2.5462811058282133,3.514638582786047,3.311905997964086,3.8166386597709487
305,305,15.5,-4.32,-1.34,8.72,0.0213,0.0177,-0.0618,0.026000000000000002,-0.0272,0.0288,15500000000.0,-4.305240458449668,-1.3387024083573262,8.71945721710333,0.01635528443864221,0.015184266019234954,-0.05031964743033035,0.0453814024514933,-0.031841798163365034,0.027484743606727514,0.00916964998009119,0.14054329658806525,0.001968326756773598,3.405675128776417,3.1120768556179312,2.5598848366556575,3.6946262921437127,3.636645286325817,3.9363742009823146
306,306,15.5,-4.4,-1.28,8.69,0.0286,0.00977,-0.0728,-0.0855,0.0745,-0.0683,15500000000.0,-4.3658415893698335,-1.3008446522893118,8.701232662349527,0.024511186119222633,0.011611609697528816,-0.06546083505938136,-0.0320658185085335,0.03654261939046281,-0.03028348997190398,0.007960812476882224,0.10507142922596434,0.0021053589467531757,3.2911428403905028,3.6886519002153952,2.622091377012037,3.5665394088734597,3.4245688584563436,3.8225385671121948
307,307,15.6,-4.44,-1.24,8.62,0.0103,0.0,-0.0581,-0.118,0.049,-0.00485,15600000000.0,-4.413267763268693,-1.2616053674765653,8.650976384071296,0.015045467130279645,0.003949575111147147,-0.060503093885177314,-0.08291615610986294,0.04455349214746866,-0.014944431730141053,0.007926123537128757,0.0831728652729273,0.0021244029441482458,2.8960125941170465,3.436706462355488,2.6428025468545253,3.3996262534267965,3.5908458757744497,3.773883937541931
308,308,15.6,-4.48,-1.26,8.68,-0.008020000000000001,-0.0171,-0.038,-0.133,0.079,-0.0297,15600000000.0,-4.455944690937104,-1.2605700446772643,8.668932612005191,-0.00031786902194129614,-0.009940194051670726,-0.04534659049653887,-0.11255256354944737,0.06670474990321251,-0.02384358478134192,0.00817922903669297,0.07137236481019106,0.0021458917186801827,2.932772734402929,3.135635797439501,2.5693902128537722,3.5565684129083994,3.7834530288759924,3.93189181619357
309,309,15.7,-4.48,-1.26,8.68,-7.64e-05,-0.0153,-0.0312,-0.162,-0.0135,0.0727,15700000000.0,-4.4713286680938085,-1.2602024113302643,8.675779861229652,-0.00015703248640875633,-0.013476914651514658,-0.03581844076395673,-0.141812385388789,0.015128087439281075,0.034382309491369466,0.00818347639190724,0.0706612918164331,0.0017905809151731234,3.2261252860937213,3.163800680997807,2.5690787987326384,3.51385123107832,3.733169266427302,3.905067506745301
310,310,15.7,-4.33,-1.18,8.61,0.00298,-0.0202,-0.0233,-0.0567,0.0372,0.0874,15700000000.0,-4.380945441437318,-1.2084790848931668,8.635083625106729,0.0019324672323154503,-0.017913207963191145,-0.0273868985248515,-0.09144833365499404,0.02932170549247332,0.06635752796141069,0.007643047857574097,0.07703325842285465,0.0006427917647604706,3.853714878792321,3.3515334660261464,2.613101809873882,3.657430908101483,3.6649399510870806,3.6843341855137295
311,311,15.8,-4.41,-1.28,8.78,-0.0233,-0.00855,-0.0068,-0.0364,0.108,0.0375,15800000000.0,-4.39952645248334,-1.2546035801377686,8.724738866889519,-0.014874253976255716,-0.011734803570203279,-0.013521010548001094,-0.05887426123364619,0.07991676340014124,0.04895341699452933,0.008386871206720383,0.08596151824921487,0.0009914201158369189,3.7256732609979917,3.2262006334102518,2.4220359998650567,3.405947608103004,3.5848917391960633,3.383499978387249
312,312,15.8,-4.39,-1.3,8.74,-0.0135,-0.0104,0.0103,0.00103,0.00234,0.0223,15800000000.0,-4.393433965174925,-1.2838801293423083,8.734180329806279,-0.013958897670576977,-0.010854020356643256,0.0025231481944954625,-0.023426761397631172,0.03003006050575742,0.032878614518821875,0.007349850507578548,0.07468983054371879,0.00041647308095784665,3.3496823671032687,3.401416384044394,2.4564334993645986,3.391234101053493,3.6557476017544452,3.3437253531329434
313,313,15.9,-4.39,-1.3,8.74,-0.00557,-0.00489,0.025,0.00615,-0.0116,-0.00744,15900000000.0,-4.391237774148514,-1.2942759554363024,8.737780643294862,-0.008371260715966073,-0.006918602996347407,0.017661976190437294,-0.005925131041733662,0.0032593322799803,0.008562267133680579,0.007169645497040648,0.06752048704328512,0.00030468159855802785,2.9566609218186257,3.1329164800770464,2.611962841836169,3.405219287724599,4.066891433458786,3.669186349828623
314,314,15.9,-4.3,-1.37,8.71,-0.00191,-0.000611,0.0268,0.0982,-0.0754,0.0559,15900000000.0,-4.332889083533663,-1.3431111100940245,8.720593617586612,-0.004067574966627996,-0.002756469269331229,0.02381670627130844,0.0556894438819488,-0.04732353140939024,0.03711187817425116,0.007340856460915297,0.05979438861513,0.0003277298688111762,2.8790744532983297,3.2111312712956925,2.670654968806906,3.3902795704237016,3.5036746706444615,3.332913941725631
315,315,16.0,-4.24,-1.4,8.75,-7.64e-05,0.011000000000000001,0.00909,0.108,-0.0668,0.0104,16000000000.0,-4.273484071380007,-1.3797992771565202,8.738786462840883,-0.0014091521662481922,0.006320871910492559,0.013897831779350963,0.0866434776885471,-0.059848115736084485,0.021001817880338558,0.008047855814760614,0.050969574766689944,0.00021195972225682442,2.8653150006597885,3.2601402116059286,2.5804393621297113,3.3100869514334152,3.802609743118569,3.304817302979227
316,316,16.0,-4.26,-1.38,8.72,0.00359,0.0214,-7.64e-05,0.0788,-0.0376,0.0346,16000000000.0,-4.2648608206889165,-1.3799287221390188,8.727164007942456,0.001920659346273481,0.016270983123319146,0.004485771335905846,0.08200221078567703,-0.0455411877782194,0.029202946456387924,0.006590568894639007,0.053883273678931067,0.00021629963409857956,2.858216106772775,3.4470272827698785,2.4701412980285413,3.2182993508068,3.629565272575205,3.3771690291060525
317,317,16.1,-4.26,-1.38,8.72,0.00298,0.0189,-0.016,0.0686,-0.055,0.0169,16100000000.0,-4.261752352040962,-1.3799746868296452,8.722732016681121,0.002626259991192829,0.018005765412984782,-0.00931200504607588,0.07407164137895879,-0.05162379446124221,0.021782980682759058,0.0065578993311238305,0.05584165372773836,0.00020622358456895792,2.745432580136517,3.3029849118157304,2.325434343455486,3.2049223853470816,3.6254393758456187,3.407247068613089
318,318,16.1,-4.36,-1.34,8.73,0.0128,0.013999999999999999,-0.0227,-0.0254,-0.0232,-0.0356,16100000000.0,-4.324584237655456,-1.3541946552427206,8.727228216381874,0.009402736033673394,0.015362522087752309,-0.018329217937117358,0.015210703852360346,-0.03334551962767615,-0.012824966372614596,0.006583550511748424,0.06027105888218235,0.00020169696092615534,2.6480299679476618,3.1181510426169514,2.340627379195023,3.206101752917364,3.1638997624815137,3.2726839554952494
319,319,16.2,-4.37,-1.35,8.66,0.00909,0.00977,-0.0318,-0.0744,0.0684,0.0406,16200000000.0,-4.35362866747762,-1.3514894978323586,8.685636044445515,0.00919443019507958,0.011672241750273142,-0.02740219128581638,-0.03781516362568075,0.032083204506866365,0.01939588511345177,0.006535943804565915,0.06128326905757589,0.0002139538830728822,2.729201724048221,3.0954953746877263,2.4392927788558914,3.2749099056017497,3.4441751623094725,3.2493433417387316
320,320,16.2,-4.44,-1.24,8.7,-0.00191,0.00305,-0.0208,-0.0764,0.0965,-0.00806,16200000000.0,-4.4088653069141435,-1.2795888737683878,8.694522474165382,0.0017980442590242874,0.0059827708952735325,-0.02295541926349856,-0.060647193287478036,0.07350722743520285,0.0028371107486578127,0.005714399218005324,0.054972359156767334,0.00022326088659098417,2.787932452339873,3.097279295345172,2.4782915137312034,3.2555057394869857,3.4602651226001937,3.4737370040218885
321,321,16.3,-4.44,-1.24,8.7,-0.0105,-0.00183,-0.0141,-0.114,0.0712,0.053,16300000000.0,-4.428776749600623,-1.2540576412929851,8.697911136819455,-0.006393378355270415,0.0008274373882222975,-0.016991031366568966,-0.09221796252822967,0.07202353500995473,0.03309058659406115,0.005997295697011818,0.05019457771793762,0.000224024474089785,2.8532463676249264,3.047474411340875,2.4477506691527062,3.3455613102393316,3.5063370356731784,3.4964884039693156
322,322,16.3,-4.44,-1.32,8.66,-0.0111,-0.00489,-0.00313,-0.0549,-0.0458,0.0149,16300000000.0,-4.4359543323410175,-1.2965845251015358,8.674456561146668,-0.00952834231617131,-0.0029452697572137387,-0.007655214822445069,-0.07013558673521103,-0.0037443552764826055,0.02211975751661693,0.007025324140378685,0.04095114660807177,0.00019584230798186958,2.929231370846363,3.151783289773436,2.32855939524864,3.152999486221256,3.448263866720242,3.426698336310814
323,323,16.4,-4.42,-1.38,8.7,-0.0013,-0.0116,0.00542,0.0109,-0.111,0.0269,16400000000.0,-4.425751191099757,-1.350379949680402,8.690259401284504,-0.004047647284174856,-0.008656178326576834,0.0011513308635592596,-0.02218392369498085,-0.07271643288485857,0.025002744936127686,0.007315945150166726,0.0385562493681253,0.0001935445150825486,2.85604058555288,3.0252175088983146,2.178468787278606,3.3079850391084507,3.333949436574702,3.4008543698739517
324,324,16.4,-4.34,-1.43,8.68,0.00725,-0.00367,0.00542,0.0218,-0.0664,0.0206,16400000000.0,-4.370911281614799,-1.4017276383473984,8.683912406767089,0.003477435636257889,-0.0053659996394663885,0.0040264062830501855,0.0038429415488745867,-0.06865457146966279,0.022347428840169832,0.006681771638757581,0.038049306557420955,0.00018601705209159042,2.963124219624747,2.970273313305257,2.1717912935085435,3.4086647734355267,3.3361442027016097,3.4270928045857403
325,325,16.5,-4.33,-1.36,8.73,0.00725,0.00122,0.00725,0.0264,-0.0264,0.0456,16500000000.0,-4.344747456621452,-1.3748170994686857,8.712425132746699,0.005990247188974117,-0.0010201631742746287,0.006197592322133969,0.0171907619482025,-0.04148224351225658,0.03637116516128405,0.005727521249266113,0.03472777191714215,0.00019751809083005378,3.037097630457571,2.8710595123845084,2.2508683606306708,3.233981798733998,3.4176153056861365,3.369291806321001
326,326,16.5,-4.31,-1.36,8.71,0.00359,0.00122,0.00237,0.00658,0.00852,0.0307,16500000000.0,-4.322525562321546,-1.3652614212934937,8.7109247995823,0.004391502043897121,0.0004580304601264624,0.0036195950529031595,0.010911993442114704,-0.00932767895631028,0.03295085857940108,0.005819739336011271,0.02790750439304387,0.00018785522991130677,3.051641746007225,3.0904540598193204,2.4160899585533606,3.6025113861061526,3.441247473730892,3.332465698912694
327,327,16.6,-4.35,-1.33,8.72,0.006640000000000001,0.00428,-0.00985,0.00889,0.0144,-0.0030800000000000003,16600000000.0,-4.340096083584525,-1.3425210253198183,8.716539518609736,0.005889170715228946,0.0029799945561886786,-0.005452577577831321,0.009715507506312428,0.00593070002944631,0.011220477062787702,0.006321968845652693,0.023812332013222085,0.00021676247106121587,3.1263149929092813,2.984499225809845,2.470850782752942,3.4168390894967073,3.3973850823747864,3.357831366897674
328,328,16.6,-4.38,-1.33,8.68,0.00359,0.00428,-0.016,2.1e-05,0.00968,0.0308,16600000000.0,-4.365615698019829,-1.3344461255015627,8.693933805116256,0.004357750106061985,0.0038378158991790377,-0.012556580580115304,0.003978919725710689,0.008341734105956027,0.02302898003036482,0.0069582092494192066,0.0253594740726524,0.00020870966903654596,3.097573687588947,2.9721910449998616,2.3955289923394,3.457502245488312,3.624942171543931,3.183780627699438
329,329,16.7,-4.34,-1.28,8.68,-0.00313,0.00428,-0.019,0.0171,0.0571,0.000152,16700000000.0,-4.349233923323292,-1.2993332864494982,8.685313567349366,-0.000629654854959247,0.004129595412471375,-0.016896414658378524,0.01174313395163782,0.03969634469003512,0.009231764958964479,0.007520454760162748,0.026616732849081722,0.00019599415146090145,3.0463689596807626,2.7544541406076344,2.3629126292800966,3.506589776935459,3.49147577093172,3.5104928223063094
330,330,16.7,-4.36,-1.3,8.72,-0.0111,0.00428,-0.0166,0.0111,-0.0213,0.0231,16700000000.0,-4.356119180955419,-1.2997632255639102,8.706773186243602,-0.0076036922955159845,0.004228841351119081,-0.016696770401330278,0.011362568390962365,0.0004718869018678906,0.017595763156474528,0.005098511941704442,0.02522757528835871,0.00019492397699091274,2.88069296341604,2.6269880130836927,2.4581727647127023,3.4259660008819277,3.5134001681611604,3.3848545777949792
331,331,16.8,-4.35,-1.36,8.71,-7.64e-05,0.00916,-0.0135,-0.00942,-0.0414,-0.00173,16800000000.0,-4.352205752436275,-1.3386104995833077,8.708769542562145,-0.0025899493175543732,0.007482714701441401,-0.014543650757900862,-0.0009352226930277477,-0.026454351182618418,0.0059403038035991855,0.00419810284985128,0.02442898312209936,0.0001804369001515545,2.9176785695787775,2.86625723201042,2.5981762918677065,3.2191871097989235,3.4717458025031824,3.283767723708253
332,332,16.8,-4.38,-1.37,8.69,0.00359,0.00367,-0.00985,-0.0436,-0.00536,0.0163,16800000000.0,-4.369980934206416,-1.3588538879633951,8.697157130924841,0.0015263619339273644,0.00496685750083097,-0.011382337489462184,-0.02618150183902452,-0.012889366117654934,0.012188285823874764,0.0041602556501682455,0.02498305779601753,0.00018040273015851454,3.0234524733378776,2.9602551409437723,2.647138137729666,2.96080759122805,3.5061277259916324,3.2475309862126034
333,333,16.9,-4.38,-1.37,8.69,0.00237,0.00244,-0.0013,-0.027000000000000003,0.0238,-0.004079999999999999,16900000000.0,-4.376388447709562,-1.3660421239703875,8.692728969460731,0.002088288280041236,0.003299485755539482,-0.0045915835267878215,-0.026665836970355777,0.010704187563021644,0.00237680562993149,0.004754836423013146,0.026189801204031683,0.00018411513337256022,3.293803691608869,3.006920726940692,2.554937659091454,3.1104759019277752,3.6180807063736693,3.290780551756551
334,334,16.9,-4.39,-1.37,8.69,0.00115,0.0,0.00359,-0.00703,-0.0174,0.0298,16900000000.0,-4.38509328658491,-1.3685945986807504,8.691040378445816,0.0014633177112730882,0.0011222877067971599,0.0009189562143319119,-0.015046607992284175,-0.00736856004588921,0.01891586390994064,0.005446160474565741,0.02448247968611601,0.0001934491713154622,3.162677215144496,2.7639633109663437,2.3292735144350827,3.364702144019962,3.468058542581251,3.1252168949278873
335,335,17.0,-4.37,-1.37,8.71,0.00359,-0.00305,-0.00252,0.0072,0.0119,-0.006490000000000001,17000000000.0,-4.375440683416004,-1.3695009583412714,8.702770150240518,0.002879848177730205,-0.001630837234151741,-0.0013972830731590552,-0.0018824922521516047,0.005022327384773665,0.003593466955829993,0.004956934507017938,0.02294393057647343,0.00018701881989897708,3.1233141723505886,2.8160584236647566,2.308901071821546,3.4201823702734395,3.635340495812574,3.120446255849887
336,336,17.0,-4.34,-1.33,8.68,0.00909,0.00122,-0.00435,0.0261,0.00534,0.0122,17000000000.0,-4.352775587617267,-1.344026444881387,8.688683131242293,0.007016276394676827,0.0002503156702961492,-0.003386025724798669,0.0146757522094722,0.00522661080783322,0.008784107678009367,0.004060802188484443,0.02166451900632905,0.00016595528059011434,3.114554701797994,3.0275375345710276,2.3837903479469764,3.3654721642977132,3.633232939079644,3.2948858691526355
337,337,17.1,-4.34,-1.33,8.68,0.00237,0.0055,-0.0068,0.0238,0.0409,0.0167,17100000000.0,-4.344605381019186,-1.334980685768595,8.683311327639347,0.003921506681254789,0.0037143713629354436,-0.0056854389295600116,0.020074897188531053,0.028166827174051768,0.013558219590955815,0.004057871611945197,0.023246465375518836,0.0001752221034710885,3.1741358454473727,2.94303558840847,2.4714314660653076,3.3063480761581636,3.573405535366693,3.0127080572893683
338,338,17.1,-4.39,-1.31,8.71,-0.00496,0.0055,-0.00557,-0.0481,0.0908,-0.0373,17100000000.0,-4.373636276939469,-1.3188703686619976,8.699822830940759,-0.0019942449933188907,0.004892635919156918,-0.005607687404732368,-0.02026663358318683,0.06844386959415512,-0.017114614758399198,0.0042528236138012826,0.022475914217365868,0.0001665244061094551,2.9074662325004756,2.9608750142017954,2.4104270673473356,3.121193434850838,3.480809355134746,3.318126046293272
339,339,17.2,-4.41,-1.25,8.64,-0.0068,-0.000611,-0.0117,-0.0991,0.00535,0.0463,17200000000.0,-4.396891679414782,-1.2744552174041182,8.662812455279441,-0.005195239444384585,0.0012610077616454873,-0.009711040798781843,-0.06691516449840218,0.027870571956358756,0.021131040785894357,0.004577463798963814,0.02193861782787777,0.00020536738546384926,2.966864323300782,3.0083186078292714,2.297520488115138,3.495486227656281,3.587986068804415,3.1581239600504842
340,340,17.2,-4.49,-1.4,8.74,0.0103,-0.00733,-0.0141,-0.0875,-0.0368,0.0438,17200000000.0,-4.456436606332772,-1.3554202181442816,8.710565928416862,0.005125755927702732,-0.004407852957697581,-0.01266713544550904,-0.07909594904852606,-0.013716644420743449,0.03480279757426558,0.004510262480619016,0.020720280909510457,0.0001322593583522017,2.999462702621392,2.7440806507990723,2.2916665041153363,3.3671052617343404,3.401481453052745,3.152253526705336
