,Unnamed: 0,Time (s),Acceleration x (m/s^2),Acceleration y (m/s^2),Acceleration z (m/s^2),Time (s).1,Linear Acceleration x (m/s^2),Linear Acceleration y (m/s^2),Linear Acceleration z (m/s^2),Time (s).2,Gyroscope x (rad/s),Gyroscope y (rad/s),Gyroscope z (rad/s),Sitting,Walking,Running,Biking,SPM,Unnamed: 17,Unnamed: 18,Unnamed: 19,Unnamed: 20,Unnamed: 21,Acceleration x (m/s^2)_kalman,Acceleration y (m/s^2)_kalman,Acceleration z (m/s^2)_kalman,Gyroscope x (rad/s)_kalman,Gyroscope y (rad/s)_kalman,Gyroscope z (rad/s)_kalman,Linear Acceleration x (m/s^2)_kalman,Linear Acceleration y (m/s^2)_kalman,Linear Acceleration z (m/s^2)_kalman,Acceleration x (m/s^2)_kalman_max_freq,Acceleration y (m/s^2)_kalman_max_freq,Acceleration z (m/s^2)_kalman_max_freq,Gyroscope x (rad/s)_kalman_max_freq,Gyroscope y (rad/s)_kalman_max_freq,Gyroscope z (rad/s)_kalman_max_freq,Linear Acceleration x (m/s^2)_kalman_max_freq,Linear Acceleration y (m/s^2)_kalman_max_freq,Linear Acceleration z (m/s^2)_kalman_max_freq
0,0,0.013075732,1.029811025,4.492823601,10.02532864,0.155396409,1.082274914,-0.6888179779000001,-0.8785486221,0.156099378,-0.1259108931,1.829487562,0.8128086329,0.0,1.0,0.0,0,30.0,,,,,,0.9063827679628436,3.605264269686772,8.68586568686004,-0.2641253893860942,1.6024389044208158,0.8355505668133049,0.7794128417513874,-0.5450539251000103,-0.680776980353953,,,,,,,,,
1,1,0.0326512,0.747158885,4.665106773,10.71715355,0.19465818,0.9357105494,-0.6180300713,-0.90366745,0.206099378,-0.8741987943999999,1.333174109,1.149538159,0.0,1.0,0.0,0,30.0,,,,COUNT,TIME,0.8502591436022039,3.9228206719569023,9.865936290999436,-0.7137790105539649,1.4269530136104072,1.040702012670894,0.8677187420490695,-0.5894305637460385,-0.8402705958062104,,,,,,,,,
2,2,0.0826512,1.968096614,3.741178274,8.56241703,0.24465818,0.0,0.0,0.0,0.256099378,-0.7274427414,0.1970745921,0.5480827093,0.0,1.0,0.0,0,30.0,,,ACC,6379,5.31615959113333,1.358151421658227,3.849587444943477,9.015105682812175,-0.7242389073136078,0.5721623340171715,0.7007709486443425,0.3141497674293374,-0.19288944562881127,-0.20436175213702976,,,,,,,,,
3,3,0.13265120000000002,1.968096614,3.741178274,8.56241703,0.29465818,-1.2380195859999998,-0.4023885727000001,1.88974762,0.30609937800000003,-0.3946836889,1.592784286,0.7885274291,0.0,1.0,0.0,0,30.0,,,LA,6379,5.31398769651667,1.6528069817077164,3.802114049719584,8.715804457145207,-0.4714443917365975,1.2855722289363956,0.7616328638426652,-0.6905348932765014,-0.3352510960894694,1.3854957287564624,,,,,,,,,
4,4,0.1826512,0.6514459847999999,2.570489645,8.758627892,0.34465818,-1.018744946,-0.3480839729,0.08494186401,0.356099378,-1.105862617,0.6025244594,0.997208178,0.0,1.0,0.0,0,30.0,,,GYRO,6378,5.3141666437,1.1614888390754003,3.2495159743248125,8.744159154058044,-0.9581460804817286,0.8078793911200559,0.9250888466985899,-0.9033572230401326,-0.3439803810742996,0.3979273073776899,,,,,,,,,
5,5,0.23265120000000006,-1.453041553,1.988734722,12.85992622,0.39465818,-1.018744946,-0.3480839729,0.08494186401,0.406099378,-0.8771766423999999,0.07505785674,0.3094705045,0.0,1.0,0.0,0,30.0,,,,,,-0.12644319372675894,2.6797349554174765,11.469787687816734,-0.8960290171455637,0.2953532013968627,0.4979178437058806,-0.978194939488542,-0.3467720515583062,0.16026099737343336,,,,,,,,,
6,6,0.2826512,-1.816750646,2.326122761,10.19761181,0.44465818,-1.018744946,-0.3480839729,0.08494186401,0.456099378,-0.4240043461,-0.5122717619,0.3988068998,0.0,1.0,0.0,0,30.0,,,,,,-0.9599478939928168,2.5195831851882105,10.627285009342382,-0.5339072516987515,-0.26949194086416306,0.429145532131185,-1.0044954182878263,-0.3476645602158023,0.1030671823319026,,,,,,,,,
7,7,0.33265120000000004,-1.816750646,2.326122761,10.19761181,0.49465818,-0.7800183296,0.2224127054,-0.4534959793,0.5060993779999999,-0.3620033562,0.2306711972,0.00496313395,0.0,1.0,0.0,0,30.0,,,,,,-1.3825551473008215,2.4319080696932565,10.342731895932094,-0.4020282482660548,0.08031748670001065,0.13480855777978734,-0.8589005021286189,0.040163140893233314,-0.3195607774554841,,,,,,,,,
8,8,0.3826512,0.007477570791,0.5976074338,9.678070068,0.54465818,1.53046751,0.006218791008,0.9530544281,0.556099378,-1.276365399,0.9644514918,-0.8373952508,0.0,1.0,0.0,0,30.0,,,,,,-0.6968927683190814,1.6004539139236362,9.902556341750813,-1.0727908969994195,0.6986725738938055,-0.5397963741749472,0.6908344026496311,0.0170705507433395,0.6468035206184939,,,,,,,,,
9,9,0.4326512,-2.106581211,2.187339067,9.465108871,0.59465818,1.53046751,0.006218791008,0.9530544281,0.606099378,-4.489803791,1.870108843,-0.4749337435,0.0,1.0,0.0,0,30.0,,,,,,-1.392262746042206,1.8664932732178523,9.612854601550225,-3.6942105825468174,1.5179641906309305,-0.4947886810026426,1.2354172353864366,0.009688018932429024,0.879356095809239,,,,,,,,,
10,10,0.4826512,-0.2536391914,0.8036893009999999,11.41137123,0.64465818,1.53046751,0.006218791008,0.9530544281,0.656099378,-4.667331218999999,3.219775915,-1.239409089,0.0,1.0,0.0,0,30.0,,,,,,-0.8306009476566618,1.3847081297228303,10.803931095110805,-4.4407566656847965,2.708195461849184,-1.011475199988376,1.4267857200694405,0.007327877705026584,0.9353191527113228,,,,,,,,,
11,11,0.5326512,3.081357241,2.525026083,10.25025368,0.69465818,3.387036324,-2.174623966,-0.52247715,0.706099378,-2.81997633,3.913851023,-1.6586030719999998,0.0,1.0,0.0,0,30.0,,,,,,1.099097382704281,1.9016341907136252,10.43725549884266,-3.1973474043845824,3.551419732919688,-1.4605123791920296,2.6981967976785137,-1.4770699813664911,-0.17166298517137046,,,,,,,,,
12,12,0.5826511999999999,-3.10259366,-5.026124001,0.1016949639,0.74465818,3.387036324,-2.174623966,-0.52247715,0.7560993779999999,-3.157927513,3.67615509,-1.237042069,0.0,1.0,0.0,0,30.0,,,,,,-0.9735215385303484,-1.2388445160916093,3.592479640843025,-3.1671057628804635,3.6386584802406765,-1.3054480065332692,3.1449754913900136,-1.9516210786310093,-0.4380548078344403,,,,,,,,,
13,13,0.6326512,-1.084247708,-6.469594002000001,5.004887581,0.79465818,3.387036324,-2.174623966,-0.52247715,0.806099378,-1.603855848,2.631682634,-1.549261332,0.0,1.0,0.0,0,30.0,,,,,,-1.0281407786061891,-3.610039419841353,4.527853754021541,-1.967831944911919,2.934388951535236,-1.4746282449818469,3.3019752254788166,-2.103331580320584,-0.5021611748237744,,,,,,,,,
14,14,0.6826512,-1.084247708,-6.469594002000001,5.004887581,0.84465818,-2.87119627,1.953553677,5.527336121,0.856099378,-0.07498150319,1.262315869,-1.862167835,0.0,1.0,0.0,0,30.0,,,,,,-1.0558173245288414,-4.906328259520811,4.843771754834559,-0.515699464408214,1.7649566097619664,-1.7435390614053683,-0.7019203020902216,0.6565972452103872,4.076356272508323,,,,,,,,,
15,15,0.7326512,-8.982357025,-6.87906599,4.207479477,0.89465818,-3.773664474,0.4489006996,2.8116281030000003,0.906099378,-0.6071822047,1.316452146,-1.071426034,0.0,1.0,0.0,0,30.0,,,,,,-4.965837748633929,-5.800606698958443,4.422384060598821,-0.5858820079884455,1.4512767644068272,-1.2771648702751286,-2.6942418766210294,0.5152997603549789,3.1159810197583546,,,,,,,,,
16,16,0.7826512,-8.40299511,-5.181657314,8.313263893,0.94465818,-3.773664474,0.4489006996,2.8116281030000003,0.956099378,-0.1675248593,1.195733547,-0.7453100085,0.0,1.0,0.0,0,30.0,,,,,,-6.6613260709975775,-5.520025510742496,6.999138388929969,-0.264932190371075,1.2725522181590856,-0.9081147688437564,-3.39435126368854,0.470127991838657,2.884869689895456,,,,,,,,,
17,17,0.8326511999999999,-8.19481945,-6.754639149,7.9471621510000015,0.99465818,-3.773664474,0.4489006996,2.8116281030000003,1.006099378,-0.3471903205,-0.007024743593999999,0.1712663025,0.0,1.0,0.0,0,30.0,,,,,,-7.41777095989587,-6.079698678506575,7.626971793786037,-0.32803791700473384,0.37762800773521776,-0.1591403352173577,-3.6403723679751048,0.4556869090905797,2.829253464219029,,,,,,,,,
18,18,0.8826511999999999,-13.21765327,-8.186145782,2.395215511,1.04465818,-4.061275005,-1.41455555,-1.647082806,1.056099378,-1.0051491259999998,0.1114796251,0.720647037,0.0,1.0,0.0,0,30.0,,,,,,-10.278749293731304,-7.034590061880149,4.1622154338211,-0.8474953225653801,0.19148630754877147,0.4513375269154809,-3.913368215980824,-0.8166527667037276,-0.5698663475075714,,,,,,,,,
19,19,0.9326512,-9.93529892,-8.964410782,3.944268942,1.09465818,-2.964267254,-1.616679192,-0.27729415890000003,1.106099378,-0.08414421231000001,-0.5079958439,0.4939463735,0.0,1.0,0.0,0,30.0,,,,,,-10.109331359774998,-7.9094134429655005,4.01787929633347,-0.2618775068082778,-0.2977249949287281,0.4809034861104337,-3.29778494566754,-1.3609166172671363,-0.3477007498885765,,,,,,,,,
20,20,0.9826511999999998,-9.202795982,-9.565308571000001,1.22691977,1.14465818,-2.964267254,-1.616679192,-0.27729415890000003,1.156099378,0.3574983478,-0.9459733367,0.5345677137,0.0,1.0,0.0,0,30.0,,,,,,-9.662153652882477,-8.660061293127155,2.169552607101674,0.21328723744821287,-0.7511038480617984,0.518140691358238,-3.081466640642152,-1.5349137743616932,-0.2942372869677143,,,,,,,,,
21,21,1.0326512,-10.28973579,-9.79501915,0.7265207767,1.19465818,-2.964267254,-1.616679192,-0.27729415890000003,1.206099378,0.3429143727,-0.2938175201,0.2283805162,0.0,1.0,0.0,0,30.0,,,,,,-9.971728711698908,-9.174558655184109,1.2138976717588696,0.3127329037720048,-0.4312820489955947,0.31707827803039923,-3.0054515646228785,-1.5905393880151586,-0.281371470216048,,,,,,,,,
22,22,1.0826512,-4.804787636,-9.07448101,4.537988186000001,1.24465818,2.843463182,1.105678558,-0.9107415676,1.256099378,0.2922904193,-1.129762053,0.6703284979,0.0,1.0,0.0,0,30.0,,,,,,-7.422968983686285,-9.129191610124355,3.4152929830261085,0.297050103392549,-0.9197924592347888,0.5621959573909436,0.7881322705472709,0.2437174762583472,-0.7592856031139097,,,,,,,,,
23,23,1.1326512,-5.034498692,-7.436892986,2.586641312,1.29465818,2.843463182,1.105678558,-0.9107415676,1.306099378,-0.08727480471000001,-1.000949621,0.9291750193,0.0,1.0,0.0,0,30.0,,,,,,-6.244779257364653,-8.362041382759166,2.866514333257027,0.002208699221092847,-0.9765530225016844,0.8168399773066011,2.1212120743211558,0.8301159288367862,-0.8742941588821151,,,,,,,,,
24,24,1.1826511999999998,-3.485445261,-6.821638107,2.409572363,1.34465818,2.843463182,1.105678558,-0.9107415676,1.356099378,-0.8590039611,0.2979407609,-0.1529408842,0.0,1.0,0.0,0,30.0,,,,,,-4.883649091031569,-7.66374812271298,2.5639022633414648,-0.6584852727309385,-0.08518393971193594,0.1439163076045239,2.5896613930773107,1.0175832088475287,-0.9019706115948356,,,,,,,,,
25,25,1.2326511999999998,-3.485445261,-6.821638107,2.409572363,1.39465818,2.901381254,1.888584614,-0.3978307247,1.4060993780000002,-1.001636744,0.4373666346,-0.2376195788,0.0,1.0,0.0,0,30.0,,,,,,-4.1939401198650845,-7.282004096749916,2.4616965268318416,-0.921739772673798,0.28028306548360593,-0.12082858375237288,2.7918417081236053,1.6101318594416243,-0.5191504269469872,,,,,,,,,
26,26,1.2826512,-6.250650883,-6.29491806,1.552343726,1.44465818,0.8141603470000001,0.03352355957,0.4370498657,1.4560993780000002,-0.5189147592,-0.3633777499000001,0.4991385639,0.0,1.0,0.0,0,30.0,,,,,,-5.208478797109257,-6.834539762365512,1.8594731568047045,-0.6127056972972496,-0.1698873144335718,0.30936197229921986,1.509125107323646,0.5375536577392708,0.20694322707136992,,,,,,,,,
27,27,1.3326512,-3.3203406330000003,-5.784947872,2.124527454,1.49465818,0.8141603470000001,0.03352355957,0.4370498657,1.506099378,-0.02038702741,0.9542961121,0.053754560650000005,0.0,1.0,0.0,0,30.0,,,,,,-4.277093971558141,-6.358740369826558,2.03500667053605,-0.15829833346712566,0.6163561046010404,0.1319979055579308,1.0583736098507508,0.19465828141653507,0.38167541587432624,,,,,,,,,
28,28,1.3826512,-4.68275404,-6.778567314,2.641676188,1.54465818,0.8141603470000001,0.03352355957,0.4370498657,1.556099378,0.0542890504,0.6933116317,-0.01084253844,0.0,1.0,0.0,0,30.0,,,,,,-4.47719883629726,-6.5490556789900545,2.4367765454814867,0.004791701674837973,0.6701780835573569,0.032881992295257734,0.8999778173995209,0.08503714710959448,0.42372417588607547,,,,,,,,,
29,29,1.4326511999999998,-4.68275404,-6.778567314,2.641676188,1.59465818,-0.9936461449,-2.367114544,-0.8747366667,1.606099378,0.8105179667,0.513035357,0.1522536725,0.0,1.0,0.0,0,30.0,,,,,,-4.578595546030348,-6.653097542887803,2.572472342372984,0.6229183397421401,0.5602739240631966,0.11571310628664415,-0.3282194745409711,-1.5831796517459011,-0.5622660868295588,,,,,,,,,
30,30,1.4826511999999998,-5.891727447999999,-8.562117577,4.796412945,1.64465818,-0.4732427597,-1.717300415,0.9129052162,1.6560993780000002,-0.3545204699,1.138390183,0.1378224194,0.0,1.0,0.0,0,30.0,,,,,,-5.226340054608786,-7.518491588766255,4.045287957322157,-0.12694050378050034,0.9646030519141212,0.13105459291339894,-0.422281025120994,-1.674422991715422,0.5579098114037042,,,,,,,,,
31,31,1.5326512,-6.578766823,-7.343572617,-0.6260222196999999,1.69465818,-0.4732427597,-1.717300415,0.9129052162,1.7060993780000002,-0.1590493619,1.108916879,0.1419456303,0.0,1.0,0.0,0,30.0,,,,,,-5.893468018961081,-7.4391975874616465,0.951689790429354,-0.1515733616247486,1.0655347983820036,0.1386118021178318,-0.4553346121347788,-1.7035928176042332,0.8274766716281392,,,,,,,,,
32,32,1.5826512,-7.641777992000001,-9.591629982,4.05912447,1.74465818,1.390141487,-0.7669763565000001,0.6857237815999999,1.756099378,0.1627907902,1.438392639,0.2241045833,0.0,1.0,0.0,0,30.0,,,,,,-6.755878096131545,-8.414934952964026,3.009603708259183,0.08959645586777573,1.32630809981869,0.19793460204420424,0.7416341591806612,-1.0664057625752883,0.7198361755023535,,,,,,,,,
33,33,1.6326512,-6.4399828910000005,-8.382656097,-2.2803599830000003,1.79465818,0.2702264786,-0.06863260268999999,-0.1593033373,1.806099378,0.3597890437,1.6831132169999998,0.03535278514,0.0,1.0,0.0,0,30.0,,,,,,-6.60005263478522,-8.400302351467385,-0.4937007950959975,0.2968793051003794,1.575854276117292,0.08512029811559542,0.4358809324287122,-0.3876133563560519,0.05225886334087637,,,,,,,,,
34,34,1.6826511999999998,-4.553242207,-7.999505042999999,1.19581306,1.84465818,0.2702264786,-0.06863260268999999,-0.1593033373,1.856099378,0.1186570823,1.261323214,0.281524241,0.0,1.0,0.0,0,30.0,,,,,,-5.590397615756644,-8.2186135277772,0.6251880747170413,0.16015308904898876,1.355874180186435,0.22140352168859728,0.32843808439068034,-0.17060840771348088,-0.10839154904548526,,,,,,,,,
35,35,1.7326511999999998,-6.94756031,-7.312466145,-0.09960123897,1.89465818,0.2702264786,-0.06863260268999999,-0.1593033373,1.906099378,-0.5188384056,1.039051175,0.5992411375,0.0,1.0,0.0,0,30.0,,,,,,-6.259861727997666,-7.807840180051526,0.14519278276602127,-0.3607468096673313,1.134291120995579,0.4835822107821809,0.2906822585007741,-0.101233518861004,-0.14705157318013615,,,,,,,,,
36,36,1.7826512,-6.94756031,-7.312466145,-0.09960123897,1.94465818,-1.136836529,-1.203189373,-1.98607409,1.956099378,-0.4327852726,1.200620294,0.2496074587,0.0,1.0,0.0,0,30.0,,,,,,-6.599091153299844,-7.5832779789088836,-0.01692326352616541,-0.4160123444194239,1.180681126607418,0.32122888434953417,-0.6352009916412328,-0.8509021768921734,-1.5435190176049658,,,,,,,,,
37,37,1.8326512,-8.362317085,-8.775078772999999,-2.191825628,1.99465818,0.1351890564,-0.1076822281,-3.467119217,2.006099378,0.1858502775,0.6910209656,-0.33810395,0.0,1.0,0.0,0,30.0,,,,,,-7.468859006420693,-8.12354329477673,-1.4572630641096946,0.04571682492644108,0.8382173701589859,-0.1362772266262155,-0.13552893974908153,-0.3452841890746817,-3.004210787203573,,,,,,,,,
38,38,1.8826512,-8.625826836,-8.373085022,-2.821436882,2.04465818,0.1351890564,-0.1076822281,-3.467119217,2.0560993780000003,0.4863871336,1.4549617769999998,-1.014464617,0.0,1.0,0.0,0,30.0,,,,,,-8.039570567939707,-8.236665169403551,-2.3606938924037446,0.38378456356586826,1.269562664412064,-0.7456448731762448,0.040057721790403684,-0.18364183056594946,-3.3557217371422365,,,,,,,,,
39,39,1.9326512,-8.304888725,-7.774580002,-5.718546867000001,2.09465818,0.1351890564,-0.1076822281,-3.467119217,2.106099378,-0.08590039611,1.648753166,-1.544603705,0.0,1.0,0.0,0,30.0,,,,,,-8.170447275184575,-8.027193427020329,-4.584448559615469,0.0234577408474006,1.5347649699823984,-1.3000364173358028,0.10175954320273316,-0.13196595531268054,-3.4403117584584626,,,,,,,,,
40,40,1.9826512,-1.675574064,-2.8689942360000003,-0.4680959284,2.14465818,1.237328529,0.5224027634,-4.977697849,2.156099378,0.6650599240999999,-0.354978621,-0.5423560143,0.0,1.0,0.0,0,30.0,,,,,,-4.966642347779163,-5.688886448286118,-1.8583737601144423,0.5156737920279829,0.2130959015181102,-0.7742876657100944,0.8382852639366899,0.31320588831435786,-4.60773064849083,,,,,,,,,
41,41,2.0326512,-5.218746185,-5.612664700000002,0.5303093195,2.19465818,-3.405849457,-1.105115414,-1.121827364,2.206099378,0.4225535989,-0.9358180165,-0.3588727713,0.0,1.0,0.0,0,30.0,,,,,,-5.091000667125046,-5.654333721570832,-0.2764566284311636,0.4442350485968122,-0.5904437929950819,-0.4860343846786454,-1.9144443563542488,-0.6516885065953724,-1.960699191987904,,,,,,,,,
42,42,2.0826512,-1.172782183,-5.200799942,-2.998805046,2.24465818,-3.405849457,-1.105115414,-1.121827364,2.256099378,0.2938175201,-0.5091412067000001,-0.9058864713,0.0,1.0,0.0,0,30.0,,,,,,-3.1582134856989628,-5.448738481342812,-2.0793452732463016,0.32883967773590056,-0.5335815213355037,-0.7773666000760003,-2.8817640259603947,-0.960158160490208,-1.3236992710199402,,,,,,,,,
43,43,2.1326512,-9.00150013,-9.634700775,-6.841379166,2.29465818,0.07170009613,1.540316582,0.7358776331,2.3060993780000003,0.6152759193999999,0.4963133931,-1.707394481,0.0,1.0,0.0,0,30.0,,,,,,-6.040602399894831,-7.3463125148048425,-5.233025667414347,0.5485841229385979,0.18671739047997293,-1.4227059743394102,-0.9661584417061536,0.7409331648741242,0.2402468305497425,,,,,,,,,
44,44,2.1826512000000005,-8.936893462999999,-8.195716857999999,-4.468596458,2.34465818,-0.2887825966,1.728999615,1.953124523,2.356099378,0.9087116718,-0.01580567285,-2.001670122,0.0,1.0,0.0,0,30.0,,,,,,-7.469291040651214,-7.731363194256117,-4.726778659610964,0.8248621105392195,0.04507464606966405,-1.8244448562039477,-0.5268150476755369,1.4131220249859706,1.5409258119832543,,,,,,,,,
45,45,2.2326512000000003,-5.211567879,-7.025028229,-0.8991031051,2.39465818,-0.2887825966,1.728999615,1.953124523,2.406099378,0.4579063654,-1.124188066,-1.463437319,0.0,1.0,0.0,0,30.0,,,,,,-6.355596537927128,-7.411168506540892,-2.1918816756026973,0.5433457557939322,-0.7726968051461953,-1.5739444323523584,-0.3724281062103516,1.628015868420582,1.8539301800811077,,,,,,,,,
46,46,2.2826512,-4.536492825,-7.597211838,0.0466600433,2.44465818,-0.2887825966,1.728999615,1.953124523,2.456099378,0.029397023839999994,0.1289651245,-0.4999784827000001,0.0,1.0,0.0,0,30.0,,,,,,-5.4582651734661205,-7.495505385293709,-0.7093963993659154,0.14906122568494035,-0.14208284868564106,-0.828727511065084,-0.318175947150203,1.6967158524375965,1.929253711749436,,,,,,,,,
47,47,2.3326512000000004,-4.536492825,-7.597211838,0.0466600433,2.49465818,-2.538100243,-2.473462105,1.3641139269999998,2.506099378,-0.3387911618,1.496423125,0.5417451859,0.0,1.0,0.0,0,30.0,,,,,,-5.003571340733624,-7.541610798984963,-0.2086942972827731,-0.2252030489281876,1.003872970185279,0.12223321935429787,-1.758010392812331,-1.140286828897365,1.5001130656240411,,,,,,,,,
48,48,2.3826512,-3.411267757,-10.0082798,-5.323431969,2.54465818,-3.124614,-4.003750801,-0.354210794,2.5560993780000003,0.4759263694,-0.1607291847,0.1682120711,0.0,1.0,0.0,0,30.0,,,,,,-4.218116428761801,-8.659797423166477,-3.5959545058585816,0.3126803353003481,0.18936106889848314,0.1541375998657335,-2.6443842892899743,-3.0883223924426733,0.0920264991700248,,,,,,,,,
49,49,2.4326512000000005,-5.4008998870000005,-11.40867901,0.9203394055,2.59465818,-3.124614,-4.003750801,-0.354210794,2.606099378,1.293239951,-0.2007396817,-0.4434750974,0.0,1.0,0.0,0,30.0,,,,,,-4.801562378938689,-9.90591622482927,-0.6050166241712027,1.0649333584845369,-0.08347176309881926,-0.2605413706785723,-2.9558594513865866,-3.711095059826517,-0.24682517157371825,,,,,,,,,
50,50,2.4826512000000003,-6.032904147999999,-13.84128284,-1.650748491,2.64465818,-3.124614,-4.003750801,-0.354210794,2.656099378,0.2874036431,0.2839676142,-0.2729723752,0.0,1.0,0.0,0,30.0,,,,,,-5.408961276383852,-11.689890610068474,-1.2975577024994611,0.4684381841519288,0.17351191542399735,-0.26916715149336884,-3.0653130092910392,-3.910190909254713,-0.32836877656313185,,,,,,,,,
51,51,2.5326512,-3.42323184,-9.105587006,-1.610070586,2.69465818,-0.5018296242,0.6164493561,-1.346807361,2.706099378,0.560452342,-0.4064424932,-0.8249492048999999,0.0,1.0,0.0,0,30.0,,,,,,-4.429436419509619,-10.518378047317519,-1.5045208985904983,0.5390284137763103,-0.2321027968858993,-0.6548201518567669,-1.4026474461850815,-0.8306843026096105,-1.1017232699482868,,,,,,,,,
52,52,2.5826512000000004,-0.8641080856000001,-7.204789162000001,-0.4585246444,2.74465818,1.824649692,1.171337128,-0.5234876871,2.756099378,0.7324821949,-0.3442887962,-0.6917845011,0.0,1.0,0.0,0,30.0,,,,,,-2.6707236451521763,-9.016266994798562,-0.8118047286036361,0.6874397794365312,-0.3105646400149652,-0.680469436670561,0.6905651894156541,0.5313055750605921,-0.6626382890666855,,,,,,,,,
53,53,2.6326512,-4.203890324,-9.71605587,0.4848456979,2.79465818,1.824649692,1.171337128,-0.5234876871,2.8060993780000003,1.490085483,-1.954711199,-0.7372162938,0.0,1.0,0.0,0,30.0,,,,,,-3.4270073784209902,-9.333494218885138,0.04690840122392948,1.303203111924338,-1.46046543139193,-0.7198456554288235,1.4261280794864597,0.9667237393587708,-0.5569738484599552,,,,,,,,,
54,54,2.6826512000000005,-0.5862415433,-8.073682785,-1.624427438,2.84465818,1.761046171,1.748624802,-2.072989464,2.856099378,1.165725589,-3.831768513,-1.603779435,0.0,1.0,0.0,0,30.0,,,,,,-2.0257083407627845,-8.762398423905605,-1.0599419880504786,1.1977348867176805,-3.118932722668111,-1.3332006786294321,1.6433546785614992,1.4986567726649176,-1.7081650017510068,,,,,,,,,
55,55,2.7326512000000003,-1.5918252469999998,-8.954839706,0.9562317729,2.89465818,1.082684278,-1.102564812,-2.277587891,2.906099378,0.8832087517,-1.431367874,0.2573194206,0.0,1.0,0.0,0,30.0,,,,,,-1.8116815616130948,-8.849635612164013,0.27527901306165714,0.9564408010413116,-1.9386655838054476,-0.2295507053832664,1.2797059918301208,-0.27097336909078584,-2.140558036174654,,,,,,,,,
56,56,2.7826512,-0.4402793646,-8.743971825,0.7552346587000001,2.94465818,1.082684278,-1.102564812,-2.277587891,2.956099378,0.4591280818,-1.093645692,-0.03527642787,0.0,1.0,0.0,0,30.0,,,,,,-1.1351933572095785,-8.801736265395352,0.5931320027666889,0.5749188716475933,-1.3476665410084323,-0.0947452406220724,1.1519184587179778,-0.8367111329631938,-2.2446120805942265,,,,,,,,,
57,57,2.8326512000000004,0.2419741899,-7.9827556610000014,-1.071386337,2.99465818,1.082684278,-1.102564812,-2.277587891,3.006099378,0.1468324065,-0.8875610828,-0.04161396995,0.0,1.0,0.0,0,30.0,,,,,,-0.4558612086165213,-8.430477228712265,-0.5092034642516297,0.24650504307875426,-1.025873068500986,-0.057877850211227586,1.1070134330305084,-1.0175733424833209,-2.269652364081916,,,,,,,,,
58,58,2.8826512,-4.900500774,-17.02762413,5.052743912,3.04465818,-0.1180131584,1.15801239,-0.3302748203,3.0560993780000003,-0.03917058185,-0.6207735538,0.03161134571,0.0,1.0,0.0,0,30.0,,,,,,-2.6483225052253987,-12.327722730986213,3.1742235733114117,0.02734411800016065,-0.7425502406212758,0.004218031967072725,0.3124658500990585,0.4624936043501868,-0.7969800191131728,,,,,,,,,
59,59,2.9326512000000005,1.836491346,-6.807281494,1.08335042,3.09465818,-0.7843054533,1.608576775,0.5682368279,3.106099378,0.06604786217,-0.4133908749,0.2868691385,0.0,1.0,0.0,0,30.0,,,,,,-0.4360439511154959,-9.825204741324043,1.7895325317764834,0.05703635505722528,-0.5123392456518852,0.20034751583588015,-0.3988958413220176,1.2421823994968166,0.239701622315307,,,,,,,,,
60,60,2.9826512000000003,0.3161516786,-8.385048866,2.012064695,3.14465818,-0.7843054533,1.608576775,0.5682368279,3.156099378,0.1034622565,-0.3079433739,0.170197323,0.0,1.0,0.0,0,30.0,,,,,,-0.06499928458087363,-9.172355479714149,1.9369055528881716,0.0926527766840376,-0.3693866764885367,0.17942652302836967,-0.6488710482016447,1.491443182908314,0.4891758482587003,,,,,,,,,
61,61,3.0326512,-0.5599204898,-7.870292664,3.48933363,3.19465818,-0.7843054533,1.608576775,0.5682368279,3.206099378,0.2695363462,-0.1123958975,-0.6502469182,0.0,1.0,0.0,0,30.0,,,,,,-0.3091350735985615,-8.582106352649397,2.9650086910699898,0.2283520220631613,-0.18964971900961053,-0.3962776580591387,-0.7367132876813696,1.5711300253173155,0.5492110479988019,,,,,,,,,
62,62,3.0826512000000004,-1.211067319,-9.43848896,6.2952170370000005,3.24465818,8.322319031000001,-3.710295677,-0.131074667,3.256099378,-0.9784246087,1.972120404,-0.5940489769,0.0,1.0,0.0,0,30.0,,,,,,-0.7540421376613538,-8.970320408310501,5.170455566709087,-0.6974472400588694,1.3222721727531914,-0.5335096935767085,5.138940581736421,-2.021862655792483,0.03263398318307986,,,,,,,,,
63,63,3.1326512,-1.211067319,-9.43848896,6.2952170370000005,3.29465818,3.598985434,0.8732366562,1.007287264,3.3060993780000003,-0.8974109887999999,0.3904077411,-0.4283566475,0.0,1.0,0.0,0,30.0,,,,,,-0.979484495056256,-9.182549861210623,5.915334389025849,-0.8508528383464247,0.6705348676334976,-0.4605447831950595,4.140131536030418,-0.052305338322924166,0.7727399708096889,,,,,,,,,
64,64,3.1826512000000005,6.658328056,-13.35284805,1.614856124,3.34465818,3.598985434,0.8732366562,1.007287264,3.356099378,-0.8163210154,-0.4297310412,0.035200074320000004,0.0,1.0,0.0,0,30.0,,,,,,2.7881119909796097,-11.073023067862868,3.0673214818030043,-0.8243611617367901,-0.098980862286848,-0.1165511430007148,3.7891462343973994,0.577347675779945,0.9508441842930112,,,,,,,,,
65,65,3.2326512000000003,6.658328056,-13.35284805,1.614856124,3.39465818,3.598985434,0.8732366562,1.007287264,3.406099378,-1.220396519,-0.2411319613,0.1357607991,0.0,1.0,0.0,0,30.0,,,,,,4.6972204366139945,-12.106509847950985,2.1054191464042686,-1.1281864363639478,-0.1984000171236079,0.05852622209100525,3.66580866302474,0.7786431215393983,0.993704411599423,,,,,,,,,
66,66,3.2826512,-0.8330013752,-9.081659317,-4.114458561,3.44465818,0.17474687100000005,0.4782905579,-1.165656567,3.456099378,-1.216349602,0.164623335,-0.1861557066,0.0,1.0,0.0,0,30.0,,,,,,1.969260811395564,-10.735289225371213,-2.0137254928387573,-1.1958223114509237,0.055495134538809804,-0.11125673396039004,1.4015192769544202,0.5743110673108297,-0.6460130357174375,,,,,,,,,
67,67,3.3326512000000004,-4.373780727,-11.97368431,0.3050848842,3.49465818,0.17474687100000005,0.4782905579,-1.165656567,3.506099378,-1.222229004,0.4698179066,-0.2524326444,0.0,1.0,0.0,0,30.0,,,,,,-1.159648264533541,-11.296676594046223,-0.4780819025187275,-1.216080655677074,0.3452686227670123,-0.2092176398435197,0.6058393653927644,0.5089876097593906,-1.0406059604764628,,,,,,,,,
68,68,3.3826512,-0.8593224287000001,-9.751948357,-0.1833500415,3.54465818,0.17474687100000005,0.4782905579,-1.165656567,3.5560993780000003,-1.1199884409999998,0.4353050292,-0.3181750774,0.0,1.0,0.0,0,30.0,,,,,,-1.0115028948840077,-10.596422748850673,-0.2828942762637183,-1.142361875628866,0.4082392468900916,-0.2848223889734276,0.3262344149135668,0.4881041799784646,-1.1355635255890777,,,,,,,,,
69,69,3.4326512000000005,-0.8593224287000001,-9.751948357,-0.1833500415,3.59465818,-0.7459881306,0.7119588852,-0.05262982845,3.606099378,-1.022481918,0.07498150319,-0.5428904890999999,0.0,1.0,0.0,0,30.0,,,,,,-0.9364349895422838,-10.213606907203788,-0.21697061662738995,-1.0503939230053152,0.17516188455541026,-0.4638939090027588,-0.3692050455924164,0.6403941794546038,-0.3132344683391873,,,,,,,,,
70,70,3.4826512000000003,0.9939187169,-9.527023315,0.5925226808,3.64465818,-0.6072188615999999,0.3118429184,-0.3130850792,3.656099378,-0.9313129783,0.02970244735,-0.6489488482,0.0,1.0,0.0,0,30.0,,,,,,0.015774009080145812,-9.902365882056431,0.3191203056257843,-0.9590389464836788,0.07342890883264312,-0.5923021440502613,-0.5235799004027446,0.4168783443660496,-0.3131210292283925,,,,,,,,,
71,71,3.5326512,0.1247258782,-9.354740142999999,-0.16181463,3.69465818,-0.6072188615999999,0.3118429184,-0.3130850792,3.706099378,-0.5964159966,0.1925695986,-0.5692332983,0.0,1.0,0.0,0,30.0,,,,,,0.0695180197673326,-9.654117018380703,0.0006187762954830145,-0.6808465694392705,0.1567547976744868,-0.5762948449246856,-0.5778278121663564,0.3454219729190667,-0.3130937304577514,,,,,,,,,
72,72,3.5826512000000004,0.5222335458,-9.404989243,-1.028315544,3.74465818,-0.6072188615999999,0.3118429184,-0.3130850792,3.756099378,-0.1664558798,0.34192174670000003,-0.3775799572,0.0,1.0,0.0,0,30.0,,,,,,0.29283450122105703,-9.541182795556187,-0.6807980440224333,-0.2862229839630845,0.28625883739536473,-0.4384080740634547,-0.596890734909366,0.3225778955929736,-0.3130871610931531,,,,,,,,,
73,73,3.6326512,-0.052342996,-9.706484795,-0.4537389874,3.79465818,-2.45583725,-1.026257515,2.371519089,3.806099378,0.347266674,0.29809346800000003,-0.2611372173,0.0,1.0,0.0,0,30.0,,,,,,0.12256460825851904,-9.61611724529094,-0.5304270657338759,0.19976940517384395,0.2945358677906194,-0.3154011554834729,-1.8025963664878712,-0.5950447372160768,1.7254769101469307,,,,,,,,,
74,74,3.682651200000001,0.1989033818,-10.37677479,0.9203394055,3.84465818,-2.374064922,-0.5234241486,0.8846189976000001,3.856099378,1.043403506,-0.4055262208,0.17951273920000002,0.0,1.0,0.0,0,30.0,,,,,,0.16022116150595975,-9.960937360692837,0.4303501736430088,0.8469776858027096,-0.19508103733077486,0.02801588582207787,-2.17324869593863,-0.5463207249218818,1.086968849721802,,,,,,,,,
75,75,3.7326512,-0.4977070987,-10.87956619,0.81744802,3.89465818,-2.374064922,-0.5234241486,0.8846189976000001,3.906099378,1.577513099,-0.4382829070000001,0.3723877668,0.0,1.0,0.0,0,30.0,,,,,,-0.164323095717086,-10.377368779687718,0.6867076285047914,1.4074203799887477,-0.3651741600588356,0.2669729524192748,-2.3034973357687787,-0.5307440159182356,0.9333138627253276,,,,,,,,,
76,76,3.7826512,-0.4977070987,-10.87956619,0.81744802,3.94465818,-2.374064922,-0.5234241486,0.8846189976000001,3.956099378,1.399832845,-0.1126249656,0.6629983186999999,0.0,1.0,0.0,0,30.0,,,,,,-0.3287754686670794,-10.605024143873852,0.7732910965442253,1.4015994729866728,-0.18854360543607845,0.541771985193612,-2.349267203727635,-0.5257642564124041,0.8963372660427944,,,,,,,,,
77,77,3.8326512,-1.847857237,-12.81655598,-0.4680959284,3.99465818,1.67446363,-0.9578962326,-1.854647636,4.006099378,1.232995152,-0.024586603050000003,0.5603759885,0.0,1.0,0.0,0,30.0,,,,,,-1.0781113673086566,-11.607552376551856,-0.048823573509485074,1.272251794599783,-0.0738736048861837,0.5546811636084802,0.2605092944668992,-0.8197468124858118,-1.1926316406671966,,,,,,,,,
78,78,3.8826512,2.688934565,-11.58335495,0.5135595798,4.04465818,1.67446363,-0.9578962326,-1.854647636,4.056099378,1.3452383280000002,0.01305686031,0.5697677732,0.0,1.0,0.0,0,30.0,,,,,,0.7801050945725272,-11.596583236083958,0.3236174390560104,1.3282446577571851,-0.013075247109617391,0.5651496488710891,1.1775946926734275,-0.9137308772720591,-1.6953355375966237,,,,,,,,,
79,79,3.932651200000001,3.019144058,-10.39830971,-1.241575837,4.09465818,1.67446363,-0.9578962326,-1.854647636,4.106099378,1.2197855709999998,-0.4807367921,0.4798205197,0.0,1.0,0.0,0,30.0,,,,,,1.8845830160720412,-11.053383710392342,-0.7129395153333402,1.2450384207130671,-0.3401533763622072,0.5059404058130709,1.4998619934118125,-0.9437768927626518,-1.816309673294047,,,,,,,,,
80,80,3.9826512,3.019144058,-10.39830971,-1.241575837,4.14465818,0.9746255279,0.7702617645000001,-2.473304987,4.156099378,0.9426136613,-0.4329380095000001,0.7671477795,0.0,1.0,0.0,0,30.0,,,,,,2.4442417098219114,-10.756426564013868,-1.0630315225262348,1.0130281116111663,-0.40504608468119785,0.6871902442064012,1.1591956216953403,0.22229619009085888,-2.3152010997296504,,,,,,,,,
81,81,4.0326512,2.758326292,-9.14626503,0.02991028316,4.19465818,-0.3857208788,-0.2937011719,-1.763615489,4.206099378,0.6936933994,-0.4794387519,0.8274689913,0.0,1.0,0.0,0,30.0,,,,,,2.5991740232706912,-10.026510596705,-0.3392254299093731,0.7680450440163606,-0.4570756233445608,0.7845286151780578,0.15716866172805855,-0.128740603655358,-1.8963528577195208,,,,,,,,,
82,82,4.0826512,2.300997972,-8.909376144,-0.3245265782,4.24465818,-0.3857208788,-0.2937011719,-1.763615489,4.256099378,0.64077878,-0.2987042964,0.5637356639,0.0,1.0,0.0,0,30.0,,,,,,2.4520891041805117,-9.520092913081736,-0.3294910429776442,0.6704105602764867,-0.34631219214792874,0.6313220414901177,-0.1949474272286031,-0.24096448933911596,-1.7955583256399854,,,,,,,,,
83,83,4.1326512000000015,0.01704886183,-9.840482712,0.9921240807,4.29465818,-0.3857208788,-0.2937011719,-1.763615489,4.306099378,0.5719057322,-0.7969266176,0.3915531039,0.0,1.0,0.0,0,30.0,,,,,,1.250927253362548,-9.665331527275336,0.5457550804686266,0.5948409023421604,-0.6614677247786173,0.4649481731796762,-0.3186823615722699,-0.2768416416557081,-1.7713024337007597,,,,,,,,,
84,84,4.1826512000000005,0.01704886183,-9.840482712,0.9921240807,4.34465818,0.9012659192,0.3927297592,-1.906070232,4.356099378,0.2557159364,-0.9933140278,0.3438306451,0.0,1.0,0.0,0,30.0,,,,,,0.6422770854186938,-9.744730794717594,0.8413651488276963,0.3346754042621716,-0.8935579386366899,0.3809056284115946,0.4725714483811512,0.17867269828354798,-1.8736387790725697,,,,,,,,,
85,85,4.1826512000000005,1.5107684140000002,-9.792626381,0.6810571551000001,4.39465818,0.7207149267,1.007080078,-3.0596828460000003,4.406099378,-0.1590493619,-0.731107831,0.1865374744,0.0,1.0,0.0,0,30.0,,,,,,1.0706883424349685,-9.76644274870018,0.7352003906238272,-0.04409396580207475,-0.7799418462449629,0.2460350234511497,0.633516363623606,0.7422443208735268,-2.7742650150551214,,,,,,,,,
86,86,4.2826512,0.7088736892,-9.265906334,2.1774685380000003,4.44465818,0.7207149267,1.007080078,-3.0596828460000003,4.456099378,-0.4302655458,-0.4230880737,0.1900498569,0.0,1.0,0.0,0,30.0,,,,,,0.8922116376130537,-9.539540345664044,1.6903495733430147,-0.3403520758285964,-0.5303616411069151,0.20718733608402248,0.6900730196386148,0.9224140309292532,-2.9909979291023503,,,,,,,,,
87,87,4.3326512,0.6059823632,-8.19093132,0.7193422914000001,4.49465818,0.7207149267,1.007080078,-3.0596828460000003,4.506099378,-0.4089622498,-0.16859383879999998,0.2119639963,0.0,1.0,0.0,0,30.0,,,,,,0.7510198498946989,-8.928190962078007,1.04729521947023,-0.3929875402354303,-0.2773446093037618,0.21050182479274565,0.709947243902124,0.9800129644461408,-3.0431540335491163,,,,,,,,,
88,88,4.3826512000000015,1.221236825,-7.966005802000001,1.17906332,4.54465818,-0.016377195719999998,-0.2971773148,0.8781108856000001,4.556099378,-0.2520508468,-0.1516428292,0.08651123941,0.0,1.0,0.0,0,30.0,,,,,,0.9829694835261368,-8.49201465500616,1.1345592929966168,-0.2848655535748712,-0.18942995493846165,0.12446568711085933,0.23885597785089274,0.11113104050051548,-0.06552937126796365,,,,,,,,,
89,89,4.4326512000000005,0.4935196638,-8.531010627999999,3.233002424,4.59465818,-0.016377195719999998,-0.2971773148,0.8781108856000001,4.606099378,-0.2638096511,-0.5396835804,-0.001832541777,0.0,1.0,0.0,0,30.0,,,,,,0.7415326312280733,-8.509692249807086,2.5242635896914902,-0.2687121591157789,-0.43439407869345337,0.0368282929009075,0.0733127132774345,-0.16664413134102135,0.6510267806756197,,,,,,,,,
90,90,4.4826512,-0.03320041299,-9.759127617,3.652045488,4.64465818,-0.016377195719999998,-0.2971773148,0.8781108856000001,4.656099378,-0.5783196688000001,-0.5600705743,-0.04909684882,0.0,1.0,0.0,0,30.0,,,,,,0.3593706607205637,-9.076084382044069,3.2711427054396385,-0.5062328374886564,-0.5222910492912511,-0.022794518784435527,0.01514017979926608,-0.25544681438132816,0.8234637991461882,,,,,,,,,
91,91,4.5326512,-0.1193420291,-9.376275063,4.135694981,4.69465818,-0.3335576355,0.7223749161,0.1856272221,4.706099378,-0.06016845629,-0.4314872324,0.2006633282,0.0,1.0,0.0,0,30.0,,,,,,0.1232302427889778,-9.212166362830065,3.843696706855616,-0.16402694416400554,-0.4587837054408575,0.13226120602970098,-0.21102389556430184,0.40977248791824655,0.3391206186717207,,,,,,,,,
92,92,4.5826512,-0.05952146277000001,-9.534201622000001,3.494119167,4.74465818,0.8087519406999999,-2.809228897,1.793990612,4.756099378,-0.1186570823,0.1597365588,0.3839175105,0.0,1.0,0.0,0,30.0,,,,,,0.03308209120213862,-9.358150894650203,3.6121872599344433,-0.1292206813085317,-0.026196392877842145,0.3068836291258201,0.4503988290512674,-1.7801377878911704,1.4438806545109504,,,,,,,,,
93,93,4.6326512000000015,-0.5264210105,-8.681758881,2.912364244,4.79465818,0.8087519406999999,-2.809228897,1.793990612,4.806099378,-0.31153211,-0.3280249834,-0.5027272701,0.0,1.0,0.0,0,30.0,,,,,,-0.2429107936315319,-9.051529899957117,3.148726021910322,-0.2690840013570868,-0.23729249818103745,-0.2548993044855028,0.6828252928524988,-2.4802360249659885,1.7097377352000769,,,,,,,,,
94,94,4.6826512000000005,0.9457631707,-11.20289612,3.587439299,4.84465818,0.8087519406999999,-2.809228897,1.793990612,4.856099378,-0.5369347334000001,0.08467870206,-0.3523825109000001,0.0,1.0,0.0,0,30.0,,,,,,0.3434408379378904,-10.026783948035837,3.4392660497035963,-0.4745702560232212,-0.012108839234175023,-0.32254217061815943,0.7645008371975223,-2.7040522913078164,1.773715418189716,,,,,,,,,
95,95,4.7326512,-1.3716856240000002,-13.48206043,5.086243629,4.89465818,-0.4496144354,-1.776398659,-1.659831047,4.906099378,-0.6065713167,0.3810923398,-0.1851630807,0.0,1.0,0.0,0,30.0,,,,,,-0.5026004059505661,-11.593124606414829,4.529985061843387,-0.5758371197289704,0.2628924034903395,-0.22721585000328565,-0.022969705879717583,-2.0729627143405294,-0.8335587254241836,,,,,,,,,
96,96,4.7826512,3.907479286,-4.3271207810000005,-0.879960537,4.94465818,-0.2147759497,-0.1617469788,0.003715753555,4.956099378,-0.4992149174,0.330239296,-0.1131594554,0.0,1.0,0.0,0,30.0,,,,,,1.6728131223945213,-8.299310850218978,0.9472219497055944,-0.5170550911829987,0.30999419288552826,-0.14807297280191198,-0.14737450532877944,-0.7727486174708258,-0.19777175639784786,,,,,,,,,
97,97,4.8326512,0.1079761237,-11.24118137,0.3002992272,4.99465818,-0.2147759497,-0.1617469788,0.003715753555,5.006099378,-0.6212316751,0.2689255178,-0.03023693897,0.0,1.0,0.0,0,30.0,,,,,,0.9009069859364436,-9.632915102515136,0.5187941912128361,-0.5969759332891433,0.2812711439991414,-0.06630743230175755,-0.19109082552726173,-0.3570797167429838,-0.044771591618056994,,,,,,,,,
98,98,4.8826512000000015,0.3544368446,-9.412167549,1.856531262,5.04465818,-0.2147759497,-0.1617469788,0.003715753555,5.056099378,-0.6943042873999999,0.08032641559999999,-0.06757497787000001,0.0,1.0,0.0,0,30.0,,,,,,0.6313430276149861,-9.532846158782004,1.4047171538103842,-0.6716430391585821,0.1407322723423167,-0.06718697267249958,-0.2064529068951816,-0.2241934209796429,-0.00795257587369142,,,,,,,,,
99,99,4.9326512000000005,0.7902296781999999,-9.977172852,0.3840480447,5.09465818,-0.3602710366,-0.27476310730000003,-0.6691744328,5.106099378,-0.7572978734999999,0.03634541109,-0.132324785,0.0,1.0,0.0,0,30.0,,,,,,0.709718973898152,-9.734267656496495,0.7287740103716872,-0.7373546053305786,0.06772507373268989,-0.11238561232627392,-0.30621876017435434,-0.2585963498608105,-0.5100534409957583,,,,,,,,,
100,100,4.9826512,-0.1073779166,-10.04895782,-0.08015955985,5.14465818,-0.3602710366,-0.27476310730000003,-0.6691744328,5.156099378,-0.7879929543,0.1405712217,-0.03985778242,0.0,1.0,0.0,0,30.0,,,,,,0.3066596748407832,-9.87692252289748,0.1930537701924964,-0.7762026778513273,0.11867299121552485,-0.06205909487340675,-0.3412768608757901,-0.26959471364126875,-0.6308824589565992,,,,,,,,,
101,101,5.0326512,-0.03320041299,-10.26670456,0.4486542344,5.19465818,-0.3602710366,-0.27476310730000003,-0.6691744328,5.206099378,-0.8570187092,0.09429954737,-0.020310672,0.0,1.0,0.0,0,30.0,,,,,,0.13901276493897552,-10.053617920305118,0.3623264362327008,-0.838202073817817,0.10162643158141207,-0.03309017721542544,-0.3535964109462207,-0.27311080979299823,-0.6599595878674046,,,,,,,,,
102,102,5.0826512,1.03698957,-9.699306488,0.06340979785,5.24465818,0.3095627427,0.09926319122000002,0.1162693202,5.256099378,-0.8175426722,0.3197785318,-0.2544178963,0.0,1.0,0.0,0,30.0,,,,,,0.5819686808192701,-9.893002002998424,0.1643674205544163,-0.8223528616889846,0.2541999788292246,-0.1866678222486816,0.07652609113249242,-0.019782042969174463,-0.07052776216093913,,,,,,,,,
103,103,5.1326512000000015,0.1965105534,-9.986744881,0.4654040039,5.29465818,0.7415060997,0.4822378159,1.299253106,5.306099378,-0.7511894106999999,0.1498102844,-0.3545204699,0.0,1.0,0.0,0,30.0,,,,,,0.391829072553426,-9.935497381126128,0.36373038019402987,-0.7677586072526069,0.18119079870394045,-0.30313951612200274,0.5078295927742774,0.32174575276964473,0.9696195829896512,,,,,,,,,
104,104,5.1826512000000005,0.4576273263,-9.97956562,-0.4776672125,5.34465818,0.7415060997,0.4822378159,1.299253106,5.356099378,-0.6505523324,0.03489464894,-0.3077143133,0.0,1.0,0.0,0,30.0,,,,,,0.4242861756502577,-9.955474328054844,-0.19348931871848316,-0.6778418156884999,0.07887263400620068,-0.3063139335663585,0.6593912854420848,0.43092968160454653,1.2199278197989374,,,,,,,,,
105,105,5.2326512,1.424626827,-9.548559189,0.3266202807,5.39465818,0.7415060997,0.4822378159,1.299253106,5.406099378,-0.3541387022,0.2476985604,-0.2189887464,0.0,1.0,0.0,0,30.0,,,,,,0.9177363485118012,-9.771012178662241,0.15095582461740692,-0.4295074545355727,0.19694791462990616,-0.2457196408423125,0.7126506413176816,0.4658349820356176,1.2801637216706117,,,,,,,,,
106,106,5.2826512,0.1701895148,-9.675378799,0.12323036789999997,5.44465818,-1.448030949,-0.247926712,1.627795458,5.456099377999999,-0.2583884001,0.4879906178,-0.05352549255,0.0,1.0,0.0,0,30.0,,,,,,0.5489848499572004,-9.727659801261265,0.13259450438155782,-0.2982305551388329,0.40050047072965306,-0.11235756215622753,-0.6887592111189786,-0.019742338808114882,1.5441389573016655,,,,,,,,,
107,107,5.3326512,-0.7226324677,-9.833304405,-1.107278705,5.49465818,-1.77386868,-0.1334161758,1.0758003,5.506099377999999,-0.1626380831,0.6123743653,-0.06978929788,0.0,1.0,0.0,0,30.0,,,,,,-0.07828125608133141,-9.775550451764687,-0.6885176336050389,-0.1942084790049919,0.5486830994436024,-0.08281976269399544,-1.3925570810740555,-0.09707548472436346,1.1885045469555358,,,,,,,,,
108,108,5.3826512000000015,-0.07148557901000001,-10.38873863,0.9035896659,5.54465818,-1.77386868,-0.1334161758,1.0758003,5.556099378,-0.1043021679,0.6730773448999999,-0.09429954737,0.0,1.0,0.0,0,30.0,,,,,,-0.0749290699851816,-10.053519981147772,0.3658632652454568,-0.12523531995819345,0.6356832762354676,-0.09078549922355053,-1.6398743322912313,-0.12179832370159242,1.102922227664453,,,,,,,,,
109,109,5.4326512000000005,-0.5503492354999999,-9.96042347,0.05144568533,5.59465818,-1.77386868,-0.1334161758,1.0758003,5.606099378,0.1146102175,0.3991886973,-0.1817270666,0.0,1.0,0.0,0,30.0,,,,,,-0.3094453445157024,-10.011317612701275,0.15763867470814594,0.05876627234232772,0.4702811702150169,-0.1538891710928609,-1.7267825560309873,-0.12970203381001008,1.0823271076137464,,,,,,,,,
110,110,5.4826512,0.6849454641,-10.01545811,-1.566999674,5.64465818,-0.4299702644,-2.515199661,-0.3087291718,5.656099378,0.635891974,0.35261157159999995,-0.1450762302,0.0,1.0,0.0,0,30.0,,,,,,0.1810698771144938,-10.013194575250221,-0.9845115639816928,0.5015180916077762,0.38798414875914394,-0.1477739374529823,-0.8856750413229335,-1.7525735838449157,0.02602421315365544,,,,,,,,,
111,111,5.5326512,0.5341976285,-10.73360443,-2.227717876,5.69465818,-0.4299702644,-2.515199661,-0.3087291718,5.706099377999999,1.356462717,-0.05123481527,0.1044548824,0.0,1.0,0.0,0,30.0,,,,,,0.3552614884276194,-10.339769670786449,-1.8078310661260368,1.1574034337775176,0.08079849573822917,0.027245749798443963,-0.5901066581321976,-2.2713937034310354,-0.2281718065560052,,,,,,,,,
112,112,5.5826512,1.221236825,-12.69661617,-2.328216314,5.74465818,-0.4299702644,-2.515199661,-0.3087291718,5.756099377999999,1.840101004,-0.08956547827,0.4320980906,0.0,1.0,0.0,0,30.0,,,,,,0.7824316517526004,-11.40817172726912,-2.152458759189796,1.6811465112631507,-0.038352481089970775,0.3081697540729985,-0.4862428029004341,-2.4372566865374714,-0.2893432913404536,,,,,,,,,
113,113,5.6326512000000015,0.2419741899,-11.27707386,1.487737536,5.79465818,-0.2861153483,0.6723632812,0.381280601,5.806099378,1.6763175730000002,0.280531615,0.570913136,0.0,1.0,0.0,0,30.0,,,,,,0.5158336408022757,-11.34874264239162,0.2582791624227609,1.6774419086523382,0.1846720859793504,0.49048541709740706,-0.3564408978585236,-0.3217593919339503,0.2198970385488892,,,,,,,,,
114,114,5.6826512000000005,0.09361918271,-11.92582798,0.8246265054,5.84465818,1.70158422,-0.2595853806,-0.6233855486,5.856099378,1.3569971319999998,0.2476222068,0.5049416422999999,0.0,1.0,0.0,0,30.0,,,,,,0.30756279126595537,-11.610346086225091,0.633345479066725,1.4316072364088224,0.2286988142354616,0.500516483381214,0.9783863575967664,-0.27946195551695424,-0.4204522060193144,,,,,,,,,
115,115,5.7326512,0.3592225015,-9.632308006,1.167099237,5.89465818,1.70158422,-0.2595853806,-0.6233855486,5.906099378,1.218411207,-0.1184280142,0.5996229649,0.0,1.0,0.0,0,30.0,,,,,,0.33304560345850176,-10.713664885047892,0.9868265338292754,1.2680502686179598,-0.01407845681333328,0.5692857279108022,1.4474497375272009,-0.26593977563797355,-0.5745502682768494,,,,,,,,,
116,116,5.7826512,2.07098794,-9.651450157000001,0.6930212379,5.94465818,1.70158422,-0.2595853806,-0.6233855486,5.956099377999999,0.9194014668,-0.5246414542,0.5347967744,0.0,1.0,0.0,0,30.0,,,,,,1.1903415105530568,-10.232143327012317,0.7922525298285603,1.0005783975280562,-0.3711614623556985,0.5453541016129335,1.6122803951966218,-0.2616168340091509,-0.6116334896485549,,,,,,,,,
117,117,5.8326512,2.9856443410000004,-12.01914787,0.1447657645,5.99465818,1.24689579,-0.1356620789,-2.1060884,6.006099377999999,0.6349757314,-0.4874561131,0.6768951416,0.0,1.0,0.0,0,30.0,,,,,,2.0759323244180683,-11.042225498326108,0.36345123115725547,0.720100080393079,-0.4524968580409282,0.6366294431422477,1.3752933315352736,-0.17592888933225884,-1.7464524547329603,,,,,,,,,
118,118,5.8826512000000015,0.280259341,-9.725627899,0.1495514214,6.04465818,0.22288063170000005,0.1140880585,-1.537914515,6.056099378,0.5790068507,-0.6904101372,0.4010975957,0.0,1.0,0.0,0,30.0,,,,,,1.1901589204665628,-10.4453874856246,0.22179502887536368,0.6118580042775944,-0.6188911897957181,0.4731956598990925,0.6278428422313932,0.02137176953408354,-1.5880985239134675,,,,,,,,,
119,119,5.9326512000000005,1.530210137,-9.950852394,0.6954140662999999,6.09465818,0.22288063170000005,0.1140880585,-1.537914515,6.106099378,0.1945548505,-0.5686988235,0.07925742865,0.0,1.0,0.0,0,30.0,,,,,,1.3579001109247912,-10.221205593280668,0.5354515685862594,0.2917167767832717,-0.58378711621353,0.19984487445463928,0.3651858943674164,0.08444734161201804,-1.5499911409546538,,,,,,,,,
120,120,5.9826512,-0.06909275055,-9.450452805,1.861316919,6.14465818,0.22288063170000005,0.1140880585,-1.537914515,6.156099378,-0.4885250926,-0.3250471056,-0.08979454637,0.0,1.0,0.0,0,30.0,,,,,,0.6539900248480548,-9.871809116334504,1.4135124258614788,-0.3068590727441881,-0.4028267623867803,-0.0011337483236054655,0.2728872428199798,0.10461213891081413,-1.5408207172812116,,,,,,,,,
121,121,6.0326512,1.345663667,-8.150253296,1.954637051,6.19465818,0.9752926826,1.955865383,-1.23525095,6.206099377999999,-0.4422534108,-0.3039728701,-0.137898773,0.0,1.0,0.0,0,30.0,,,,,,0.9951802759946308,-9.091396061288453,1.7718748731872416,-0.4107291470283756,-0.333689270750019,-0.09603397363404324,0.7284647366789676,1.3640333126810198,-1.3087853679034869,,,,,,,,,
122,122,6.0826512,2.14307189,-7.33639431,1.454237938,6.24465818,0.9752926826,1.955865383,-1.23525095,6.256099377999999,-0.2749576271,-0.406137079,0.02130329795,0.0,1.0,0.0,0,30.0,,,,,,1.5614147026337641,-8.295821347952016,1.5615182487224035,-0.3065697112217101,-0.3843585931381293,-0.014614520518550528,0.8885564026352831,1.7666610153914997,-1.2529467797929184,,,,,,,,,
123,123,6.1326512000000015,1.3935201169999998,-7.4010005,1.758425593,6.29465818,0.9752926826,1.955865383,-1.23525095,6.306099378,-0.1889808774,-0.2039466351,0.0827698037,0.0,1.0,0.0,0,30.0,,,,,,1.4785953027947674,-7.8901825277674975,1.6919211073187896,-0.21635943302223212,-0.2581801498713461,0.05295973200124461,0.9448132236023904,1.8953781358958568,-1.2395093965211734,,,,,,,,,
124,124,6.1826512000000005,-0.5982056856,-9.639486312999999,4.382155418,6.34465818,0.2863699198,0.1248874664,1.689081669,6.356099378,-0.1146865711,-0.308096081,-0.1019351333,0.0,1.0,0.0,0,30.0,,,,,,0.4541464761860608,-8.683174247772667,3.4735420269214705,-0.13835936392835851,-0.2930908872514429,-0.05452065386309486,0.5177494037683443,0.6909003346938876,0.9843253001266936,,,,,,,,,
125,125,6.2326512,-0.4594219327,-9.969994545,4.013660908,6.39465818,1.404137969,-1.020956039,0.6116485596,6.406099378,-0.05803048982999999,0.4349232614,0.1039967462,0.0,1.0,0.0,0,30.0,,,,,,0.0034995005103949928,-9.266513659437367,3.831238415368363,-0.07673369893858872,0.21607542836444726,0.05547338171839704,1.0926576522584208,-0.4736881248994034,0.7013320628387787,,,,,,,,,
126,126,6.2826512,0.1606182158,-9.404989243,4.695914268,6.44465818,1.404137969,-1.020956039,0.6116485596,6.456099377999999,-0.8163210154,0.7218687534,0.04970769584,0.0,1.0,0.0,0,30.0,,,,,,0.08100335591794948,-9.329287199270503,4.403874256885998,-0.6441207151908465,0.5698225694935051,0.051472615512020585,1.2946825997447249,-0.8459985051397929,0.6332306168419768,,,,,,,,,
127,127,6.3326512,1.204487085,-9.869196892,3.690330744,6.49465818,1.091415286,3.175116539,-3.2570917610000003,6.506099377999999,-0.4483618736,-0.05154023692,-0.4798968732,0.0,1.0,0.0,0,30.0,,,,,,0.6351978091880525,-9.574038236432472,3.931326551749425,-0.4939409831237653,0.13524720940377422,-0.31724068923224885,1.1628441940331198,1.8895955820125767,-2.320897730562566,,,,,,,,,
128,128,6.3826512000000015,3.4669008260000003,-12.51236916,5.234598637,6.54465818,1.912903309,0.01842403412,-0.9974215031,6.556099378,-0.5929799675999999,0.4624877274000001,-0.2463241518,0.0,1.0,0.0,0,30.0,,,,,,2.0320263202271094,-10.906037920883275,4.794424907454622,-0.5699204282058643,0.36411618012082175,-0.2680322355137097,1.649329680060336,0.6166238400266368,-1.3159119578164395,,,,,,,,,
129,129,6.4326512000000005,0.2850449979,-6.862316132,-1.5023934840000002,6.59465818,1.912903309,0.01842403412,-0.9974215031,6.606099378,-0.6317687631000001,0.5144860743999999,-0.04604261369,0.0,1.0,0.0,0,30.0,,,,,,1.1702716428547788,-9.072944135671069,0.6243259212186025,-0.617368432514511,0.4692834838268447,-0.11399530110815563,1.820282532146948,0.2096641201444988,-1.074065244495183,,,,,,,,,
130,130,6.4826512,2.863610506,-8.720044136,1.121635556,6.64465818,1.912903309,0.01842403412,-0.9974215031,6.656099378,-0.5403707622999999,0.2919086218,-0.0001527118147,0.0,1.0,0.0,0,30.0,,,,,,2.0055654534509757,-8.91296804685489,0.9536716758214744,-0.5582983574007838,0.34522915719874797,-0.03500078183693312,1.8803560152742782,0.0795620855555978,-1.0158655820417828,,,,,,,,,
131,131,6.5326512,2.863610506,-8.720044136,1.121635556,6.69465818,-0.14683750269999998,-0.038380622860000005,-0.5711378455,6.706099377999999,-0.5868715047999999,0.3958290219,0.02504473738,0.0,1.0,0.0,0,30.0,,,,,,2.4288237493714036,-8.825512074276205,1.0649065826938164,-0.5802187344523777,0.3806182313586513,0.006664353809281813,0.5655260180569928,-0.000675204905625601,-0.6781601977905218,,,,,,,,,
132,132,6.5826512,0.04576273263,-9.914959908,0.4175475538,6.74465818,0.08193513751,-0.009044647217,-0.4210776687,6.756099377999999,-0.6623111367,0.5074613689999999,-0.03558185324,0.0,1.0,0.0,0,30.0,,,,,,1.2533023219613002,-9.319378902044178,0.6361898781072843,-0.6431973201406285,0.4693311405685066,-0.022649972557159663,0.2518708142098265,-0.006368997957520863,-0.4829437830009625,,,,,,,,,
133,133,6.6326512000000015,0.3978067636,-10.1709919,0.6451647878,6.79465818,0.08193513751,-0.009044647217,-0.4210776687,6.806099378,-0.7496622801,0.5426614285,-0.07108735293,0.0,1.0,0.0,0,30.0,,,,,,0.8313016460309303,-9.705430804443157,0.6421335562246823,-0.7248737288835496,0.5206176609931596,-0.056260307680215935,0.1416511813337063,-0.008189261792954651,-0.4359655574543402,,,,,,,,,
134,134,6.6826512000000005,0.4935196638,-9.682557106,0.7193422914000001,6.84465818,-0.1011630893,0.3131561279,-0.07217404246,6.856099378,-0.6936933994,0.5736619234,-0.04436278343,0.0,1.0,0.0,0,30.0,,,,,,0.6646798285018829,-9.69506173440998,0.693265421251485,-0.7009532076657883,0.5577163241282999,-0.04800470479610877,-0.01583723006642157,0.21042436612095808,-0.15971934372098362,,,,,,,,,
135,135,6.7326512,0.9098708034,-10.13270664,0.15912270550000002,6.89465818,-0.130233407,-0.3239345551,0.4666621685,6.906099378,-0.6682668924,0.5563291311,-0.008017370477,0.0,1.0,0.0,0,30.0,,,,,,0.78562815618772,-9.893454255535962,0.3395267775245111,-0.6758773437882071,0.5567461342616221,-0.020257793283854242,-0.09003415487469467,-0.1531039311637372,0.3159253977696459,,,,,,,,,
136,136,6.7826512,0.7782655358,-9.579665184,0.07058826834,6.94465818,-0.2744545937,0.1109619141,0.1044742316,6.956099377999999,-0.6523848771999999,0.33886751530000003,-0.05657972767999999,0.0,1.0,0.0,0,30.0,,,,,,0.7819963070953723,-9.751207872912696,0.16142092552581358,-0.6578546976135221,0.404363857268735,-0.04546131126769929,-0.209648549287818,0.026542002088604463,0.15535929978053745,,,,,,,,,
137,137,6.8326512,0.2659024298,-10.28584766,0.31465616820000003,6.99465818,-0.2744545937,0.1109619141,0.1044742316,7.006099377999999,-0.5000548363,0.2916795611,-0.08353336155,0.0,1.0,0.0,0,30.0,,,,,,0.5274164171848269,-9.993569966354324,0.2629017195535149,-0.5367958442459785,0.3255535099773529,-0.07187922154814885,-0.2516815029171732,0.08397348800696644,0.11671956564442618,,,,,,,,,
138,138,6.8826512000000015,0.332901448,-10.13270664,0.02991028316,7.04465818,-0.8841745256999999,-0.07748603821000001,1.101399541,7.056099378,-0.3619270027000001,0.2365505993,-0.1126249656,0.0,1.0,0.0,0,30.0,,,,,,0.43146565780076096,-10.056643191711512,0.10860199352144756,-0.4026422317441379,0.2633057031541977,-0.10015238789426699,-0.6619140692973144,-0.025868613096717008,0.8644393548496141,,,,,,,,,
139,139,6.9326512000000005,0.09601201117,-10.1279211,-0.7052844762999999,7.09465818,-0.5020942688000001,-0.1220397949,0.8463227749,7.106099378,-0.2938175201,0.2817533016,-0.1605001241,0.0,1.0,0.0,0,30.0,,,,,,0.26599236662366565,-10.088954786236952,-0.4303983287960528,-0.31915549929230297,0.276207781720098,-0.14202722963863626,-0.5582555552089248,-0.09129457417153666,0.8506824737399226,,,,,,,,,
140,140,6.9826512,-0.3637090325,-9.96042347,0.13519448039999998,7.14465818,-0.5020942688000001,-0.1220397949,0.8463227749,7.156099378,-0.3087832928,0.3171824515,-0.2544178963,0.0,1.0,0.0,0,30.0,,,,,,-0.04462808429219872,-10.030689166069923,-0.055831705834804624,-0.3111982842620148,0.3048650841600459,-0.22001427065975365,-0.5218295586777989,-0.1122107735763168,0.8473719229120845,,,,,,,,,
141,141,7.0326512,-0.014057832769999995,-10.14467049,-0.3125624657,7.19465818,-0.5020942688000001,-0.1220397949,0.8463227749,7.206099377999999,-0.3763582706,0.2970244884,-0.2607554197,0.0,1.0,0.0,0,30.0,,,,,,-0.029548325338033882,-10.082359004131648,-0.2258529157124952,-0.3611868784850068,0.29938144453882337,-0.24828424857774,-0.5090293248045429,-0.11889752896138828,0.8465752491096208,,,,,,,,,
142,142,7.0826512,-0.014057832769999995,-10.14467049,-0.3125624657,7.24465818,-1.017380595,-0.033697128300000004,-0.06555271149,7.256099377999999,-0.3410818279,0.3633013964,-0.299238801,0.0,1.0,0.0,0,30.0,,,,,,-0.02190714208387453,-10.110605950122832,-0.283276742140355,-0.3457629462166747,0.3440864635666796,-0.2836412305161949,-0.8387440232369514,-0.06093507085586505,0.1539480569627626,,,,,,,,,
143,143,7.1326512000000015,0.4384847581,-9.754341125,-0.932602644,7.29465818,-0.6152682304,-0.4730443954,1.026418328,7.306099378,-0.27350685,0.3737621605,-0.4405735731,0.0,1.0,0.0,0,30.0,,,,,,0.20519595763303625,-9.949104523972114,-0.7132960179968243,-0.2903304503830295,0.3648413696615057,-0.3925354065749384,-0.693798474913235,-0.3412960700403622,0.8164610599218343,,,,,,,,,
144,144,7.1826512000000005,0.005084747914,-9.797411919,-1.660319805,7.34465818,-0.6152682304,-0.4730443954,1.026418328,7.356099378,-0.284807533,0.1051420867,-0.3103103936,0.0,1.0,0.0,0,30.0,,,,,,0.10648467276187208,-9.880339463815632,-1.3404671843140896,-0.28609345019280114,0.1832101097536525,-0.33548008646527805,-0.6428640573511643,-0.43092542309732856,0.9758927619850659,,,,,,,,,
145,145,7.2326512,0.32093733550000003,-10.28106117,-0.8297112584,7.39465818,-2.581346035,-1.158787727,0.0304557085,7.406099377999999,-0.1062110662,-0.1070509851,-0.02664821222,0.0,1.0,0.0,0,30.0,,,,,,0.2122703402004837,-10.061994016734511,-1.0022165573510835,-0.14809361320529765,-0.01979579680068749,-0.12118396413778805,-1.9001560872738523,-0.9260954925764591,0.25797220698290696,,,,,,,,,
146,146,7.2826512,0.7878368497,-10.20209885,-0.7148557901,7.39465818,-0.6152682304,-0.4730443954,1.026418328,7.456099377999999,0.5079958439,0.0016798300199999995,-0.09681928903,0.0,1.0,0.0,0,30.0,,,,,,0.4961870171337971,-10.125506124140935,-0.8119104742595811,0.35523659702137605,-0.004775943403366548,-0.10427749873330217,-1.0667827155491303,-0.6178815049434523,0.8414941494148975,,,,,,,,,
147,147,7.3326512,-0.313459754,-10.30020428,-1.5358930830000002,7.49465818,-0.01692116261,-1.271803856,1.845269442,7.506099377999999,1.083719373,-0.02428117767,-0.01389677543,0.0,1.0,0.0,0,30.0,,,,,,0.09680272885859836,-10.204700023981612,-1.2913715216375201,0.9141045756023748,-0.018417722598163544,-0.0415629923882693,-0.3858465096644351,-1.0627496813287372,1.6037140266798589,,,,,,,,,
148,148,7.3826512000000015,-0.9406784177,-11.87079334,-1.662712693,7.54465818,-0.01692116261,-1.271803856,1.845269442,7.556099378,1.539869547,-0.143625468,0.3204657435,0.0,1.0,0.0,0,30.0,,,,,,-0.4149681866668194,-10.95997090241174,-1.5372940410504323,1.394170839655071,-0.10598685369066076,0.209646033466262,-0.14656293424752612,-1.204970771141611,1.7871398792080508,,,,,,,,,
149,149,7.4326512,0.9771689177,-11.24835968,-0.6212365627,7.59465818,-0.01692116261,-1.271803856,1.845269442,7.606099378,1.723505497,-0.04825693369,0.5297572613,0.0,1.0,0.0,0,30.0,,,,,,0.2717481770872092,-11.090702862667797,-0.9306304652362304,1.6468255356171482,-0.06561108527699475,0.4317688146777384,-0.062477774772256585,-1.2504378093818198,1.8312807424671158,,,,,,,,,
150,150,7.4826512,1.429412484,-10.11595726,-0.06340979785,7.64465818,0.8533723354,-0.6493501663,-0.4847514629,7.656099377999999,1.511083364,0.1634016484,0.5292227864,0.0,1.0,0.0,0,30.0,,,,,,0.8428032986973597,-10.648832674935454,-0.35630930794145704,1.5426886152732648,0.09455828787587142,0.499391395094689,0.5315391196022518,-0.8415134726822617,0.07259451350710511,,,,,,,,,
151,151,7.5326512,0.375972271,-9.184550285,-0.09242277592,7.69465818,0.8533723354,-0.6493501663,-0.4847514629,7.706099377999999,1.2786560059999998,0.1940203607,0.578014195,0.0,1.0,0.0,0,30.0,,,,,,0.6125238924118129,-9.98504641860287,-0.18154915269866528,1.3401314984558426,0.16412113533028336,0.5539471665163457,0.7402789180086379,-0.7107833645208511,-0.3506278800548567,,,,,,,,,
152,152,7.5826512,1.618744493,-10.14945602,0.3242274821,7.74465818,0.8533723354,-0.6493501663,-0.4847514629,7.756099377999999,1.105022669,-0.09147437662,0.6462764143999999,0.0,1.0,0.0,0,30.0,,,,,,1.1088745388406138,-10.059576329882189,0.15340391419903554,1.1597637523228077,-0.014639985380696637,0.6180137394576929,0.8136308779467804,-0.6689899087489815,-0.452475038156638,,,,,,,,,
153,153,7.6326512000000015,2.71286273,-12.39751339,-0.03230310604,7.79465818,0.8533723354,-0.6493501663,-0.4847514629,7.806099378,0.8971819282,-0.8060129285,0.5441885591,0.0,1.0,0.0,0,30.0,,,,,,1.900093259134144,-11.119406386863888,0.03041852559842685,0.958319630138088,-0.5681188517779061,0.5667870002189613,0.8394070359571075,-0.6556288477820724,-0.4769842412876642,,,,,,,,,
154,154,7.6826512,1.994417667,-11.49482059,-0.116351001,7.84465818,0.9642490149,0.2205018997,-2.171683311,7.856099378,0.7622610331,-0.9371923804,0.4633276463,0.0,1.0,0.0,0,30.0,,,,,,1.94662180466952,-11.289588582198816,-0.06678031608173922,0.8079099355176612,-0.8262454405555284,0.4949973301035808,0.920379068133266,-0.059590667792916115,-1.7638592294652875,,,,,,,,,
155,155,7.7326512,0.06490531563999999,-9.797411919,0.214157626,7.89465818,0.9642490149,0.2205018997,-2.171683311,7.906099377999999,0.6404733658,-0.6982747912,0.1826433241,0.0,1.0,0.0,0,30.0,,,,,,1.0184046765206172,-10.61315733619874,0.11927221946154035,0.6794581170456963,-0.7367439602080038,0.2782572269757818,0.9488329485415068,0.1309583622971215,-2.0735417093432487,,,,,,,,,
156,156,7.7826512,1.226022482,-9.48873806,0.8676972985,7.94465818,0.9642490149,0.2205018997,-2.171683311,7.956099377999999,0.5305972099,-0.7057576776000001,0.08933641016,0.0,1.0,0.0,0,30.0,,,,,,1.1208188309387417,-10.10343730732941,0.6149204134227487,0.5652569347787371,-0.715072442694014,0.14716648846628716,0.9588317504552968,0.19187548822505215,-2.148065838900832,,,,,,,,,
157,157,7.8326512,0.7447660565,-9.572486877000001,1.782353759,7.99465818,0.1334372014,0.580034256,-0.7760655879999999,8.006099378,0.15935477609999998,-0.7992172837,0.1682884246,0.0,1.0,0.0,0,30.0,,,,,,0.9353187153147321,-9.86274766941691,1.3880588950125976,0.25386217507262976,-0.7739225608755536,0.16182284161313815,0.4234839886206397,0.4559427477524415,-1.10623319867937,,,,,,,,,
158,158,7.8826512000000015,1.791027784,-8.552546501,2.2492532730000003,8.04465818,-0.3101113737,0.8274173737,-1.46419096,8.056099377999999,-0.26312246920000004,-0.4261423051,0.2076880634,0.0,1.0,0.0,0,30.0,,,,,,1.3574247122692606,-9.268809277000717,1.9583891124836843,-0.14275140691077226,-0.5306882888685701,0.19364837516322345,-0.05232317018738858,0.7086596630848868,-1.3780495334405245,,,,,,,,,
159,159,7.9326512,0.5318048596,-8.727222442999999,2.969791889,8.09465818,-0.3101113737,0.8274173737,-1.46419096,8.106099378,-0.5315134525,-0.2181488276,0.2293731421,0.0,1.0,0.0,0,30.0,,,,,,0.95016118823745,-9.02329796045259,2.628195581647291,-0.4409968367592288,-0.3121011002862839,0.21843752314024212,-0.2195236174313776,0.7894514054944414,-1.4434612924641237,,,,,,,,,
160,160,7.9826512,-0.1794617027,-8.672187805,2.335394859,8.14465818,-0.3101113737,0.8274173737,-1.46419096,8.156099378,-0.4660001099,-0.29778802390000003,0.1961583197,0.0,1.0,0.0,0,30.0,,,,,,0.392938396263744,-8.86413324114197,2.4342868614901425,-0.4601785239449773,-0.30209066799261025,0.20297815090083768,-0.2782784912097043,0.8152799323779119,-1.4592024296637007,,,,,,,,,
161,161,8.0326512,0.4265206456,-8.188538551,2.517249346,8.19465818,0.13273541630000002,0.1931219101,1.102037668,8.206099378,-0.08551861346,-0.4017084241,0.1618745178,0.0,1.0,0.0,0,30.0,,,,,,0.40950391994092217,-8.55787368824809,2.4892291752296467,-0.1727517874375275,-0.3717623988736476,0.17445664803114186,-0.011696435741479385,0.3920212619972368,0.4856831719757604,,,,,,,,,
162,162,8.0826512,0.4408775866,-8.214859009,3.264109135,8.24465818,0.13273541630000002,0.1931219101,1.102037668,8.256099378,-0.08544225991,-0.5784723759,0.1905079931,0.0,1.0,0.0,0,30.0,,,,,,0.4249799892310997,-8.402378797670302,3.0023972439895297,-0.10577079517908296,-0.5163334317066357,0.18559455604434308,0.08198151356296267,0.2567085725992123,0.9537138678303556,,,,,,,,,
163,163,8.1326512,0.318544507,-8.983553886000001,3.903591156,8.29465818,0.13273541630000002,0.1931219101,1.102037668,8.306099377999999,-0.4475219846,-0.5091412067000001,0.04245388508,0.0,1.0,0.0,0,30.0,,,,,,0.3724772672744231,-8.665836201222811,3.5992173498278097,-0.3679510453651098,-0.5113032565466791,0.08627031753841137,0.1149003016279441,0.21345009925084865,1.066344005087521,,,,,,,,,
164,164,8.1826512,-0.13848461210000002,-9.835697174,5.471487999,8.34465818,1.162291408,-0.4545927048,-0.1120545864,8.356099378,0.1543152928,-0.2974826097,0.09048175067,0.0,1.0,0.0,0,30.0,,,,,,0.12042890024478214,-9.19615579060989,4.839137806540977,0.03271447815294687,-0.3617590874756147,0.08919259941471183,0.7942341850033444,-0.2410243250297596,0.17152338460637928,,,,,,,,,
165,165,8.2326512,-0.6628118753,-9.498309135,4.547559261,8.39465818,1.799463749,-4.171229362,3.164761305,8.406099378,-0.2965663373,0.2811424434,-0.006337540224,0.0,1.0,0.0,0,30.0,,,,,,-0.26592978216200885,-9.333127483383226,4.646038479195992,-0.219898912136322,0.08788025592687565,0.022904951676500168,1.4462222527493012,-2.9147716671833868,2.4444478707430477,,,,,,,,,
166,166,8.2826512,1.192523003,-9.378668785,2.098206282,8.44465818,1.799463749,-4.171229362,3.164761305,8.456099378,-0.7790593505,0.2853420377,-0.457295537,0.0,1.0,0.0,0,30.0,,,,,,0.4534989220695037,-9.353772196716324,2.958724060495315,-0.6488683734571257,0.22598318713326965,-0.3103025675115618,1.6753333422040335,-3.769549062085268,2.9914201080688585,,,,,,,,,
167,167,8.3326512,1.91066885,-12.74716473,6.321538447999999,8.49465818,1.799463749,-4.171229362,3.164761305,8.506099378,-0.6647545099000001,0.4367557764,-0.3516189456,0.0,1.0,0.0,0,30.0,,,,,,1.172294815904416,-10.892059715199895,5.185764447811927,-0.6610556938324932,0.3733955731571916,-0.3389716925312126,1.7558438513803882,-4.042815119545557,3.1230472827638365,,,,,,,,,
168,168,8.3826512,0.4959124923,-9.87398243,3.084647417,8.54465818,0.2801282406,-2.193112373,-1.2979002,8.556099377999999,-0.6000810862,0.6844543815,-0.373685807,0.0,1.0,0.0,0,30.0,,,,,,0.8386474988780606,-10.430546475041718,3.7942893480065556,-0.6142779842272922,0.5909472068155799,-0.3630595563139323,0.7987003250154854,-2.7844487609781994,-0.2340128818396772,,,,,,,,,
169,169,8.432651199999999,2.997608662,-4.353441715,0.18065811690000005,8.59465818,0.6587296724,0.9816083908,-0.7337994576000001,8.606099378,-0.7195017337999999,0.4656946659,-0.1835595965,0.0,1.0,0.0,0,30.0,,,,,,1.9036244717511903,-7.675682627391348,1.4011442712025346,-0.6950021772631808,0.5033467461750726,-0.23850587987642616,0.7079158926889705,-0.22237243060435088,-0.6135273661677438,,,,,,,,,
170,170,8.4826512,0.5748756528,-12.88116264,0.08255238086,8.64465818,0.6587296724,0.9816083908,-0.7337994576000001,8.656099378,-0.8908443451000001,0.3796415627000001,0.07047650218,0.0,1.0,0.0,0,30.0,,,,,,1.248176416767171,-10.035422877504724,0.5279002988913258,-0.8452458344951241,0.41682849291203145,-0.02410532130407217,0.6760138975071174,0.5967045617088955,-0.7048563512953177,,,,,,,,,
171,171,8.532651199999998,1.307378531,-9.112766266,1.4327025409999998,8.69465818,0.6587296724,0.9816083908,-0.7337994576000001,8.706099378,-0.8490777016,0.5748836398,-0.06352811307,0.0,1.0,0.0,0,30.0,,,,,,1.277379761857618,-9.617165591567533,1.1271100393338478,-0.8481855166357299,0.5273707906957361,-0.05146050096910317,0.6648034149331603,0.8585574625703701,-0.7268343886795835,,,,,,,,,
172,172,8.582651199999999,0.6083751321,-10.06809998,-0.8057830334,8.74465818,0.5655766128999999,0.3547811508,0.4318363667,8.756099378,-0.7888329029000001,0.5927509069,-0.1156028435,0.0,1.0,0.0,0,30.0,,,,,,0.9473717294114776,-9.821582477781524,-0.15295791590203445,-0.8026521473337758,0.5730970351187146,-0.09596839157240986,0.6004452889731678,0.515834739010026,0.1530058383037265,,,,,,,,,
173,173,8.632651199999998,-0.4402793646,-10.79581738,-0.527916491,8.79465818,0.5655766128999999,0.3547811508,0.4318363667,8.806099377999999,-0.7624900937000001,0.4308763742,-0.07414158434,0.0,1.0,0.0,0,30.0,,,,,,0.2628682344107226,-10.263221153442393,-0.4012760786303363,-0.7718411433219807,0.4736292293962289,-0.08082293365980038,0.5778295984668439,0.4062688005236227,0.364736663668848,,,,,,,,,
174,174,8.682651199999999,1.226022482,-9.605986595,1.037886858,8.84465818,0.5655766128999999,0.3547811508,0.4318363667,8.856099378,-0.6321505307999999,0.3432198167,-0.06978929788,0.0,1.0,0.0,0,30.0,,,,,,0.7379750184544067,-9.965284587327496,0.5518166627846731,-0.6646751088739644,0.3824221006411363,-0.07316677650676888,0.5698823587135331,0.37124137441164334,0.41568903096796894,,,,,,,,,
175,175,8.7326512,0.4791627228,-9.71605587,0.209371984,8.89465818,-0.8916333914,-0.1411724091,1.120951653,8.906099378,-0.5283828974,0.159202069,-0.0542890504,0.0,1.0,0.0,0,30.0,,,,,,0.6103075365685401,-9.8523046058816,0.32503098801709623,-0.5601162156873402,0.22630408937745056,-0.06006766388140373,-0.3780511920666215,0.022642515426935902,0.9512323871622532,,,,,,,,,
176,176,8.782651199999998,-0.1049850956,-10.03460121,0.03469592705,8.94465818,-1.019397259,0.004696846008,0.8599032759999999,8.956099378,-0.4829511046,0.10590564460000003,-0.09315420687,0.0,1.0,0.0,0,30.0,,,,,,0.2574664594716877,-9.934943024725602,0.13275516424344005,-0.5009176854484135,0.14209853836080846,-0.08302616802391947,-0.7940258089936881,0.010433944766134691,0.8818813436887922,,,,,,,,,
177,177,8.832651199999997,0.08165507019,-10.14227772,0.8198408484,8.99465818,-1.019397259,0.004696846008,0.8599032759999999,9.006099378,-0.4146889448,0.2150945961,-0.1374406368,0.0,1.0,0.0,0,30.0,,,,,,0.170741841916309,-10.028931671015684,0.5877810419129779,-0.4347658372810531,0.19315130136877295,-0.1207839599488344,-0.9402008732079152,0.00653095435997701,0.8651922298880808,,,,,,,,,
178,178,8.882651199999998,-0.17706887420000006,-9.857233047000001,0.1471585929,9.04465818,-1.019397259,0.004696846008,0.8599032759999999,9.056099377999999,-0.3161898255,0.1908897758,-0.2297549248,0.0,1.0,0.0,0,30.0,,,,,,-0.0008269709052440842,-9.951097513246363,0.29597665539335205,-0.3437982287104955,0.19156961141457374,-0.1963980955225777,-0.9915673473353012,0.0052831969824922356,0.8611760463455839,,,,,,,,,
179,179,8.932651199999997,0.043369911610000006,-10.2906332,-0.2503490746,9.09465818,-0.6589618325,0.4383678436,1.1325907709999998,9.106099378,-0.3272614181,0.1316375881,-0.26251161100000003,0.0,1.0,0.0,0,30.0,,,,,,0.020974561685641758,-10.10501531288961,-0.06583024948082256,-0.3311117325795502,0.149653712482153,-0.24227376827109626,-0.7758406768259252,0.29991386175939216,1.0672756579930924,,,,,,,,,
180,180,8.9826512,0.4624129832,-9.699306488,0.1543370634,9.14465818,-1.251512051,-0.1680593491,0.09172546864,9.156099378,-0.35841462020000003,0.35742199420000004,-0.2504473627,0.0,1.0,0.0,0,30.0,,,,,,0.23872824893957875,-9.921100008079984,0.07997663763031032,-0.3520576081726321,0.2949649137880949,-0.24794536414382204,-1.0843593187525349,-0.01845174937342553,0.326488599989508,,,,,,,,,
181,181,9.032651199999998,0.3568296731,-9.246764183,0.09451649338,9.19465818,-1.251512051,-0.1680593491,0.09172546864,9.206099378,-0.3155026138,0.3189386129,-0.3159607351,0.0,1.0,0.0,0,30.0,,,,,,0.2969855716333764,-9.615411121843524,0.08960572869688146,-0.32401382113700256,0.31173189570781096,-0.2951407201499705,-1.1927739442122784,-0.12023089784422344,0.1482204890295458,,,,,,,,,
182,182,9.0826512,0.3568296731,-9.246764183,0.09451649338,9.24465818,-1.251512051,-0.1680593491,0.09172546864,9.256099378,-0.08773294091,0.10796725,-0.3700207174,0.0,1.0,0.0,0,30.0,,,,,,0.32650559777922256,-9.44829665461196,0.09285790678961828,-0.14274691640257745,0.16922080018250424,-0.34709938887949976,-1.2308712563882231,-0.15276894435804458,0.10532082030304436,,,,,,,,,
183,183,9.132651199999998,0.7016952634,-9.730413437000001,-0.6861419082,9.29465818,-1.6891220809999998,-1.261517525,1.027370334,9.306099377999999,0.1420219839,-0.4266768098,-0.07353074104,0.0,1.0,0.0,0,30.0,,,,,,0.5115799572538657,-9.57618540345388,-0.4230385565711495,0.07571839939644481,-0.24754443867063924,-0.15727215499270458,-1.5280909963106033,-0.9070587438985612,0.8054819742788709,,,,,,,,,
184,184,9.1826512,0.584446907,-10.08006477,-1.124028444,9.34465818,-1.6891220809999998,-1.261517525,1.027370334,9.356099378,0.7354601026,-0.4514924884000001,-0.020310672,0.0,1.0,0.0,0,30.0,,,,,,0.5475239218547504,-9.80460322989372,-0.8872725614857808,0.5818504924485001,-0.3901838052839192,-0.062235608698129816,-1.6325351445854182,-1.1481996548916609,0.973973587271135,,,,,,,,,
185,185,9.2326512,0.2060818523,-10.55653572,-0.4202394783,9.39465818,-1.6891220809999998,-1.261517525,1.027370334,9.406099378,1.598739982,-0.2953446507,0.114457503,0.0,1.0,0.0,0,30.0,,,,,,0.3790966486374492,-10.145468118194339,-0.5779776024423693,1.3619745972403299,-0.3238541838312462,0.06037041687360783,-1.669237215960961,-1.2252906337037892,1.0145205720438937,,,,,,,,,
186,186,9.282651199999998,0.2060818523,-10.55653572,-0.4202394783,9.44465818,-0.9507077932,0.010092735290000002,1.6682555680000002,9.456099378,1.967004538,-0.299238801,0.5810684562,0.0,1.0,0.0,0,30.0,,,,,,0.2937515404322339,-10.331812655961548,-0.4735147530372999,1.8261336288688643,-0.3066384143224625,0.42167888284589694,-1.2032017681868523,-0.3848502577162506,1.5109362657914125,,,,,,,,,
187,187,9.3326512,0.1223330572,-12.16062355,-0.4992026389,9.49465818,-1.123452187,0.7671079636,-0.6018675565999999,9.506099378,1.797494411,-0.2785463631,0.6940752268000001,0.0,1.0,0.0,0,30.0,,,,,,0.20919386496840844,-11.160846417341668,-0.4905266819171342,1.8041625650771556,-0.28699109532783224,0.6106926638408896,-1.1514764932065988,0.3988353777809949,-0.09342786101793353,,,,,,,,,
188,188,9.382651199999998,1.068096161,-10.20209885,2.1029920580000003,9.54465818,-1.123452187,0.7671079636,-0.6018675565999999,9.556099377999999,1.378605962,-0.3509317636,0.6559736133,0.0,1.0,0.0,0,30.0,,,,,,0.6328750237011771,-10.726228432872652,1.2270438743114682,1.4776895631481055,-0.3317106032758937,0.6421127751883203,-1.1333000346342172,0.6493739217081835,-0.4795131187018592,,,,,,,,,
189,189,9.4326512,-0.390030086,-9.369096756,0.0466600433,9.59465818,-1.123452187,0.7671079636,-0.6018675565999999,9.606099378,1.0609653,-0.4818821251,0.8355627059999999,0.0,1.0,0.0,0,30.0,,,,,,0.12829420673563974,-10.11101557396334,0.44532886984773146,1.1579924411969011,-0.4367391671283989,0.7763462319452781,-1.1269127578848983,0.7294692547728616,-0.5724233400848988,,,,,,,,,
190,190,9.4826512,2.030309916,-10.98485088,-0.7722834945,9.64465818,-0.6043914557,-0.7112874985,-2.682188034,9.656099378,0.7736380695999999,-1.065164924,0.9171871543,0.0,1.0,0.0,0,30.0,,,,,,1.0665245773645171,-10.507141261794539,-0.3610409141177349,0.8631284336273304,-0.8762542887593271,0.8740746921255284,-0.7880074307588094,-0.25068814235254044,-2.1744796953372623,,,,,,,,,
191,191,9.532651199999998,2.391925335,-12.74237919,-0.7962117195,9.69465818,0.2335616201,0.01240539551,-2.479391098,9.706099378,0.6227588058,-1.222763538,0.9289459586,0.0,1.0,0.0,0,30.0,,,,,,1.7203210934736584,-11.520415904682679,-0.6492349228329086,0.6787247764388304,-1.11859963090981,0.9121494525907496,-0.12542163399205342,-0.07170367693979293,-2.4060151134131567,,,,,,,,,
192,192,9.5826512,-0.2991028428,-10.81974602,-0.4298107624000001,9.74465818,0.2335616201,0.01240539551,-2.479391098,9.756099378,0.6557445526,-0.9604045749,0.4049153626,0.0,1.0,0.0,0,30.0,,,,,,0.7241753416688064,-11.202789301595946,-0.5039201921143869,0.6610951060263272,-1.0079594819777378,0.5601835201065825,0.10741353779150983,-0.014483657433318718,-2.46173339460445,,,,,,,,,
193,193,9.632651199999998,-0.2991028428,-10.81974602,-0.4298107624000001,9.79465818,3.2784969810000004,1.517586231,-0.9650189877,9.806099377999999,0.5750363468999999,-0.8880955576999999,0.0200816039,0.0,1.0,0.0,0,30.0,,,,,,0.21941049360132855,-11.029148705083212,-0.454840857364361,0.5950736620777889,-0.9241277696164704,0.18541084941239405,2.16416618491982,1.0277947361288415,-1.325198673694422,,,,,,,,,
194,194,9.6826512,0.2730808854,-10.077672,0.8844470978,9.84465818,1.6895010469999998,1.017627716,-1.266391754,9.856099378,0.3177169263,-0.9331455231,0.01557660475,0.0,1.0,0.0,0,30.0,,,,,,0.2458851390869444,-10.597826740534108,0.4321091857709783,0.3822947146348881,-0.930434702400953,0.06756414023377989,1.8563001838427915,1.0208780377337972,-1.2805434571873493,,,,,,,,,
195,195,9.7326512,2.751147747,-7.958827019,2.086242199,9.89465818,1.6895010469999998,1.017627716,-1.266391754,9.906099378,-0.2322746664,-0.8336538076000001,0.1002553031,0.0,1.0,0.0,0,30.0,,,,,,1.4816864283710518,-9.401519417411075,1.5275669189282817,-0.08918266154534465,-0.8627470459200831,0.0902482930615196,1.7481148988625248,1.0186668200386069,-1.2697973176520856,,,,,,,,,
196,196,9.782651199999998,2.061416626,-8.152646065,2.263610125,9.94465818,1.6895010469999998,1.017627716,-1.266391754,9.956099378,-0.4515688419,-0.310539484,0.2698417902,0.0,1.0,0.0,0,30.0,,,,,,1.767656978270108,-8.835382056693671,2.0150151562566183,-0.3671933967988067,-0.4765382198071522,0.2148668743735573,1.710098177804284,1.0179599099759928,-1.2672112924585213,,,,,,,,,
197,197,9.8326512,2.061416626,-8.152646065,2.263610125,9.99465818,-0.05125264823,0.8805103301999999,0.4202642441,10.00609938,-0.3132119179,-0.210360527,0.270376265,0.0,1.0,0.0,0,30.0,,,,,,1.912563364619732,-8.525885219628456,2.1796483981506425,-0.32578058511552965,-0.2903760203823004,0.2533844244280603,0.5676927383903261,0.9244519517134984,0.014178483077617932,,,,,,,,,
198,198,9.882651199999998,0.02183450572,-7.882256985,1.94028008,10.04465818,-0.1369453371,0.08138942719,1.961962223,10.05609938,-0.1091125906,-0.5408288836,0.2538833916,0.0,1.0,0.0,0,30.0,,,,,,0.979900595417314,-8.23411665124196,2.021125550667251,-0.15956003992245152,-0.4655404204972119,0.2537306540210764,0.11066716556916606,0.35091032659636034,1.4932340991846784,,,,,,,,,
199,199,9.9326512,-0.03080759197,-8.375477791,3.549154282,10.09465818,-0.1369453371,0.08138942719,1.961962223,10.10609938,-0.07696675508999999,-0.5981721878,0.1721062213,0.0,1.0,0.0,0,30.0,,,,,,0.4813363023551453,-8.298198267128639,3.033070101966402,-0.09619719364052884,-0.558301843360407,0.19709207207941395,-0.0499333608480268,0.16755327993145894,1.8491642519045617,,,,,,,,,
200,200,9.9826512,-0.1671984792,-8.983553886000001,4.932804108,10.14465818,-0.1369453371,0.08138942719,1.961962223,10.15609938,0.4721849263,-0.2343362868,0.200205192,0.0,1.0,0.0,0,30.0,,,,,,0.16142568036404514,-8.608882629662789,4.2911783017981815,0.33984683787327685,-0.3317233501628537,0.19925224263339295,-0.10636899731857592,0.1089353783017238,1.9348177406818416,2.2338388048880193,0.20501715180416522,1.7402372453637902,2.5473398093414916,3.0577729592512557,2.901991285229242,3.262394329155008,3.190538783012008,2.878365645789151
201,201,10.032651199999998,-0.4426721931,-10.15424156,4.8849472999999985,10.19465818,1.916758299,-3.71630764,2.621168852,10.20609938,-0.8493831158,-0.02053973824,-0.1826433241,0.0,1.0,0.0,0,30.0,,,,,,-0.13656500869564242,-9.309422380465868,4.6844047446310295,-0.5724911918015881,-0.11408443001753107,-0.0657422282061838,1.205823663921543,-2.493405531650744,2.4560005828853617,2.2067452029667396,0.2027823853552483,1.8085649478774395,2.444693351914641,2.9370406907274043,3.09939375255346,3.1904490728560733,3.2026500252028187,3.1936927168260234
202,202,10.0826512,-0.679561615,-9.534201622000001,4.870590687,10.24465818,1.849493384,4.444313526,-3.182309389,10.25609938,-0.9116895199,0.4403445125,-0.2475458533,0.0,1.0,0.0,0,30.0,,,,,,-0.4044155342276072,-9.411318962918472,4.8077073016369125,-0.8327129709137133,0.2736780089883385,-0.1918944007086322,1.6233053938221065,2.2263756794105403,-1.8254675587185691,2.157390241364579,0.1983162890270701,1.8810618631823424,2.4340189256163702,2.7656795886861083,3.2191624253432405,3.2164885209732823,3.1817071826117567,3.3132574945978
203,203,10.132651199999998,2.257927179,-14.93988705,5.983851433,10.29465818,1.849493384,4.444313526,-3.182309389,10.30609938,-0.760810256,0.5283065438,-0.3354314864,0.0,1.0,0.0,0,30.0,,,,,,0.9088705649998208,-11.917521002472506,5.586614543998843,-0.777551577570218,0.4517628349136877,-0.2914937083986895,1.7700100632735627,3.7352550804268847,-2.8557896053751937,2.137993928571415,0.185177035137198,1.842971325634337,2.5018328468291497,2.70401424053964,3.145625329541266,3.112463737928941,3.4065719517827833,3.3721280468667376
204,204,10.1826512,1.982453585,-3.608675718,-2.017149448,10.34465818,1.849493384,4.444313526,-3.182309389,10.35609938,-0.8537353873000001,0.6264238357999999,-0.5210527182,0.0,1.0,0.0,0,30.0,,,,,,1.438449889598978,-8.150967949038701,0.5509843980337292,-0.835997285796976,0.5739191122938571,-0.4507829843473789,1.8215626426977864,4.217632746890688,-3.103733414535247,2.14265701196072,0.17098561153516362,1.9644509593472048,2.513466900128963,2.513991247088262,3.102909699854004,3.124021963776659,3.479729492470134,3.343801829741716
205,205,10.2326512,1.982453585,-3.608675718,-2.017149448,10.39465818,1.182897568,1.746803284,-1.683045149,10.40609938,-0.7217923999,0.2460950911,-0.1976090819,0.0,1.0,0.0,0,30.0,,,,,,1.7067971940337396,-6.0918629728207465,-1.1497748876155025,-0.7483830609158355,0.3446420448802165,-0.27510751137373723,1.4073269068074399,2.5367093224942847,-2.0249293794802545,2.0836167892949313,0.16483719129694024,2.162393937164794,2.7703793059577078,2.3829586943144974,2.9181186427663013,3.3178508764290644,3.3079913885887757,3.02046923124989
206,206,10.282651199999998,1.333699465,-9.797411919,2.773580551,10.44465818,1.182897568,1.746803284,-1.683045149,10.45609938,-0.7400414348000001,0.07505785674,0.09353598952,0.0,1.0,0.0,0,30.0,,,,,,1.5227547493994444,-7.771656761149425,1.4484865708587922,-0.7419836402288955,0.1560973743159336,-0.0193085496974848,1.2617628920103174,1.999330444885829,-1.76531852998252,1.9868566813396416,0.15454358498838267,2.214462412707157,3.0004156332849248,2.5160610650765336,2.8859230870242305,3.369190033184272,3.367205454487719,2.9686158846703212
207,207,10.3326512,2.018345833,-7.558926582000001,0.7983054519,10.49465818,1.182897568,1.746803284,-1.683045149,10.50609938,-0.7321004272,0.29572641850000003,0.04176668078,0.0,1.0,0.0,0,30.0,,,,,,1.7672209773750842,-7.6752222414102445,1.0179009232252425,-0.734401564854001,0.2537526274576668,0.02307109486841441,1.2106111429746766,1.8275343630961909,-1.7028439831817197,1.9997208076403805,0.14586239319677083,2.1967898299432664,2.901042158056537,2.6134458844429242,2.833020379144906,3.2587876977389074,3.3759057954760934,3.013248458757364
208,208,10.382651199999998,-1.316650629,-10.65703392,-0.08494520187000001,10.54465818,0.7155852914,0.2742815018,0.1981970668,10.55609938,-0.8139539956999999,0.4701996744,-0.08444963395999999,0.0,1.0,0.0,0,30.0,,,,,,0.24600220569789144,-9.026932557312529,0.2875356463091145,-0.7954315681732702,0.4051336763078304,-0.05153673281618884,0.8895392604481798,0.7708450377093821,-0.2592825735165538,2.011107421231117,0.13016909794617657,2.3766320303105775,2.6975102847392636,2.636812120643709,2.8367381815422363,3.069332549851153,3.486848225292434,3.146513849670167
209,209,10.4326512,-2.09222436,-11.27946663,0.2859423161,10.59465818,0.883577466,0.5821008682,-0.1852598935,10.60609938,-0.8296069503,0.3652102947,-0.05566345528,0.0,1.0,0.0,0,30.0,,,,,,-0.9074031877136736,-10.048047862221882,0.2864804555027424,-0.8216497950872017,0.377211635031906,-0.05440023459557253,0.8856724632758267,0.6424409934684745,-0.2030732221924283,2.0174174874046846,0.11083122527592401,2.3449869035654745,2.5945798699096834,2.674821510091421,2.7271389356768365,3.13628157029085,3.4428301089976645,3.3516782248725723
210,210,10.4826512,0.8476574420999999,-9.763913155,1.006481051,10.64465818,0.883577466,0.5821008682,-0.1852598935,10.65609938,-0.7416449189000001,0.2272351831,-0.1348445266,0.0,1.0,0.0,0,30.0,,,,,,-0.041663132279311184,-9.919244350546006,0.7633043955496219,-0.7602726906302233,0.2723195012866023,-0.11021992578739777,0.8843136560266065,0.6013911632542618,-0.18954661590176036,1.9259254392868244,0.09678811191597268,2.311588370919045,2.7372775854497533,2.9169654439629467,2.713228853420215,3.0491259193684623,3.5366423736685744,3.393409229965948
211,211,10.532651199999998,1.221236825,-9.515059471,0.2667997181,10.69465818,0.883577466,0.5821008682,-0.1852598935,10.70609938,-0.6855233312000001,0.1020878479,-0.2022667974,0.0,1.0,0.0,0,30.0,,,,,,0.5813028555876143,-9.736019878354172,0.4344917280773258,-0.702927445394145,0.1532610682575124,-0.17409055997125336,0.8838361659855631,0.5882678339185115,-0.18629147999585627,1.858953322171782,0.09172262635388079,2.3670358912487823,2.532340468030913,3.1619149028834865,2.7742075092150538,2.8927825238549767,3.42884518759673,3.230660540457726
212,212,10.5826512,-0.28713873030000003,-10.09920692,0.1088734269,10.74465818,-0.4760738611,0.1883153915,0.28625983,10.75609938,-0.5618267655,0.2458660156,-0.1905079931,0.0,1.0,0.0,0,30.0,,,,,,0.15291613553456684,-9.900659275359617,0.2188494047417823,-0.5946796537435852,0.2180281059717783,-0.18548249374477252,0.0018037002697742774,0.3161772509580785,0.1725418209505965,1.7506238874602091,0.0686022576579103,2.1686351642486725,2.5175815192755024,3.322676331342516,2.789269017521315,2.7689703214668406,3.3845623557241113,3.0168449149119514
213,213,10.632651199999998,-0.2943171859,-10.21884823,0.0466600433,10.79465818,-0.6767122745999999,-0.045948028560000014,1.386426806,10.80609938,-0.5708367825,0.3248943985,-0.3084778786,0.0,1.0,0.0,0,30.0,,,,,,-0.06769607232695601,-10.04490020558043,0.10481615224181777,-0.5763881886268499,0.2927693956920274,-0.2708280692204821,-0.4382791775452524,0.06982076461144293,1.09430914463381,1.7181787589685098,0.04995118087099812,2.232273594427061,2.295846954662638,3.35169365635288,2.8950783621579728,2.8601352298041887,3.455388040945289,2.762259486484679
214,214,10.6826512,0.36161533,-9.395418167,-0.3891327679,10.84465818,-0.6767122745999999,-0.045948028560000014,1.386426806,10.85609938,-0.554038465,0.248080343,-0.3573456407,0.0,1.0,0.0,0,30.0,,,,,,0.14407557300561985,-9.750477999910368,-0.22230395240641196,-0.5592422172072465,0.2615142884314162,-0.33086196344885777,-0.5929259764278686,-0.008937595348979435,1.316129595952806,1.651279353106622,0.04733776766905667,2.3374450825910924,2.1230438013992408,3.24430404164467,2.9976721161154223,2.8145519937213144,3.2634064898955475,2.6460642882595136
215,215,10.7326512,0.01944168471,-9.821340561,0.8389834166,10.89465818,-0.6767122745999999,-0.045948028560000014,1.386426806,10.90609938,-0.4689016342,0.4022429287,-0.266100347,0.0,1.0,0.0,0,30.0,,,,,,0.08259590242827104,-9.782601307829893,0.4805388336179596,-0.4899358990866531,0.3599385888678856,-0.2859243633201852,-0.6472694503739113,-0.03411606479235228,1.3695100004856458,1.6874507543152706,0.047141293129085514,2.2311507191295936,1.9669496008075011,2.896545824825141,3.0756298523492953,2.8304176836333177,3.323326796495967,2.8998619739902867
216,216,10.782651199999998,0.2587239444,-9.672985077,-0.2407777756,10.94465818,-1.4660240409999998,-0.3643951416,0.9151092768,10.95609938,-0.2583120465,0.6295544504999999,-0.4130091071,0.0,1.0,0.0,0,30.0,,,,,,0.16947671910929013,-9.732910245452599,0.002843357269045832,-0.3122417125064397,0.5485054115847721,-0.3741075143264928,-1.178310560554621,-0.2588073456214912,1.0244594034512158,1.7318122319381033,0.04456042002463916,2.312566834039593,1.7528691702431176,2.692089417110234,3.143192513533922,2.92918890277985,3.4264536189076678,3.0395325853631374
217,217,10.8326512,-0.1073779166,-9.706484795,-0.7292127012999999,10.99465818,-1.4660240409999998,-0.3643951416,0.9151092768,11.00609938,-7.635590737e-05,0.2386122048,-0.3497864008,0.0,1.0,0.0,0,30.0,,,,,,0.032909273191172705,-9.720931100441438,-0.4819643722788859,-0.07275873825051746,0.3317689887701401,-0.35723127597416043,-1.3649204286145986,-0.3306394984417344,0.9414240460507936,1.7152740050299469,0.042367355536356927,2.368625303653017,1.6391689517922092,2.443655380044385,3.1395438589553097,2.9836692722559475,3.6098137605558014,3.1657684933753356
218,218,10.882651199999998,-0.5814558864,-9.883553505,-1.308574915,11.04465818,-1.4660240409999998,-0.3643951416,0.9151092768,11.05609938,0.3964398801,-0.3894151151,0.02909160033,0.0,1.0,0.0,0,30.0,,,,,,-0.2701460847019855,-9.794650840463877,-1.0293912744975509,0.2871949794565114,-0.1726204571433037,-0.08916472823987698,-1.4304958467691598,-0.35360371031390964,0.9214418444899952,1.8588758913582297,0.03994568849686857,2.255600451350243,1.8774800533408884,2.284339082507745,3.128799347734063,3.1083323586288034,3.4272403594063454,3.1659636275640834
219,219,10.9326512,1.005882859,-10.98485088,-0.2288136631,11.09465818,-3.370098591,-3.284057617,-0.0324858427,11.10609938,1.240325332,-0.003206948051,-0.003436015919,0.0,1.0,0.0,0,30.0,,,,,,0.3592961977434463,-10.334190506075133,-0.4992048092094423,1.0184051755294117,-0.05413422662254008,-0.0296782174395488,-2.6885148015304843,-2.3472130182584805,0.19707390047825932,1.9170815108239898,0.03879622881489191,2.182710775767805,2.0496075159948797,2.1932086196047287,3.0546106374045143,3.1500141781647324,3.4118355332882855,3.1146934564341637
220,220,10.9826512,0.05054837838,-10.60917759,-0.2455634177,11.14465818,0.3163439035,-1.344959259,3.252232552,11.15609938,1.326607585,0.2566322088,-0.02657185495,0.0,1.0,0.0,0,30.0,,,,,,0.20699641407044173,-10.458847230685016,-0.33122954869865123,1.2548479073104166,0.16321292417900135,-0.02752273579470677,-0.7395748864397913,-1.665372427411016,2.5170180853801387,1.8491792277948236,0.0423361845492687,2.338523870858899,2.110404204536316,2.2052199274146416,2.9564198190589566,3.1834848808703637,3.483390186574315,2.9459906049460587
221,221,11.032651199999998,-2.434697151,-13.16590881,-2.350050926,11.19465818,0.3163439035,-1.344959259,3.252232552,11.20609938,1.0940274,0.02725905925,0.2361688167,0.0,1.0,0.0,0,30.0,,,,,,-1.0961038291821856,-11.68600825267792,-1.6682039469147096,1.1314717139120885,0.06812805717840413,0.15545085566483055,-0.05470997967553537,-1.4473929965222665,3.0753054675727767,1.8509701609535973,0.041954640535892165,2.4424724831777875,2.1180753213163523,2.1855097352886332,2.9549455272382876,3.318735321293851,3.444179969060529,2.819596717233794
222,222,11.0826512,0.4384847581,-12.27787209,1.095314622,11.24465818,0.3163439035,-1.344959259,3.252232552,11.25609938,1.045312405,-0.04810422286,0.4518742561,0.0,1.0,0.0,0,30.0,,,,,,-0.3391186936871743,-11.954311061402752,0.16194983325340706,1.0653731311901238,-0.0131637170186759,0.3611368310641888,0.1859541561890053,-1.3777065728502371,3.2096555968318965,1.7630075583587455,0.04426653930248415,2.2815611788202035,2.0778407072333342,2.355361409269719,3.02207211808311,3.4054494821569565,3.303910418030507,2.842219625513649
223,223,11.132651199999998,3.58654213,-9.088837624,-1.430608869,11.29465818,0.7084259987,-0.2339763641,-1.466380119,11.30609938,0.9318475127,-0.2002815455,0.4030064642,0.0,1.0,0.0,0,30.0,,,,,,1.5973396605017132,-10.65533901924992,-0.8927300090311554,0.9629366770028844,-0.14403218365484394,0.3901898556444076,0.5248274039187533,-0.5996185147093651,-0.34110660800336445,1.8537461005434677,0.04252990793086728,2.310171017169767,2.4511457319529693,2.521109678152945,3.179271173236548,3.151324271276669,3.2427099235670487,3.0475110495641697
224,224,11.1826512,1.7718851569999998,-9.876375198,-2.1774685380000003,11.34465818,1.46250248,-0.4186849594,-1.508104563,11.35609938,0.9805625677,-0.1716480851,0.42171368,0.0,1.0,0.0,0,30.0,,,,,,1.6834398355776297,-10.302220329741646,-1.7435544262621114,0.9764586794974826,-0.16334648795241713,0.4120640010613421,1.1329998877713288,-0.4765280886443064,-1.2272701196615947,1.861685582087783,0.0396526890644637,2.376914505009433,2.945559606564212,2.6335096478678546,3.143238143325684,3.099999995958669,3.2944491990899696,3.2275665555401334
225,225,11.2326512,1.664208174,-10.45573807,-0.8297112584,11.39465818,1.46250248,-0.4186849594,-1.508104563,11.40609938,0.9278770089,-0.2341835648,0.487303406,0.0,1.0,0.0,0,30.0,,,,,,1.6739532003626418,-10.371812756199523,-1.1383572884608038,0.9391884228226856,-0.21288927978551864,0.4642720601039387,1.346714014217807,-0.4371769831488612,-1.4405226238976971,1.8535176517191332,0.042317129683049105,2.2709213337273493,2.940591380964488,2.758603905589275,3.1120753186026837,2.930531092009282,3.402966157934392,3.2648155409859765
226,226,11.282651199999998,2.595315218,-10.79581738,-0.2551347017,11.44465818,1.46250248,-0.4186849594,-1.508104563,11.45609938,0.9623134732,-0.2794626355,0.4366794229,0.0,1.0,0.0,0,30.0,,,,,,2.1284446239939627,-10.564021882459977,-0.5534387812854135,0.956929199411136,-0.2594500647903809,0.4451257359698537,1.4218139719690237,-0.4245967236338344,-1.4918411785038,1.9848408384586698,0.04367717855429065,2.208712485219173,2.959397164512869,2.9108162479139277,3.1230011817499435,2.71173800229466,3.205157583935371,3.16241189172619
227,227,11.3326512,1.616351724,-9.943673133999999,1.174277663,11.49465818,1.385892749,0.02811813354,-1.191954851,11.50609938,0.918866992,-0.4140780866,0.4043045342,0.0,1.0,0.0,0,30.0,,,,,,1.8758383445390805,-10.282806335249894,0.5907499416140779,0.9277291282128242,-0.3675954632124022,0.4168002100823458,1.3985156034130963,-0.11661148250808218,-1.2641215669460966,1.9509265780313507,0.0363405082046979,2.1154471981446066,2.5191914344876083,3.087579269810093,3.213810930179944,2.7479276562583075,3.2352412343981776,3.3280058305149507
228,228,11.382651199999998,1.34087801,-10.0082798,1.006481051,11.54465818,1.385892749,0.02811813354,-1.191954851,11.55609938,0.8463288546,-0.7624900937000001,0.398425132,0.0,1.0,0.0,0,30.0,,,,,,1.6119519681997172,-10.158358385785546,0.8660699162180177,0.8652815207915521,-0.6437810901501456,0.40404988117789203,1.3903284679938537,-0.018150862116908348,-1.2093215477741477,1.9519707698228947,0.03618704568590118,2.1980034081849587,2.094563481666389,2.951318926385904,3.1127217044868827,2.7628027537002873,3.2630778770299766,3.248255319931436
229,229,11.4326512,1.819741607,-10.03699398,1.279561877,11.59465818,1.385892749,0.02811813354,-1.191954851,11.60609938,0.5901548266,-0.7968502640999999,0.2594573796,0.0,1.0,0.0,0,30.0,,,,,,1.7144508848237154,-10.103341658909523,1.139907003504416,0.6542133877668586,-0.750836244867,0.3037182282799981,1.387451477434961,0.01332627533415708,-1.1961340929005693,1.9714160216567536,0.03803515500301404,2.3200707810410037,1.9930025980363735,3.199782105158308,2.9624867427967283,2.75372808815322,3.137184730812787,3.1123633686651626
230,230,11.4826512,1.278664589,-9.328120232,1.459023595,11.64465818,1.058492064,1.112239838,-1.650840282,11.65609938,0.1871483326,-0.5304445028,0.16676130890000002,0.0,1.0,0.0,0,30.0,,,,,,1.4994852901549545,-9.751919465554,1.3512435375021168,0.2958964694451861,-0.5966963129822505,0.20868484864790549,1.1740896547048891,0.7609252398883146,-1.5414166463557688,2.000738623486393,0.03648265905785731,2.350451801754208,2.024004371433699,3.267262824034468,2.771237925297478,2.6969833110021084,3.316268540021584,2.859512088090757
231,231,11.532651199999998,0.4145565331,-9.835697174,1.787139416,11.69465818,1.111986756,1.331120491,-1.353880882,11.70609938,-0.304812789,-0.324970752,0.1203369126,0.0,1.0,0.0,0,30.0,,,,,,0.9643093159892356,-9.789897448418905,1.6399177292783549,-0.16494787739085065,-0.4066539861962983,0.14738087811976966,1.1338099512727315,1.1488332555548342,-1.3990107830099872,1.9677196767337681,0.026989433133453897,2.451657127060609,1.8975491181633355,3.259543178896979,2.838966689693866,2.569925095077817,3.4216055052680576,3.12429973524165
232,232,11.5826512,1.192523003,-8.416155815,1.930708766,11.74465818,1.111986756,1.331120491,-1.353880882,11.75609938,-0.5939726233,-0.269230932,0.06673506647,0.0,1.0,0.0,0,30.0,,,,,,1.076883050687096,-9.167154989442654,1.8324955252323205,-0.4940815240921563,-0.31054158190249137,0.09142135399285248,1.119655510121439,1.272844600181702,-1.3647412530904293,2.044434843053702,0.030139074433907932,2.607112419857021,1.7930791963923665,3.1717886577505605,2.978960295440715,2.8178374705750624,3.241624970258873,3.3273739462283443
233,233,11.632651199999998,1.431805253,-8.033004761,2.203789711,11.79465818,1.111986756,1.331120491,-1.353880882,11.80609938,-0.253348887,-0.2290677279,0.01404948719,0.0,1.0,0.0,0,30.0,,,,,,1.2519598326009598,-8.653023740049234,2.0783869280607443,-0.3093993781699909,-0.25355952719081043,0.037733595648063986,1.114681585607748,1.312490116580066,-1.3564943968633378,2.0989722049798414,0.034910269340971085,2.525673557724237,1.7692194924547955,3.079679486023051,2.9099276541067867,2.9606523908275353,3.3517427573242546,3.179996476426828
234,234,11.6826512,0.9290133715,-7.894220829,2.277967215,11.84465818,-0.1387677342,0.02959632874,2.2194142340000003,11.85609938,0.01908897609,-0.30870693920000003,0.05696150661,0.0,1.0,0.0,0,30.0,,,,,,1.092656112595145,-8.309044363399128,2.21055995557238,-0.057393938032382026,-0.2921291135796596,0.05107569891602376,0.3016991293163537,0.43972805383187497,1.3588828982924992,2.131111855257131,0.03338621607967873,2.585160303391902,1.7128995409103023,2.863527271021968,2.8987569365556025,2.934636702075398,3.41349811644519,3.1496370283183794
235,235,11.7326512,0.3954139352,-8.169395447000001,2.632104874,11.89465818,-0.1383815557,-1.075518608,3.01636982,11.90609938,0.02145601064,-0.3543677628,0.09552124143,0.0,1.0,0.0,0,30.0,,,,,,0.7487190023488661,-8.245738929813434,2.489730153320485,0.003097144109579647,-0.33565824522223675,0.08191612767078446,0.016264472640081296,-0.5911053750647085,2.61750072599635,2.2377838978939604,0.03400617108999008,2.6676719547584637,1.6056162870031827,2.6505930039760206,3.0157529836300068,3.0901013718609316,3.2888728149010564,3.222606270371912
236,236,11.782651199999998,0.347258389,-8.928518295,5.062315464,11.94465818,-0.1383815557,-1.075518608,3.01636982,11.95609938,0.2897706628,0.02176143415,0.03489464894,0.0,1.0,0.0,0,30.0,,,,,,0.5506856536679026,-8.555255428905232,4.19343744310268,0.22302362038693785,-0.0856822500962377,0.049288276083217966,-0.08403835251027021,-0.9206552540073716,2.9203832077313514,2.1034744780024814,0.031652819003481325,2.653369603676876,1.797496728491475,2.58013359439448,2.872373740346248,3.323607010490226,3.3235942683651754,3.19992400637341
237,237,11.8326512,0.3807578981000001,-10.52542877,6.223432541,11.99465818,2.157575846,-2.770871162,2.317024231,12.00609938,-0.5640410781,0.5432722569,-0.05444176123,0.0,1.0,0.0,0,30.0,,,,,,0.466863327513792,-9.448371399576509,5.537811692595818,-0.38078647877580135,0.3542026746457714,-0.02268921917618335,1.3698640815002143,-2.179370720596277,2.46222069984536,2.3571542777729433,0.03086619326451137,2.4948144937107255,1.9610147586659017,2.5088143586492864,2.805464933907305,3.2767450901013992,3.2279551239380204,3.0932021392554603
238,238,11.882651199999998,-0.524028182,-9.953245163,4.997709274,12.04465818,0.6162313223,2.174465656,-1.893999457,12.05609938,-0.8161683083,0.6802547574,-0.2528907657,0.0,1.0,0.0,0,30.0,,,,,,-0.02192575238038208,-9.677240002859977,5.180126206533902,-0.7147970704613784,0.5822404648228752,-0.18242434654280928,0.881060743337131,0.7825761320227089,-0.8456885696887722,2.5890695363626195,0.03204648235226987,2.5093683914370613,2.1183597751738446,2.548440521791744,2.7428110583570464,3.350076844212549,3.2981020162582757,2.8948364940753435
239,239,11.9326512,2.866003275,-12.78784275,6.014957905,12.09465818,0.6162313223,2.174465656,-1.893999457,12.10609938,-0.6620057225,0.598477602,-0.2549523711,0.0,1.0,0.0,0,30.0,,,,,,1.4026380454292786,-11.087333689362682,5.732997609549606,-0.6742972880477811,0.5935965673525352,-0.2327509990791065,0.7092933891847384,1.7294887944884851,-1.6417266893287414,2.8017385685387626,0.03188090372188321,2.515939666578955,2.2238374375694305,2.5265522121305843,2.787974017969126,3.2756996119581983,3.45144931995125,3.1589032259658385
240,240,11.9826512,0.7591229677,-8.923732758,3.048755169,12.14465818,0.6162313223,2.174465656,-1.893999457,12.15609938,-0.7282826304000001,0.3184041381,-0.260068208,0.0,1.0,0.0,0,30.0,,,,,,1.0852035536588986,-10.106533419607619,3.955344835652213,-0.7157130636611312,0.40112954517629,-0.2517062055469845,0.648933686930271,2.0322098205410635,-1.833290797134268,2.657454024885827,0.03282034492953964,2.128485428252477,2.303364516964898,2.4842000895439997,2.69344871426393,3.0880249291720916,3.277265243033818,3.3313023601724323
241,241,12.032651199999998,1.73360002,-8.229515076,1.523629785,12.19465818,-0.4777156413000001,1.030437469,-2.362336636,12.20609938,-0.7676059604000001,0.03833066672,0.081242688,0.0,1.0,0.0,0,30.0,,,,,,1.4050459474394628,-9.255646330864725,2.3449295689756835,-0.7555235838987862,0.1473913883095852,-0.020675464320111248,-0.0818067776093987,1.3506967352038115,-2.235023393256734,2.795408769877636,0.028553805524483913,2.0088977316528958,2.322197264807476,2.7482585579600096,2.97091123201924,2.983170568380204,3.4610998022574484,3.217137292773777
242,242,12.0826512,0.3640081584000001,-12.50279713,0.4366901219,12.24465818,-1.30440259,-1.60422802,-1.295860648,12.25609938,-0.8614473343000001,0.3378748894,0.1148392856,0.0,1.0,0.0,0,30.0,,,,,,0.8915206037296254,-10.727639770023604,1.081188598703405,-0.8367847945093604,0.2806137749920299,0.0733572047494963,-0.8747777663534119,-0.659560270327995,-1.5218672537571296,2.751725403907798,0.029480564461988854,2.122430380308409,2.6223372036021106,2.818409855756052,2.887104480325849,2.9013700560523144,3.4286200178302995,3.000535272692822
243,243,12.132651199999998,0.3687937856,-8.150253296,-0.3532404304,12.29465818,-1.30440259,-1.60422802,-1.295860648,12.30609938,-0.8622872829000001,0.6162685156000001,-0.07360709458999999,0.0,1.0,0.0,0,30.0,,,,,,0.6336688025763844,-9.559262870227867,0.13123091087931193,-0.8563494632084341,0.5153675746308206,-0.02862022081756503,-1.1534307910402486,-1.3022246758913396,-1.3502484377498465,2.8536542939168066,0.03127766184418839,2.1256707268107333,2.926352255829579,2.9021232129937116,2.9807077299037417,2.785533706325642,3.6566788608581087,3.1923258986568754
244,244,12.1826512,-0.7971090674,-11.16700459,-0.05144568533,12.34465818,1.088308573,0.6520729064999999,-0.17696252469999998,12.35609938,-0.8783983588,0.6617766619,-0.1288124174,0.0,1.0,0.0,0,30.0,,,,,,-0.07210836059705605,-10.28808188885264,0.010252435516415815,-0.8732646493075293,0.6177647267485253,-0.09814283491067037,0.30055282488934765,0.02729831766220792,-0.4593101454485097,3.0388960848911983,0.03128090258216183,2.0525624917996725,3.014817013028937,3.1115822451958928,3.212141112850749,2.7178273319447777,3.4318850406741452,3.1596759251544153
245,245,12.2326512,0.7591229677,-10.18774128,1.02562356,12.39465818,0.06830996275000001,-0.1010522842,-0.07693520932999999,12.40609938,-0.7837170362,0.6371136904,-0.09002361447000001,0.0,1.0,0.0,0,30.0,,,,,,0.3379232041445717,-10.24259563712564,0.6826869625038421,-0.8045666715856251,0.6312972117139966,-0.09250896871130196,0.14992098877163645,-0.060019539149592925,-0.16895255332380532,2.9637059523360487,0.028426512032137065,2.0304423795786843,2.3781870548399597,3.297454866777627,3.2649789047442495,2.6939425802751544,3.4281794432400496,3.0861077189616286
246,246,12.282651199999998,1.649851203,-9.246764183,0.4438686073,12.44465818,0.06830996275000001,-0.1010522842,-0.07693520932999999,12.45609938,-0.8140303493000001,0.4646256864,-0.1414874941,0.0,1.0,0.0,0,30.0,,,,,,0.985073849048321,-9.791166843376963,0.5245283307834583,-0.8118268932202706,0.5147286991166422,-0.12649480031071506,0.09698838802817823,-0.08793441689338466,-0.09907889814622828,2.9033328728123733,0.028945438427302468,2.0110871168764923,1.8861041372563485,3.395284118990772,3.305060744886893,2.61735838764888,3.446384677156618,3.0754026066901226
247,247,12.3326512,0.8021938205,-9.972387314,0.05623133107999999,12.49465818,0.06830996275000001,-0.1010522842,-0.07693520932999999,12.50609938,-0.8479323387000001,0.3598653972,-0.1635543555,0.0,1.0,0.0,0,30.0,,,,,,0.8948623980108557,-9.873317430255574,0.21439633676973896,-0.8395258011580987,0.40641874799954986,-0.15221014783505535,0.07838767058570588,-0.09685859835984416,-0.08226401945768326,2.8217837574037676,0.028830687725335293,2.002805873496281,1.6814193978049667,3.493869037093454,3.2447886855535084,2.6806807541688875,3.278078755105466,3.260337608319598
248,248,12.382651199999998,0.8021938205,-9.972387314,0.05623133107999999,12.54465818,0.06830996275000001,-0.1010522842,-0.07693520932999999,12.55609938,-0.6440621018,0.3114557564,-0.1586675793,0.0,1.0,0.0,0,30.0,,,,,,0.8491506441893191,-9.918227638565726,0.10965078292512602,-0.6895724924965901,0.3400025160777697,-0.1566909111147124,0.07185130765406861,-0.09971159365422663,-0.07821757098447933,2.6749189564314695,0.02632787406930895,1.9445747453760769,1.6908344958107238,3.3552320757667586,3.037487956660128,2.650505106245385,3.2219661610667747,3.2417579617032706
249,249,12.4326512,0.1127617657,-10.01785088,-0.07298108935,12.59465818,-0.8091204166,0.1954250336,1.535809517,12.60609938,-0.3763582706,0.287250936,-0.1718007922,0.0,1.0,0.0,0,30.0,,,,,,0.4859031656455877,-9.963388692330692,-0.011298073796438726,-0.4492848633841221,0.3031085522657185,-0.16717554433808585,-0.4995435984183027,0.10107202070945846,1.1473988975689693,2.6370522885730043,0.021920773703121746,1.8693778353591295,1.7724376697546693,3.3661814044427802,2.8530401601893596,2.8360384985401095,3.3668802066106545,3.1971244835746355
250,250,12.4826512,-0.4642075896,-9.816555023,-0.7004988194,12.64465818,-0.8091204166,0.1954250336,1.535809517,12.65609938,-0.3293993771,0.2877090573,-0.2238755226,0.0,1.0,0.0,0,30.0,,,,,,0.01723050330654691,-9.896826277708517,-0.46772466126140005,-0.3573126691073292,0.2923382889230436,-0.20651923420280646,-0.7003339440019505,0.1652610680883837,1.4423397044443855,2.581254944413865,0.02418423139808871,2.035921821028435,1.730852013213698,3.174982327360974,2.669373981219116,3.0560311457722946,3.618061111958106,3.3915792498396518
251,251,12.532651199999998,-0.1241276711,-9.682557106,0.03469592705,12.69465818,-1.443808556,-0.1135759354,0.262129426,12.70609938,-0.4769953489,0.419575721,-0.2354816198,0.0,1.0,0.0,0,30.0,,,,,,-0.052498958848749284,-9.79969410406876,-0.13499415266015066,-0.44912927695645133,0.38132696398061616,-0.2266160164716828,-1.182548746301996,-0.0244337925534098,0.5461433738708349,2.3454653327884714,0.026178995167224647,1.887549755957286,1.7859035769911311,2.7261863582461254,2.4869802525505698,3.163282383639833,3.6118664763996753,3.2466408185784235
252,252,12.5826512,-0.3469592929,-9.859625816,0.8318049908,12.74465818,-0.5323496461,0.153011322,0.7054920197,12.75609938,-0.4632512927,0.4641675651,-0.4339306355,0.0,1.0,0.0,0,30.0,,,,,,-0.1977509812492593,-9.826862256339279,0.5052733407302732,-0.4599632220518495,0.4392649089189131,-0.3704700764145609,-0.7608320855427406,0.09628342167611252,0.6671452616197393,2.2048843852148887,0.025830574072604917,1.7808687890966968,1.739507764932794,2.3227905685217007,2.3631087355321134,2.767992499730115,3.5205154736483895,3.037272820215247
253,253,12.632651199999998,-0.4283152521,-9.866804123,-0.2551347017,12.79465818,-0.01878476143,-0.3991727829,0.7218353748,12.80609938,-0.3408527672,0.2241045833,-0.4255314767,0.0,1.0,0.0,0,30.0,,,,,,-0.3114842171316985,-9.844968642293328,0.0016893702556785015,-0.3685856063654033,0.2887837809311412,-0.4086767693209145,-0.2795430164724668,-0.24077907188534886,0.7086743684873094,2.176625397366166,0.024029183002825572,1.610491690685152,1.6449774532653463,2.264863268652335,2.323589989386367,2.910681314973978,3.6072927794680223,2.893296170129014
254,254,12.6826512,0.2036890239,-9.565308571000001,-1.4808580880000002,12.84465818,-0.01878476143,-0.3991727829,0.7218353748,12.85609938,0.057496000079999984,-0.03298575059,-0.1414874941,0.0,1.0,0.0,0,30.0,,,,,,-0.05735846065741385,-9.71819356585986,-0.9801349839413144,-0.04170983930630706,0.06374116720927414,-0.2232761342806451,-0.1104162050899158,-0.3485354763979498,0.7186682194207854,1.8920193955479927,0.01873136841383811,1.629832282160787,1.8364997182558036,2.6485352180354917,2.5551692037025977,3.0850117278399485,3.543994043402293,3.0031830863849547
255,255,12.7326512,1.135095239,-10.12552834,-0.6909275651000001,12.89465818,-2.175823689,-3.184387207,0.252779007,12.90609938,0.9321529269,0.2017323077,-0.07498150319,0.0,1.0,0.0,0,30.0,,,,,,0.5308576466607231,-9.902845941509495,-0.7886059467142308,0.7054055815536606,0.16025088574572705,-0.1203756014806974,-1.4500316347818791,-2.2777862292865683,0.3648938028700632,1.9937485208420511,0.01553353016751808,1.5388662442948102,2.1960037759160445,2.353592690576163,2.335305592692104,3.167689693792788,3.386571036574125,3.0467975465696635
256,256,12.782651199999998,0.3664009571,-10.45095158,-1.34925282,12.94465818,0.1023949385,-2.143348694,3.029134512,12.95609938,1.624930024,0.3277195692,0.03023693897,0.0,1.0,0.0,0,30.0,,,,,,0.44973409963772776,-10.151312350675424,-1.1598970992616249,1.4108344312261312,0.2773769233318238,-0.015866688754537353,-0.4431336702456641,-2.186327386900584,2.3879932376523265,1.9844167020545471,0.014460825795096532,1.5128455023554812,2.2970673787095417,2.1830685628521103,2.418684238725404,3.0311236666190937,3.2965484738060415,3.132986577538757
257,257,12.8326512,-0.9334999323,-12.79741383,-2.263610125,12.99465818,0.1023949385,-2.143348694,3.029134512,13.00609938,1.53215766,-0.1815743446,0.3195494711,0.0,1.0,0.0,0,30.0,,,,,,-0.23259053755217454,-11.350839029855704,-1.8908364851220645,1.503909613806402,-0.043609319297507054,0.2168760700944352,-0.08930589173709763,-2.1570886664714264,2.8748458501895398,1.8130761005186218,0.018252560020942533,1.6816449584555642,2.270209296454344,2.2301219648917985,2.4843006499882687,3.146647822761806,3.1135739483201226,3.1772433194685594
258,258,12.882651199999998,1.127916813,-12.2419796,0.8461619020000001,13.04465818,0.1023949385,-2.143348694,3.029134512,13.05609938,1.396778584,-0.05612159147999999,0.5293754935,0.0,1.0,0.0,0,30.0,,,,,,0.4385234336650506,-11.754809511547348,-0.07824582591835316,1.4217222178505569,-0.052360285934885065,0.4337170773111746,0.03503053683237767,-2.147741262217976,2.992005423396489,1.661823085056073,0.01875022124435077,1.8053169383490693,2.2359467171134884,2.2583452062707536,2.6201540264556638,2.993174833004452,3.28787098622591,2.9085600446605127
259,259,12.9326512,1.127916813,-12.2419796,0.8461619020000001,13.09465818,0.4906793833,-0.5099554062,-1.111444831,13.10609938,1.259185314,-0.1021642014,0.4864634871,0.0,1.0,0.0,0,30.0,,,,,,0.7785888719843492,-11.975652711495936,0.5339477437765747,1.2970292617140649,-0.08719268061707136,0.4703174156751073,0.3305626437509964,-1.0335435199020622,-0.12396223741875413,1.6380835487052579,0.017793474016030417,1.6348330019962622,1.8703857408633096,2.3552952235607436,2.5105742210031434,2.857746156491101,3.2479494524597468,2.9722100430634266
260,260,12.9826512,1.080060363,-9.436096191,-3.1663026810000003,13.14465818,1.872456789,-1.510586739,-1.816925883,13.15609938,1.303471684,-0.2660239935,0.5812211633,0.0,1.0,0.0,0,30.0,,,,,,0.9272993727794782,-10.824424828682758,-1.9165613205644203,1.301971676133239,-0.2122656353961884,0.5472726947252089,1.3306293155983733,-1.3580795239764676,-1.4095194257785295,1.6861507863843952,0.023650212094244387,1.9255111971519767,1.712022426595579,2.360105602661146,2.426612751911802,2.7632056870327597,3.431762878216701,2.899035899683009
261,261,13.032651199999998,1.343270779,-10.19731236,-0.2479562461,13.19465818,1.872456789,-1.510586739,-1.816925883,13.20609938,1.220167398,-0.3875826001,0.6472690105,0.0,1.0,0.0,0,30.0,,,,,,1.132490636184632,-10.540143159972247,-0.811519393579399,1.2392141301351416,-0.3348806878049601,0.616659388633104,1.6820565518458908,-1.4618313017682854,-1.7188847812121402,1.595818276242215,0.025487397323702247,2.0768905902307915,2.3503168482152565,2.6773082856807564,2.5508288454270582,2.7310115778575947,3.445341696985139,2.8768976449571992
262,262,13.0826512,2.6913273330000003,-11.44696426,-0.4704887569,13.24465818,0.5911853909,-0.2701320648,-1.501747489,13.25609938,1.040807366,-0.6813237667,0.6414659618999999,0.0,1.0,0.0,0,30.0,,,,,,1.901436931135508,-10.951221917749463,-0.5856701751524196,1.087002999417913,-0.5771797507856071,0.6338724838794858,0.9745216703873602,-0.6511095615357232,-1.554000905781027,1.6151679315389469,0.024817471135138065,2.089438332211378,2.833188406866164,3.3076031607190752,2.4828792103938264,2.642927633434418,3.409858985450081,2.7570594027074375
263,263,13.132651199999998,0.7447660565,-9.934102057999999,0.480060041,13.29465818,0.8384387493000001,0.1277914047,-2.558251858,13.30609938,0.9511655569,-0.6673506497999999,0.5131117104999999,0.0,1.0,0.0,0,30.0,,,,,,1.3308718520225171,-10.49014269664494,0.12011490826727013,0.9827929900110864,-0.6402444378234496,0.5500774885678196,0.886258805915366,-0.1212175155764318,-2.3165819767784437,1.6972839978903904,0.02698913226847486,2.2358319665890236,2.276906748902144,3.353181422574995,2.3986794002577505,2.5896418490309134,3.352641047326311,2.631969402826636
264,264,13.1826512,0.1007976532,-10.45813084,0.7336992620999999,13.34465818,0.8487827182,0.4183721542,-0.9783840179,13.35609938,0.7327876687,-1.075167537,0.3278722763,0.0,1.0,0.0,0,30.0,,,,,,0.7240982243810177,-10.47563112909241,0.5264641679965143,0.7909971463643855,-0.9444256027888412,0.395890957576954,0.8619519581016994,0.2458692984100561,-1.3004172117406014,1.4001086481384897,0.026722658609720267,2.150555376598492,2.0163968749950145,3.071684559625581,2.59210894375066,2.664878348489964,3.2762616187978084,2.810767347475428
265,265,13.2326512,1.381555915,-9.450452805,0.5781657696,13.39465818,0.8487827182,0.4183721542,-0.9783840179,13.40609938,0.2840439677,-1.144880533,0.2643441558,0.0,1.0,0.0,0,30.0,,,,,,1.0484103579624475,-10.010898856857148,0.5607038082291601,0.40207937421948303,-1.0846219143060645,0.3046116179778812,0.8534104392314961,0.3632242577269909,-1.0558803085506792,1.3880363949411385,0.025704450658253834,2.1423916516392674,1.981901243863636,2.771480982108132,2.704766503407551,2.914629132704672,3.3313339008420604,3.0760943925130357
266,266,13.282651199999998,0.5653043389,-9.275477409,2.146062851,13.44465818,0.06807588041,1.755627632,-1.778725624,13.45609938,-0.4372902811,-0.9452861547,0.293664813,0.0,1.0,0.0,0,30.0,,,,,,0.8101027892135791,-9.677518729548767,1.6106156408031729,-0.2418573641035916,-0.9871717816963491,0.2970157120971593,0.3440454345451968,1.3104864962267435,-1.6047751378762705,1.1307498517549575,0.02244050720179224,2.02388837280436,1.991172088457472,2.713485822380874,2.5951078401678003,2.827189340147646,3.171186300492107,3.4136462162038907
267,267,13.3326512,0.7160521745999999,-8.44726181,1.74885428,13.49465818,0.2118992507,2.169783115,-1.892436743,13.50609938,-0.7027034163,-0.6184064746,0.3746784329,0.0,1.0,0.0,0,30.0,,,,,,0.7637093011745244,-9.119820541988895,1.702164859998635,-0.5954032683251756,-0.7292607601964031,0.3509052918797883,0.2583359228803439,1.8950722951109744,-1.823211868578442,1.2229303729821575,0.02567516066790537,1.9669429845810331,1.9707156306850182,2.617515045680348,2.646142847155684,2.86400051837792,3.158265290804933,3.3810798704715856
268,268,13.382651199999998,0.2084746659,-7.681259632000001,2.117348909,13.54465818,0.2118992507,2.169783115,-1.892436743,13.55609938,-0.2544942498,-0.4726430774,0.3481829464,0.0,1.0,0.0,0,30.0,,,,,,0.4898219745630433,-8.467694307555451,1.9771225411247582,-0.333869103895222,-0.5497847426957386,0.3490162767900932,0.2282172741417922,2.081960083044,-1.8757779912257384,1.1140668519139147,0.02633709089947335,1.9554288094707901,1.9322010792715572,2.519949455994041,2.5082316543678624,3.2977518723344685,3.2716486434714547,3.2318159497565553
269,269,13.4326512,0.347258389,-7.135396957,1.523629785,13.59465818,0.2118992507,2.169783115,-1.892436743,13.60609938,0.04986040667,-0.7247702479000001,0.336958617,0.0,1.0,0.0,0,30.0,,,,,,0.4194979046275056,-7.863739307709327,1.6767947300436097,-0.03948446909656994,-0.6721679754310396,0.3406495570345047,0.2176334662981144,2.1417067367348066,-1.8884278658200344,0.9935089747441942,0.025912737768534935,1.909447736278725,1.9465445551228058,2.3525795625460253,2.400335927776632,3.2413173456840734,3.27776088876702,3.1254253907803764
270,270,13.4826512,0.0242273286,-8.425726891,3.635295868,13.64465818,0.2118992507,2.169783115,-1.892436743,13.65609938,-0.2822114229,-0.7062921524,0.2828986347,0.0,1.0,0.0,0,30.0,,,,,,0.22451799077652976,-8.118498660399059,2.9738217525370247,-0.22569658906741905,-0.6960341070099864,0.3005766249464572,0.21391427592392892,2.1608073032658233,-1.8914720189588368,1.1674762430383865,0.02508356643664531,1.8402187161521628,1.9355070212595313,2.1212328483526797,2.352909525601611,3.034771411953237,3.4422385536020093,3.0626180049445697
271,271,13.532651199999998,0.2132603228,-10.37916756,5.32791853,13.69465818,-0.4045017064,-0.15802860259999998,-0.1346986294,13.70609938,0.1835595965,-0.3077906668,-0.1088071689,0.0,1.0,0.0,0,30.0,,,,,,0.21896478428066352,-9.143301631592783,4.532833934991054,0.08827126959996079,-0.4245002606288969,0.016508279407908166,-0.18718797556370625,0.5832862118447479,-0.5574607040692479,1.1957368006465041,0.02094207857106727,1.7258126464145744,1.8353068375602941,1.9290848671652503,2.2729260934066433,2.9276874956527847,3.3568499488925143,2.6021161894502494
272,272,13.5826512,0.009870393202,-10.3217392,5.59142828,13.74465818,-0.4045017064,-0.15802860259999998,-0.1346986294,13.75609938,-0.6790331006,0.2922904193,-0.3033620119,0.0,1.0,0.0,0,30.0,,,,,,0.1158222565244233,-9.677509148717476,5.233893252558895,-0.5003793569084135,0.07681646551120648,-0.2054473177775795,-0.3281368339358892,0.07896430091895447,-0.2364350131703236,1.239974041906358,0.016333590632664628,1.5524969275707918,1.7276300101517597,2.1242392845131466,2.2638005015009175,2.856022474499067,3.4998308765603863,2.587129999337351
273,273,13.632651199999998,-0.7683951855,-9.292227745,3.848556042,13.79465818,-0.4045017064,-0.15802860259999998,-0.1346986294,13.80609938,-0.9662076235,0.8694646954999999,-0.2637332976,0.0,1.0,0.0,0,30.0,,,,,,-0.3203464115250409,-9.502853971281752,4.316446863084097,-0.8577474517759749,0.6311872556457253,-0.2458915222166233,-0.3776667994315681,-0.08226371132316837,-0.15918117501553902,1.297853833497231,0.013662099869078292,1.4468648278555156,1.955763501685538,2.1214049314412424,2.332536039258568,2.9662560305152756,3.273721516953063,2.780645232059885
274,274,13.6826512,3.696611881,-11.86361504,5.504987717000001,13.84465818,-0.09487102926,0.08554935455,-2.559360266,13.85609938,-0.5774033665999999,0.1243837699,-0.3794125021,0.0,1.0,0.0,0,30.0,,,,,,1.6611473534243506,-10.573030571359846,5.103563895916729,-0.6426767082679464,0.2767336175673486,-0.3385407291615443,-0.19424653964357735,0.031900749459227426,-1.9817646019783024,1.2274745336238642,0.013723280796648682,1.33969402779337,2.1942531600870168,2.048090997445161,2.4163395320571257,3.0484065679861168,3.0507081223808528,2.9007314119060763
275,275,13.7326512,2.708076954,-9.443274498,3.180360317,13.89465818,0.20572426920000006,-1.141828537,-1.74249053,13.90609938,-0.6587987542,-0.12583453949999998,-0.167906642,0.0,1.0,0.0,0,30.0,,,,,,2.177579022477924,-10.060891273747464,3.8299128558069064,-0.655045010620944,-0.004818802414383538,-0.2201390152386733,0.06517300404957896,-0.7665959015129673,-1.800071094293498,1.16977641581697,0.01606566458061343,1.4215577634759242,2.337278276798708,2.0878144712694837,2.418061567476598,2.9911365343527634,2.952362895089853,3.0608835599885063
276,276,13.782651199999998,0.2635096014,-8.964410782,0.04187439755,13.94465818,0.20572426920000006,-1.141828537,-1.74249053,13.95609938,-0.9619317055,-0.1585912257,0.173633337,0.0,1.0,0.0,0,30.0,,,,,,1.2334027708967137,-9.563836411910179,1.3212657339899618,-0.8904783695428813,-0.11236580321691908,0.05309666801575852,0.1563340194449518,-1.0218694183465082,-1.7563471144551484,1.125936165182316,0.016535297359644572,1.748261486537497,2.3155527853686753,2.1750707762855876,2.4381233885345592,2.8954393982344238,3.0024628365337165,3.097276890365138
277,277,13.8326512,0.7878368497,-11.17896843,0.037088751789999985,13.99465818,0.20572426920000006,-1.141828537,-1.74249053,14.00609938,-0.8593857288,0.1718007922,0.04947862774,0.0,1.0,0.0,0,30.0,,,,,,1.013613061769614,-10.296005591229472,0.4708132040620397,-0.8666251202423708,0.08637766720263795,0.05058613699256453,0.18836834735104407,-1.1034784874856514,-1.7458250741397563,1.267125656859286,0.019181434410329056,1.7544477736585005,1.8825449971025945,2.3166504393611405,2.399250026196749,2.7251775614314595,3.1701580665054427,3.1058547720189487
278,278,13.882651199999998,-0.9598209858,-9.277871132000001,-0.001196411322,14.04465818,0.8989081979000001,-0.0055475234990000006,0.6597307324,14.05609938,-0.9475768209,0.2484621257,-0.1215586066,0.0,1.0,0.0,0,30.0,,,,,,0.040153300483682375,-9.834466433205495,0.1582225120323681,-0.9287285972069148,0.19973802796380213,-0.06886381009232609,0.6492217890188932,-0.3565479917862733,0.08084117866875595,1.3113563410508282,0.025392624380890846,1.8190013400138276,1.9471496790909635,2.2547810805298867,2.3675114517479505,2.551147489081314,3.389031045445763,3.0095062005944704
