,Unnamed: 0,Time (s),Acceleration x (m/s^2),Acceleration y (m/s^2),Acceleration z (m/s^2),Gyroscope x (rad/s),Gyroscope y (rad/s),Gyroscope z (rad/s),Linear Acceleration x (m/s^2),Linear Acceleration y (m/s^2),Linear Acceleration z (m/s^2),Still,Walk,Run,Cycle,Timestamps,Acceleration x (m/s^2)_kalman,Acceleration y (m/s^2)_kalman,Acceleration z (m/s^2)_kalman,Gyroscope x (rad/s)_kalman,Gyroscope y (rad/s)_kalman,Gyroscope z (rad/s)_kalman,Linear Acceleration x (m/s^2)_kalman,Linear Acceleration y (m/s^2)_kalman,Linear Acceleration z (m/s^2)_kalman,Acceleration x (m/s^2)_kalman_max_freq,Acceleration y (m/s^2)_kalman_max_freq,Acceleration z (m/s^2)_kalman_max_freq,Gyroscope x (rad/s)_kalman_max_freq,Gyroscope y (rad/s)_kalman_max_freq,Gyroscope z (rad/s)_kalman_max_freq,Linear Acceleration x (m/s^2)_kalman_max_freq,Linear Acceleration y (m/s^2)_kalman_max_freq,Linear Acceleration z (m/s^2)_kalman_max_freq
0,0,0.0476,0.812,5.72,9.93,-0.42200000000000004,1.65,0.43700000000000006,3.41,1.5,1.47,0,1,0,0,47600000.0,-0.221183627,3.65207542,6.460828502999999,-0.25619210600000003,1.4030310480000001,0.57349529,1.71493247,0.813756235,0.551568551,,,,,,,,,
1,1,0.0976,-2.14,5.36,8.53,0.355,1.34,0.904,1.01,1.07,0.292,0,1,0,0,97600000.0,-0.5300541639999999,4.166878623000001,6.9810073379999995,0.20143102699999998,1.371895046,0.8148760340000001,1.5732463819999998,0.8882501770000001,0.46483879,,,,,,,,,
2,2,0.14800000000000002,-1.79,5.58,5.92,-0.11,0.966,1.51,1.54,0.965,-2.07,0,1,0,0,148000000.0,-0.8508893670000001,4.760492548999999,6.596888796,-0.041494754,1.138169148,1.3469399480000002,1.563061611,0.919635718,-0.6744120859999999,,,,,,,,,
3,3,0.198,-1.38,4.71,8.98,0.134,1.72,1.94,2.03,-0.106,1.15,0,1,0,0,198000000.0,-1.011361441,4.737396845,7.559886857,0.095660458,1.4814847309999999,1.802017397,1.7281616659999999,0.460626298,0.205506463,,,,,,,,,
4,4,0.248,-2.04,4.85,5.63,-0.33899999999999997,0.764,1.86,1.36,-0.268,-2.01,0,1,0,0,248000000.0,-1.346826034,4.790115579,6.75191331,-0.244072873,1.056419042,1.846515659,1.590935316,0.126133777,-0.8822261659999999,,,,,,,,,
5,5,0.298,-0.306,4.12,7.56,-1.45,1.53,2.25,2.98,-0.998,-0.14,0,1,0,0,298000000.0,-0.996755883,4.4743491539999996,7.0941756510000005,-1.186637247,1.337173564,2.156168514,2.119031138,-0.393696515,-0.516161879,,,,,,,,,
6,6,0.348,-2.96,4.48,10.1,-0.873,-0.0189,2.72,0.268,-0.48200000000000004,2.33,0,1,0,0,348000000.0,-1.66584355,4.477016688,8.372145966,-0.941495302,0.533159367,2.588879501,1.410033197,-0.434615914,0.889190296,,,,,,,,,
7,7,0.39799999999999996,-1.09,3.44,5.83,0.0272,0.701,3.33,-0.69,-0.7240000000000001,2.15,0,1,0,0,398000000.0,-1.46847714,3.987240728,7.289957522000001,-0.18435349399999998,0.632673658,3.157650398,0.603387856,-0.568795664,1.5119267809999999,,,,,,,,,
8,8,0.44799999999999995,-0.606,1.24,10.8,-1.3,3.35,2.86,1.55,-3.95,2.72,0,1,0,0,448000000.0,-1.172148642,2.6895572160000003,8.784796565,-1.056353776,2.243807081,2.929219311,0.96738004,-2.136841693,2.108661178,,,,,,,,,
9,9,0.498,-0.299,1.62,10.2,0.0431,0.0409,2.45,1.99,-3.54,2.19,0,1,0,0,498000000.0,-0.871839569,2.184322847,9.387578243,-0.197009855,0.937677935,2.5614437619999997,1.360757706,-2.7875938419999997,2.148839746,,,,,,,,,
10,10,0.5479999999999999,-0.235,1.24,11.5,0.493,1.83,2.61,1.7,-4.25,3.61,0,1,0,0,548000000.0,-0.652707613,1.738241531,10.28736866,0.342308658,1.466746101,2.5987080369999997,1.491276146,-3.465833468,2.87060548,,,,,,,,,
11,11,0.598,-0.0144,1.75,6.7,-0.0553,2.81,2.03,1.77,-4.16,-0.9179999999999999,0,1,0,0,598000000.0,-0.433028013,1.743796039,8.759298864,0.031533806,2.2631769530000003,2.162254544,1.5985171969999998,-3.787777598,0.9991548379999999,,,,,,,,,
12,12,0.648,-0.342,4.88,11.4,1.96,1.41,2.33,2.08,-1.28,4.21,0,1,0,0,648000000.0,-0.40169725700000003,3.2252887510000003,9.884132944,1.538842045,1.7573183769999998,2.29099029,1.783775285,-2.624705943,2.585210799,,,,,,,,,
13,13,0.698,0.28300000000000003,3.01,9.02,-0.0504,1.77,2.81,2.29,-3.93,2.39,0,1,0,0,698000000.0,-0.16602418300000002,3.1235897560000003,9.51604609,0.296674779,1.7648374480000002,2.689302868,1.9785548430000002,-3.2300830289999998,2.4887828830000003,,,,,,,,,
14,14,0.748,1.62,0.838,10.4,-0.218,2.74,2.26,3.44,-6.24,3.84,0,1,0,0,748000000.0,0.448735536,2.043913341,9.892576137,-0.105600103,2.343022693,2.359835516,2.540875409,-4.626040286,3.1562414239999996,,,,,,,,,
15,15,0.7979999999999999,5.83,-4.72,1.86,-2.8,3.77,0.866,8.01,-11.8,-4.6,0,1,0,0,798000000.0,2.301009711,-1.151252191,6.4710084960000005,-2.211569616,3.1890941539999997,1.213395419,4.645234155,-7.953222573,-0.675096866,,,,,,,,,
16,16,0.848,0.6629999999999999,-4.39,11.3,-4.73,3.54,-1.03,4.05,-10.1,4.03,0,1,0,0,848000000.0,1.7371920790000002,-2.681185351,8.527972839,-4.179999673,3.3971502960000004,-0.508292408,4.416205488999999,-8.948868109,1.649072515,,,,,,,,,
17,17,0.898,-4.63,-2.4,13.0,-2.25,3.08,-1.3,0.35,-6.34,5.51,0,1,0,0,898000000.0,-0.45445524,-2.548357885,10.43288409,-2.671492882,3.209108145,-1.115886258,2.851647963,-7.738911619,3.556248889,,,,,,,,,
18,18,0.948,-5.72,-0.728,7.06,-2.13,1.09,-0.992,0.3,-3.64,-0.114,0,1,0,0,948000000.0,-2.266906054,-1.6884496119999999,8.996165402,-2.2482567909999998,1.952664254,-1.020810066,1.869848035,-5.837893755,1.743261833,,,,,,,,,
19,19,0.998,-9.09,0.397,7.71,-3.26,0.0935,-0.627,-2.8,-1.33,0.387,0,1,0,0,998000000.0,-4.615480857,-0.703316202,8.448308512999999,-3.03904526,0.8503441070000001,-0.718581558,0.073026288,-3.747195664,1.073311312,,,,,,,,,
20,20,1.05,-9.17,-0.0694,12.7,-1.84,-0.0354,-0.0861,-2.87,-0.499,5.16,0,1,0,0,1050000000.0,-6.183190456,-0.403864216,10.25936519,-2.1018596780000003,0.325176106,-0.233185266,-1.059364636,-2.240727925,3.092006403,,,,,,,,,
21,21,1.1,-8.92,-0.73,4.92,-1.85,1.0,-0.136,-2.5,-0.619,-2.49,0,1,0,0,1100000000.0,-7.125226857,-0.55792561,7.985001375,-1.9050036869999998,0.725287056,-0.158600698,-1.61367925,-1.48859319,0.334671499,,,,,,,,,
22,22,1.15,-10.6,-3.14,7.11,-2.15,-0.0593,0.7,-3.91,-2.3,-0.00135,0,1,0,0,1150000000.0,-8.321277609,-1.7776567509999999,7.61228456,-2.0964952980000002,0.26009624800000003,0.500330116,-2.497236763,-1.864912305,0.168687489,,,,,,,,,
23,23,1.2,-7.24,-6.15,6.93,-2.11,-0.19699999999999998,0.946,-0.626,-4.94,-0.20600000000000002,0,1,0,0,1200000000.0,-7.949091286,-3.843082574,7.321657553,-2.107050624,-0.010921442,0.842358268,-1.777239241,-3.29109502,-0.016396299,,,,,,,,,
24,24,1.25,-13.1,-7.01,5.55,-2.1,0.541,0.41700000000000004,-6.37,-5.23,-1.35,0,1,0,0,1250000000.0,-9.72208418,-5.339084372,6.566999778,-2.1015397119999997,0.316319217,0.515918193,-3.544400045,-4.190332056,-0.6751544279999999,,,,,,,,,
25,25,1.3,-6.1,-7.12,5.26,-2.15,-0.142,1.01,0.82,-4.9,-1.33,0,1,0,0,1300000000.0,-8.475327623,-6.180360685,6.010268329,-2.139416826,0.04457641,0.895099955,-1.865105765,-4.5194661730000005,-0.998627484,,,,,,,,,
26,26,1.35,-6.68,-6.52,3.24,-1.43,0.18,0.266,0.264,-3.94,-3.18,0,1,0,0,1350000000.0,-7.857358372999999,-6.340800915,4.830240763,-1.584929593,0.124870639,0.412298869,-1.045887751,-4.2507178880000005,-2.076156658,,,,,,,,,
27,27,1.4,-8.28,-3.47,1.47,-1.67,0.315,0.667,-1.16,-0.513,-4.58,0,1,0,0,1400000000.0,-8.002835631,-4.9846799939999995,3.39890768,-1.651421429,0.23760055100000002,0.607768571,-1.089794815,-2.5172165840000003,-3.312976167,,,,,,,,,
28,28,1.45,-3.84,-3.17,0.8640000000000001,-1.31,0.154,1.05,3.5,-0.0758,-4.86,0,1,0,0,1450000000.0,-6.569947179,-4.12745391,2.319134687,-1.384563026,0.18803281,0.9471578690000001,0.676224825,-1.3849216999999998,-4.077157156,,,,,,,,,
29,29,1.5,-6.76,-3.89,0.7490000000000001,-1.13,0.8340000000000001,-0.00909,0.8079999999999999,-0.682,-4.6,0,1,0,0,1500000000.0,-6.635365283,-4.015284489,1.650317813,-1.185594049,0.571034278,0.213287985,0.7269280929999999,-1.058916432,-4.3354249639999995,,,,,,,,,
30,30,1.55,-8.43,-4.61,1.03,-1.46,0.11,0.37799999999999995,-0.722,-1.15,-3.95,0,1,0,0,1550000000.0,-7.253096074,-4.2962187510000005,1.386086313,-1.400072478,0.29768168300000003,0.339695776,0.16942267600000002,-1.101159707,-4.145037226,,,,,,,,,
31,31,1.6,-13.5,-1.94,1.31,1.28,1.39,-0.316,-5.59,1.63,-3.3,0,1,0,0,1600000000.0,-9.403341028,-3.183178317,1.353676451,0.694698597,0.945329932,-0.163516215,-2.0466358280000003,0.165513986,-3.727615497,,,,,,,,,
32,32,1.65,-11.9,-4.0,2.67,0.917,1.01,0.49200000000000005,-3.7,-0.6940000000000001,-1.58,0,1,0,0,1650000000.0,-10.26271514,-3.569031957,1.914379598,0.868451564,0.983673563,0.33955797200000004,-2.682802324,-0.23311658899999999,-2.666761278,,,,,,,,,
33,33,1.7,-8.89,-5.33,2.26,0.491,0.26899999999999996,-0.258,-0.5,-2.36,-1.87,0,1,0,0,1700000000.0,-9.790213388,-4.400885365,2.0616005680000002,0.5734316939999999,0.559935277,-0.119036294,-1.842923434,-1.2195353359999999,-2.273186368,,,,,,,,,
34,34,1.75,-9.72,-5.42,3.08,0.16399999999999998,-0.368,0.249,-1.39,-2.49,-1.19,0,1,0,0,1750000000.0,-9.76604535,-4.882299032,2.495399455,0.253415845,0.009751639,0.16341218,-1.668651655,-1.8087590930000002,-1.738126535,,,,,,,,,
35,35,1.8,-11.2,-5.56,-0.373,0.47100000000000003,-0.654,0.65,-2.84,-2.84,-4.8,0,1,0,0,1800000000.0,-10.25962639,-5.20243422,1.273571808,0.423481757,-0.383794432,0.53684269,-2.11935242,-2.2870341709999997,-3.2505954360000002,,,,,,,,,
36,36,1.85,-7.32,-3.73,4.61,0.20800000000000002,-1.79,0.621,0.8340000000000001,-1.44,-0.337,0,1,0,0,1850000000.0,-9.247778519,-4.5068795989999995,2.694761722,0.255059093,-1.217550076,0.601428988,-0.9829882529999999,-1.894191589,-1.8113712990000002,,,,,,,,,
37,37,1.9,-6.42,-5.71,-0.0407,1.05,-0.188,-0.45799999999999996,1.4,-3.61,-5.58,0,1,0,0,1900000000.0,-8.274429736,-5.07521466,1.529560426,0.8763927140000001,-0.607117836,-0.211626975,-0.066083645,-2.689959497,-3.672954837,,,,,,,,,
38,38,1.95,-0.34,-2.63,1.32,0.13,-2.41,-0.19699999999999998,7.35,-0.45399999999999996,-4.36,0,1,0,0,1950000000.0,-5.543322022000001,-3.920133994,1.4402957809999999,0.293004799,-1.6760677290000001,-0.20040154,2.787409752,-1.652952735,-4.012333518999999,,,,,,,,,
39,39,2.0,-9.19,-6.17,0.0838,-0.606,-2.12,-2.01,-2.63,-3.63,-6.75,0,1,0,0,2000000000.0,-6.7985438270000005,-4.982935137,0.862480845,-0.409666229,-1.939280277,-1.5891730590000002,0.702947896,-2.569879674,-5.364654313,,,,,,,,,
40,40,2.05,-3.9,-7.41,0.41700000000000004,-1.74,-1.07,-1.69,1.93,-3.97,-6.68,0,1,0,0,2050000000.0,-5.800836946,-6.129442107999999,0.672723168,-1.449468241,-1.423873903,-1.666552471,1.17508186,-3.2192359230000003,-6.014393462999999,,,,,,,,,
41,41,2.1,-6.28,-8.56,6.0,-2.01,-0.775,-1.3,-1.04,-3.95,-0.885,0,1,0,0,2100000000.0,-5.965769591,-7.277599402000001,2.941937839,-1.8875853880000002,-1.039148991,-1.385242715,0.322782758,-3.5581541089999997,-3.480635059,,,,,,,,,
42,42,2.15,-10.3,-10.6,10.9,0.501,-1.45,0.32299999999999995,-5.59,-5.44,4.04,0,1,0,0,2150000000.0,-7.457653825,-8.847049062,6.331765534,-0.020643486000000003,-1.28274737,-0.074256375,-1.9522842480000002,-4.430927955,0.234321162,,,,,,,,,
43,43,2.2,-3.5,-1.62,3.61,-0.35100000000000003,0.349,0.9540000000000001,0.982,3.27,-3.61,0,1,0,0,2200000000.0,-6.0953909710000005,-5.433105424,5.172398241000001,-0.278853406,-0.315265337,0.714876243,-0.823256958,-0.859345224,-1.6646520480000002,,,,,,,,,
44,44,2.25,-9.67,-15.1,-0.436,-0.251,0.662,-1.1,-4.96,-10.0,-7.34,0,1,0,0,2250000000.0,-7.325806115,-9.999593666,2.7834366860000004,-0.257082899,0.264166668,-0.677945722,-2.414955459,-5.098653139,-4.468094801,,,,,,,,,
45,45,2.3,-5.78,-7.64,1.54,0.0583,-0.47,0.51,-1.12,-2.25,-5.2,0,1,0,0,2300000000.0,-6.793724721,-8.884958885,2.2537805509999997,-0.010576513000000001,-0.171129303,0.233740056,-1.9166942390000001,-3.7774876319999997,-4.829632763,,,,,,,,,
46,46,2.35,0.74,-6.12,-0.213,-0.823,1.69,-1.3,5.58,-0.675,-6.77,0,1,0,0,2350000000.0,-4.200543558,-7.5788359970000005,1.2030270809999999,-0.645574739,0.93235598,-0.943324635,0.967815779,-2.338597241,-5.788112898,,,,,,,,,
47,47,2.4,-5.24,-9.53,-0.687,-0.192,2.67,-3.21,-0.36200000000000004,-3.41,-6.59,0,1,0,0,2400000000.0,-4.558334474,-8.500534877,0.397948377,-0.291056248,1.9626254109999999,-2.682878646,0.45614132399999996,-2.8354989039999996,-6.18421988,,,,,,,,,
48,48,2.45,-4.6,-8.86,0.52,-0.9620000000000001,0.225,-1.19,-0.09699999999999999,-1.84,-4.64,0,1,0,0,2450000000.0,-4.572676119,-8.670340352,0.44993765799999996,-0.8154725159999999,0.932367055,-1.537172943,0.24330861899999998,-2.373800443,-5.421423955,,,,,,,,,
49,49,2.5,-2.03,-5.67,-0.292,-1.24,-0.258,-1.21,2.17,1.83,-5.01,0,1,0,0,2500000000.0,-3.6974623139999996,-7.253027072999999,0.133900804,-1.1472873940000001,0.22658456600000002,-1.286084967,0.9846434909999999,-0.424136539,-5.218193626000001,,,,,,,,,
50,50,2.55,-3.14,-7.42,0.8909999999999999,-1.36,-0.18600000000000003,-1.45,0.425,0.6729999999999999,-3.35,0,1,0,0,2550000000.0,-3.5055784119999998,-7.331902478,0.456395879,-1.313545677,-0.018041633,-1.41188116,0.7693089470000001,0.08470004099999999,-4.29536492,,,,,,,,,
51,51,2.6,-1.12,-8.76,1.43,-0.821,0.139,-1.81,1.8,-0.19699999999999998,-2.35,0,1,0,0,2600000000.0,-2.684439173,-8.006513262,0.871113699,-0.928567099,0.07507018,-1.717416361,1.165888888,-0.045948499000000004,-3.3344160310000004,,,,,,,,,
52,52,2.65,-6.39,-11.5,0.0838,-0.501,0.434,-2.0,-4.28,-2.58,-3.37,0,1,0,0,2650000000.0,-3.959929124,-9.656781127999999,0.5357484,-0.594376425,0.287883844,-1.934284423,-0.9295309490000001,-1.221206128,-3.3519933319999997,,,,,,,,,
53,53,2.7,-3.69,-13.3,4.78,0.095,0.158,-0.685,-2.19,-4.18,1.52,0,1,0,0,2700000000.0,-3.86701692,-11.37778018,2.34363614,-0.055553009,0.21087420399999998,-0.975524416,-1.414522826,-2.593453288,-0.945382479,,,,,,,,,
54,54,2.75,-3.63,-14.3,4.56,1.45,0.191,-0.154,-2.28,-5.28,1.0,0,1,0,0,2750000000.0,-3.785433435,-12.75819068,3.287721724,1.121202118,0.199090557,-0.34504768700000005,-1.747533276,-3.839436197,0.015575036,,,,,,,,,
55,55,2.8,-1.83,-13.5,0.36200000000000004,2.14,-0.853,0.275,-0.547,-4.85,-4.04,0,1,0,0,2800000000.0,-3.112354285,-13.10860967,2.0414769919999998,1.917504679,-0.424706184,0.130806266,-1.285602962,-4.308121519,-1.98775095,,,,,,,,,
56,56,2.85,2.69,-13.9,-0.797,1.3,-3.14,0.595,3.71,-5.75,-6.14,0,1,0,0,2850000000.0,-1.115127611,-13.48244976,0.832395164,1.434856891,-2.034635588,0.487050535,0.6365598720000001,-4.976844603,-4.038830798999999,,,,,,,,,
57,57,2.9,0.0287,-17.1,2.85,1.76,-0.6759999999999999,1.2,0.815,-9.39,-3.15,0,1,0,0,2900000000.0,-0.721411047,-15.19132344,1.691817045,1.688991946,-1.229084717,1.034201743,0.7052184459999999,-7.023604548,-3.599776498,,,,,,,,,
58,58,2.95,1.04,-9.01,0.177,1.45,-0.0153,1.2,2.16,-1.92,-6.5,0,1,0,0,2950000000.0,-0.115116284,-12.27136415,1.04656335,1.50219352,-0.509417616,1.161443211,1.2649761370000001,-4.656624078,-5.032395327,,,,,,,,,
59,59,3.0,0.426,-2.45,0.9740000000000001,0.812,-0.6459999999999999,1.22,1.9,4.14,-6.14,0,1,0,0,3000000000.0,0.071141192,-7.631907127000001,1.015654149,0.962731435,-0.590398919,1.206382485,1.509314853,-0.576872854,-5.579516995,,,,,,,,,
60,60,3.05,1.1,-2.49,-1.85,0.0589,-1.59,0.499,2.51,3.82,-9.23,0,1,0,0,3050000000.0,0.425284386,-5.202951553,-0.205004115,0.256287865,-1.183074067,0.6635036879999999,1.894349408,1.462335285,-7.3827401020000005,,,,,,,,,
61,61,3.1,2.32,-4.56,-0.5670000000000001,-0.971,-0.593,0.0404,3.33,1.87,-7.91,0,1,0,0,3100000000.0,1.077463865,-4.899231384,-0.35920040299999995,-0.7029724540000001,-0.8332122740000001,0.185304418,2.446745999,1.651404483,-7.643189767000001,,,,,,,,,
62,62,3.15,-0.0455,-8.84,5.75,-1.37,0.691,-0.428,0.932,-1.96,-1.17,0,1,0,0,3150000000.0,0.690928805,-6.760788205,2.2430835819999997,-1.224327771,0.070510934,-0.285374429,1.863915758,-0.023514452999999998,-4.445638405,,,,,,,,,
63,63,3.2,-5.1,-14.4,9.66,0.524,0.6409999999999999,0.08800000000000001,-4.05,-7.23,3.02,0,1,0,0,3200000000.0,-1.302365055,-10.36943082,5.402404138,0.14218246,0.408760532,0.0011707830000000001,-0.411587208,-3.365781725,-0.7578487859999999,,,,,,,,,
64,64,3.25,-5.82,-4.55,-0.33,0.688,1.19,1.04,-4.13,2.32,-7.13,0,1,0,0,3250000000.0,-2.857378904,-7.620423858,2.9606208389999997,0.568798854,0.871966549,0.7984174740000001,-1.8423244159999999,-0.728795669,-3.905490328,,,,,,,,,
65,65,3.3,6.31,-9.96,11.7,-1.27,0.863,-0.7909999999999999,8.92,-2.95,5.39,0,1,0,0,3300000000.0,0.29812186,-8.725602632000001,6.683259552999999,-0.868424462,0.866650163,-0.42137674700000005,2.298705235,-1.7589592109999999,0.6861883040000001,,,,,,,,,
66,66,3.35,0.314,-24.2,4.02,0.444,0.0177,2.37,3.31,-17.1,-2.03,0,1,0,0,3350000000.0,0.30358727399999996,-16.03546349,5.54881359,0.157379454,0.36329772,1.720857827,2.687822045,-8.873919666,-0.655522935,,,,,,,,,
67,67,3.4,7.6,-2.33,-2.38,-0.9329999999999999,2.27,-0.929,10.8,4.67,-8.46,0,1,0,0,3400000000.0,2.81508331,-9.561219332,2.171444448,-0.69487191,1.4938037069999999,-0.312768531,5.80915241,-2.592439009,-4.510688181,,,,,,,,,
68,68,3.45,-5.79,-19.5,-5.1,-1.54,3.25,-0.574,-2.06,-12.0,-10.2,0,1,0,0,3450000000.0,-0.146869861,-14.25614208,-0.9259106779999999,-1.355432336,2.5350729519999997,-0.513249928,2.7813313060000002,-6.955534296000001,-7.321028473999999,,,,,,,,,
69,69,3.5,-3.62,-9.55,1.45,-1.31,3.06,0.161,0.995,-1.78,-2.36,0,1,0,0,3500000000.0,-1.34235492,-12.03303511,0.086135747,-1.3199219290000002,2.846308281,0.004201385,2.094002942,-4.5551938210000005,-4.870437011,,,,,,,,,
70,70,3.55,-2.72,-6.31,-0.893,-0.943,1.56,-0.7120000000000001,2.07,1.77,-3.71,0,1,0,0,3550000000.0,-1.816553736,-9.329563837,-0.330938358,-1.025316044,2.08364108,-0.545445473,2.084767282,-1.6216573509999999,-4.297217788999999,,,,,,,,,
71,71,3.6,-1.37,-10.3,1.06,-0.517,2.06,-0.5870000000000001,3.38,-1.97,-1.01,0,1,0,0,3600000000.0,-1.662845608,-9.787982618,0.261547766,-0.628011223,2.069623974,-0.577336394,2.5831352290000003,-1.783213815,-2.673435998,,,,,,,,,
72,72,3.65,-3.32,-7.87,0.273,-0.11,1.69,-0.851,1.29,0.6509999999999999,-1.24,0,1,0,0,3650000000.0,-2.233254209,-8.881957919,0.266425977,-0.22312853800000002,1.844540531,-0.7873588090000001,2.085574364,-0.6542594629999999,-1.9653638830000002,,,,,,,,,
73,73,3.7,-5.16,-9.85,0.733,-0.23600000000000002,1.36,-0.498,-0.768,-1.15,-0.365,0,1,0,0,3700000000.0,-3.24066846,-9.339245863,0.465168525,-0.233189001,1.557250813,-0.565291157,0.9876018870000001,-0.8841769840000001,-1.174834664,,,,,,,,,
74,74,3.75,-4.07,-10.9,1.92,-0.00519,0.9520000000000001,-0.431,0.17300000000000001,-2.07,1.16,0,1,0,0,3750000000.0,-3.5261324839999997,-10.07652125,1.0848706609999998,-0.054982732,1.1983905670000001,-0.462229761,0.674166755,-1.4341450919999998,-0.021500084,,,,,,,,,
75,75,3.8,-4.14,-11.6,5.09,0.778,1.05,-0.166,-0.0275,-2.73,4.42,0,1,0,0,3800000000.0,-3.737431594,-10.79618869,2.790901507,0.59608479,1.110408042,-0.23488901399999998,0.40418578200000005,-2.035144493,2.172460746,,,,,,,,,
76,76,3.85,-5.23,-12.8,3.98,2.5,0.677,1.05,-1.02,-4.03,2.89,0,1,0,0,3850000000.0,-4.251188131,-11.74275754,3.297411657,2.084203707,0.853435356,0.751195607,-0.143799505,-2.96033069,2.5269025309999997,,,,,,,,,
77,77,3.9,3.67,-17.0,0.7659999999999999,4.13,-0.128,1.06,8.47,-8.83,-1.64,0,1,0,0,3900000000.0,-1.524638278,-14.22619571,2.219127815,3.6832183689999995,0.27153089399999997,0.988186673,3.1705402819999997,-5.682601233,0.46858426700000005,,,,,,,,,
78,78,3.95,-1.9,-15.1,0.625,2.82,-1.11,0.318,3.05,-7.63,-3.35,0,1,0,0,3950000000.0,-1.653841417,-14.63896721,1.5400907869999998,3.0085183210000004,-0.547594879,0.473853684,3.124159867,-6.585777612999999,-1.4176757340000001,,,,,,,,,
79,79,4.0,-2.98,-12.3,1.39,2.92,-0.6659999999999999,0.6890000000000001,1.99,-5.64,-3.79,0,1,0,0,4000000000.0,-2.110318078,-13.53407619,1.476157889,2.939331587,-0.61779866,0.63896716,2.687768119,-6.147139115,-2.589528992,,,,,,,,,
80,80,4.05,-0.345,-5.55,0.606,1.54,-1.31,0.575,4.54,0.262,-5.6,0,1,0,0,4050000000.0,-1.502678463,-9.762525003,1.105504158,1.845600179,-1.0282128659999998,0.589875724,3.400453096,-3.174669984,-4.076606561,,,,,,,,,
81,81,4.1,-2.04,-2.86,0.0982,0.789,-1.91,0.341,2.44,2.45,-6.82,0,1,0,0,4100000000.0,-1.687629738,-6.501881344,0.676431398,1.019751032,-1.5510347119999999,0.39887670399999997,3.030898683,-0.566026646,-5.431756376,,,,,,,,,
82,82,4.15,0.599,-0.606,0.414,-0.603,-1.48,0.168,4.47,4.56,-6.97,0,1,0,0,4150000000.0,-0.9005495990000001,-3.7167602769999997,0.564645736,-0.248607178,-1.508917415,0.22169099,3.5846229610000004,1.8113528330000002,-6.191600049,,,,,,,,,
83,83,4.2,0.34,-2.94,4.57,-1.78,-0.703,0.0587,3.81,2.59,-2.75,0,1,0,0,4200000000.0,-0.473540387,-3.349831038,2.2707724,-1.445558898,-1.031079595,0.09660398699999999,3.671341473,2.172478465,-4.491558301,,,,,,,,,
84,84,4.25,-1.63,-14.9,13.3,-0.31,0.19,-0.446,1.67,-8.82,6.43,0,1,0,0,4250000000.0,-0.871605007,-8.805947945,6.968798484,-0.557994859,-0.307087277,-0.319816007,2.901283428,-2.92567925,0.903346544,,,,,,,,,
85,85,4.3,-0.56,-9.31,4.68,0.213,-1.04,0.235,2.59,-3.21,-2.32,0,1,0,0,4300000000.0,-0.76434754,-9.044054359,5.993858444,0.044622330999999994,-0.741639747,0.105976062,2.781510579,-3.057543257,-0.6888848320000001,,,,,,,,,
86,86,4.35,2.14,-3.55,0.982,-0.33399999999999996,0.7120000000000001,0.265,5.1,2.51,-6.14,0,1,0,0,4350000000.0,0.23535710399999998,-6.448749977,3.85899985,-0.251312613,0.120240204,0.228018549,3.6735978830000002,-0.47539452299999996,-3.3815635289999997,,,,,,,,,
87,87,4.4,-1.09,-19.8,12.4,-1.1,2.53,-0.324,2.6,-13.3,6.05,0,1,0,0,4400000000.0,-0.22084368399999998,-12.7556689,7.497136668,-0.914655069,1.549014848,-0.19562661899999997,3.2605085860000003,-6.423267367,1.277331127,,,,,,,,,
88,88,4.45,3.12,-6.41,1.25,-0.261,0.366,0.498,7.52,0.21,-4.5,0,1,0,0,4450000000.0,0.929107094,-9.758075233,4.8360971489999995,-0.40375182200000004,0.847591558,0.33669528200000004,4.89943707,-3.3468506860000002,-1.576488018,,,,,,,,,
89,89,4.5,3.79,-8.73,0.752,-1.89,2.27,-0.768,8.44,-1.78,-4.36,0,1,0,0,4500000000.0,1.9138541830000002,-9.272428542,3.096429112,-1.565418054,1.6909540859999999,-0.51110018,6.261742616,-2.620167227,-2.951455108,,,,,,,,,
90,90,4.55,-5.9,-14.3,0.275,-2.01,2.99,-0.848,-1.02,-6.65,-3.48,0,1,0,0,4550000000.0,-0.77575029,-11.64737385,1.8946090219999998,-1.912907683,2.46117355,-0.7696530429999999,3.4599397130000002,-4.489147381,-3.212539604,,,,,,,,,
91,91,4.6,-3.07,-6.18,0.35200000000000004,-1.91,1.65,-0.851,1.91,1.93,-2.02,0,1,0,0,4600000000.0,-1.5654532819999998,-9.064672859,1.237517014,-1.910634983,1.980219287,-0.832082557,2.863567948,-1.512036578,-2.623462687,,,,,,,,,
92,92,4.65,-0.84,-6.49,0.5479999999999999,-1.58,0.40299999999999997,-0.972,3.85,2.01,-0.804,0,1,0,0,4650000000.0,-1.315745213,-7.848438025,0.9438093240000001,-1.652207451,1.045067593,-0.9394618290000001,3.243118294,0.12143475,-1.7247055830000002,,,,,,,,,
93,93,4.7,0.134,-11.7,0.51,-1.33,1.35,-1.05,4.41,-2.89,-0.067,0,1,0,0,4700000000.0,-0.81672884,-9.667854878,0.759023262,-1.400366961,1.2258655840000001,-1.024294018,3.6921004,-1.275226641,-0.9058513709999999,,,,,,,,,
94,94,4.75,-2.64,-8.33,2.16,-0.584,1.43,-0.968,1.15,0.711,2.36,0,1,0,0,4750000000.0,-1.4443165040000001,-9.035873363,1.35578541,-0.762286481,1.346899227,-0.981091319,2.713974044,-0.354042477,0.707376028,,,,,,,,,
95,95,4.8,-5.54,-11.6,-0.0144,-0.376,1.09,-0.311,-2.12,-2.4,0.594,0,1,0,0,4800000000.0,-2.854090497,-10.2471264,0.772139218,-0.460361145,1.194580702,-0.46683151,0.854001378,-1.302929022,0.651371841,,,,,,,,,
96,96,4.85,-2.62,-12.5,2.08,0.20199999999999999,0.8059999999999999,0.0282,0.667,-3.33,2.94,0,1,0,0,4850000000.0,-2.7735142369999997,-11.31134825,1.329237487,0.057346867999999995,0.9641866729999999,-0.086920894,0.782048682,-2.243056171,1.7818819119999998,,,,,,,,,
97,97,4.9,-5.9,-13.7,1.14,1.78,1.19,0.8390000000000001,-2.51,-4.53,1.81,0,1,0,0,4900000000.0,-3.84968101,-12.43970946,1.248629603,1.403789534,1.098074059,0.623674624,-0.48463596200000003,-3.303708849,1.7957713309999999,,,,,,,,,
98,98,4.95,-0.821,-9.84,1.84,3.09,-0.9990000000000001,1.27,3.13,-0.862,1.67,0,1,0,0,4950000000.0,-2.807179608,-11.21164791,1.500530621,2.721748208,-0.145305593,1.119695301,0.906170939,-2.17127841,1.7336442440000002,,,,,,,,,
99,99,5.0,-0.45299999999999996,-21.2,0.45,2.27,-1.16,1.43,4.02,-12.7,-1.31,0,1,0,0,5000000000.0,-1.996848144,-15.92998778,1.053045048,2.368657336,-0.74692971,1.3578377769999999,2.104281849,-7.054352222,0.230180125,,,,,,,,,
100,100,5.05,-0.625,-16.1,0.223,1.91,-0.867,1.76,4.4,-8.13,-2.57,0,1,0,0,5050000000.0,-1.524644699,-16.01029904,0.699477841,2.01016621,-0.818120774,1.6664760980000002,2.9876075039999996,-7.553222679,-1.153020402,,,,,,,,,
101,101,5.1,-2.2,-9.32,0.6559999999999999,1.45,-0.79,1.41,3.34,-2.07,-2.95,0,1,0,0,5100000000.0,-1.7571085640000002,-12.84990747,0.6809579640000001,1.572334809,-0.801447652,1.469644173,3.1231978610000004,-5.010180615,-2.040671604,,,,,,,,,
102,102,5.15,1.15,-2.96,0.0239,0.8109999999999999,-1.58,0.861,6.9,3.68,-4.32,0,1,0,0,5150000000.0,-0.7564535929999999,-8.178071666000001,0.40107658799999996,0.9772680009999999,-1.263060436,1.002541822,4.576401586,-0.979796288,-3.166587942,,,,,,,,,
103,103,5.2,1.55,-1.53,-1.27,0.165,-1.85,0.22699999999999998,7.07,4.83,-6.29,0,1,0,0,5200000000.0,0.037450101,-5.037627774,-0.310737644,0.34239132,-1.611063757,0.407354311,5.535865844,1.714705984,-4.709454851,,,,,,,,,
104,104,5.25,1.23,-2.46,-2.11,-1.11,-0.977,0.0477,6.36,3.92,-7.51,0,1,0,0,5250000000.0,0.447937356,-3.8199972110000004,-1.077154038,-0.79281208,-1.2351199659999998,0.131338566,5.852968764,2.737490558,-6.092835835,,,,,,,,,
105,105,5.3,-1.23,-9.24,5.33,-1.8,-0.301,-0.0121,3.75,-2.46,0.293,0,1,0,0,5300000000.0,-0.129624972,-6.380320673,1.652046683,-1.580040061,-0.6812693540000001,0.02125702,5.043807508,0.326967071,-2.938434572,,,,,,,,,
106,106,5.35,-8.84,-18.6,12.9,0.9209999999999999,-0.35700000000000004,-0.122,-4.02,-11.5,8.12,0,1,0,0,5350000000.0,-3.12782064,-12.15270404,6.443241251,0.37479753600000004,-0.489006272,-0.08868519999999999,1.5563178309999999,-5.1582149369999994,2.524082857,,,,,,,,,
107,107,5.4,0.529,-6.81,2.47,0.743,-1.14,0.6679999999999999,5.26,-0.0836,-2.88,0,1,0,0,5400000000.0,-1.869107493,-9.628895152,4.750793579,0.6625881929999999,-0.87498803,0.492030831,2.981387168,-2.8046794630000003,-0.145363486,,,,,,,,,
108,108,5.45,6.85,-6.36,-2.83,-0.736,1.91,-0.547,11.6,0.21600000000000003,-8.3,0,1,0,0,5450000000.0,1.132093888,-8.084720861000001,1.5216676340000002,-0.43056214200000004,0.776263803,-0.30537061,6.2975790279999995,-1.403730549,-4.173496518,,,,,,,,,
109,109,5.5,-3.94,-30.3,6.65,0.642,2.7,-0.069,1.3,-23.3,2.27,0,1,0,0,5500000000.0,-0.61377007,-18.57886691,3.706139668,0.40776302799999997,1.916869437,-0.123968613,4.374655857,-11.5589139,-0.990612715,,,,,,,,,
110,110,5.55,2.66,-1.8,-4.32,-0.597,1.45,-0.51,8.24,5.07,-8.55,0,1,0,0,5550000000.0,0.5130933879999999,-10.65279561,0.287313343,-0.377569673,1.640057136,-0.420227367,5.8619278470000005,-3.846655994,-4.724711424,,,,,,,,,
111,111,5.6,-0.905,-10.8,-1.68,-1.58,2.67,-1.28,4.83,-3.44,-4.65,0,1,0,0,5600000000.0,0.024971892000000002,-10.72233272,-0.550686319,-1.317401117,2.250722306,-1.080057566,5.464871975,-3.658054655,-4.687806387,,,,,,,,,
112,112,5.65,-4.76,-14.2,2.18,-2.3,1.52,-0.259,0.8420000000000001,-6.32,0.7020000000000001,0,1,0,0,5650000000.0,-1.622061948,-12.36512764,0.612480869,-2.085410064,1.817468525,-0.449939123,3.6861252089999996,-4.892627776,-2.025412215,,,,,,,,,
113,113,5.7,1.45,-4.87,1.17,-1.65,0.136,-1.21,6.77,3.36,0.674,0,1,0,0,5700000000.0,-0.564628396,-8.824547864,0.8499625190000001,-1.745089242,0.820506249,-1.033245851,4.872710586,-1.065174419,-0.6919878079999999,,,,,,,,,
114,114,5.75,-2.41,-8.97,-1.12,-1.24,0.8320000000000001,-0.945,2.43,-0.44299999999999995,-0.892,0,1,0,0,5750000000.0,-1.19982324,-8.893257278,0.010834386000000001,-1.350306513,0.827321038,-0.965521802,3.9328265769999997,-0.776618615,-0.790787525,,,,,,,,,
115,115,5.8,0.12,-8.51,2.64,-1.11,0.648,-1.31,4.51,0.213,3.55,0,1,0,0,5800000000.0,-0.7455272740000001,-8.712212712000001,1.130757681,-1.162480582,0.720999506,-1.229890635,4.154906223,-0.317647335,1.353424419,,,,,,,,,
116,116,5.85,-3.66,-11.1,-0.156,-0.593,0.919,-1.04,0.102,-2.17,1.29,0,1,0,0,5850000000.0,-1.748717099,-9.840165831,0.582648486,-0.717368935,0.8383963240000001,-1.084159543,2.595465707,-1.176742644,1.32209474,,,,,,,,,
117,117,5.9,-5.16,-12.9,0.8809999999999999,-0.18100000000000002,0.705,-0.537,-1.82,-3.88,2.6,0,1,0,0,5900000000.0,-2.9229137260000004,-11.2855829,0.7097347279999999,-0.298137678,0.7593040790000001,-0.6642434070000001,0.8965228209999999,-2.430475672,1.9533395390000001,,,,,,,,,
118,118,5.95,-4.04,-12.5,4.31,0.43200000000000005,0.924,0.0459,-0.9209999999999999,-3.37,6.19,0,1,0,0,5950000000.0,-3.307425649,-11.85925433,2.243308992,0.272545146,0.8569542240000001,-0.119245739,0.197192865,-2.8662138689999996,4.046116054,,,,,,,,,
119,119,6.0,-5.93,-10.2,2.21,2.3,0.657,1.49,-2.64,-1.06,3.63,0,1,0,0,6000000000.0,-4.2101411330000005,-11.07544874,2.229120661,1.857223831,0.738399038,1.115765632,-0.894476525,-2.028517098,3.8405679189999997,,,,,,,,,
120,120,6.05,3.0,-16.9,-3.86,3.25,-2.58,2.05,7.1,-7.95,-3.77,0,1,0,0,6050000000.0,-1.7283405840000001,-13.82687443,-0.364610083,2.94583143,-1.229118371,1.8327412769999998,2.1815656409999997,-4.7748180080000004,0.08118769599999999,,,,,,,,,
121,121,6.1,-1.41,-20.7,3.16,2.32,0.007940000000000001,1.16,3.24,-12.2,1.7,0,1,0,0,6100000000.0,-1.618764654,-17.07363057,1.1367380459999998,2.456675356,-0.495652049,1.316447747,2.588820422,-8.218513536,0.88082988,,,,,,,,,
122,122,6.15,-0.718,-13.1,-0.18899999999999997,2.07,-0.706,1.56,4.46,-5.17,-2.78,0,1,0,0,6150000000.0,-1.3087127170000001,-15.19655054,0.572024721,2.15444603,-0.620369783,1.5033612319999998,3.3087959510000005,-6.804655606,-0.927504468,,,,,,,,,
123,123,6.2,-1.04,-6.68,-0.785,1.21,-1.22,1.61,4.63,0.5529999999999999,-4.21,0,1,0,0,6200000000.0,-1.216219179,-11.17346672,-0.006015535,1.4162577219999999,-0.975897542,1.5852008819999999,3.8171569119999997,-3.392277795,-2.548953628,,,,,,,,,
124,124,6.25,1.28,-2.32,-0.857,0.76,-2.37,0.875,7.08,4.33,-5.13,0,1,0,0,6250000000.0,-0.35699632299999995,-6.991229076000001,-0.36850212600000004,0.9033202029999999,-1.802477065,1.040159104,5.072604066,0.189206667,-3.82390909,,,,,,,,,
125,125,6.3,1.7,-1.12,-1.58,-0.10300000000000001,-2.1,0.406,7.12,5.27,-6.68,0,1,0,0,6300000000.0,0.35104179,-4.217753349,-0.88455356,0.116770401,-1.978881823,0.553475377,5.860382469,2.545607586,-5.234727728,,,,,,,,,
126,126,6.35,1.68,-2.31,-0.6729999999999999,-1.59,-0.188,-0.1,6.85,4.17,-5.91,0,1,0,0,6350000000.0,0.808482085,-3.316560822,-0.794439885,-1.2172582140000001,-0.91704712,0.051967435,6.241158494,3.298978117,-5.568290832000001,,,,,,,,,
127,127,6.4,-1.25,-15.9,13.8,-1.26,-0.41100000000000003,-0.8640000000000001,3.74,-8.84,9.16,0,1,0,0,6400000000.0,0.099932575,-9.260778232,5.422229265,-1.250665608,-0.6170058939999999,-0.650989354,5.278785407,-2.3309103230000003,1.7070196869999998,,,,,,,,,
128,128,6.45,-9.38,-16.7,5.18,1.66,-0.976,0.94,-4.77,-9.63,0.244,0,1,0,0,6450000000.0,-3.163152255,-12.77494926,5.319048858,1.02433933,-0.829857689,0.5700111929999999,1.4123048630000001,-5.71612614,0.9843341609999999,,,,,,,,,
129,129,6.5,10.0,0.764,-3.1,-0.36200000000000004,1.45,-0.109,14.8,7.38,-8.49,0,1,0,0,6500000000.0,1.367732493,-6.3793638260000005,1.73285847,-0.059237162999999995,0.521896527,0.048905860999999995,6.563500904,0.357674156,-3.69568763,,,,,,,,,
130,130,6.55,-2.28,-28.4,8.85,0.147,2.17,-0.9420000000000001,2.68,-21.2,4.36,0,1,0,0,6550000000.0,0.112147579,-16.78156379,4.764486702,0.10195983900000001,1.499076325,-0.711562186,5.069242658,-9.640474133,0.28356775,,,,,,,,,
131,131,6.6,2.52,-4.18,-1.66,-0.82,1.35,-0.115,7.84,2.95,-5.78,0,1,0,0,6600000000.0,0.940953743,-10.82878434,2.027902916,-0.618653064,1.410687249,-0.253732124,6.135349607999999,-3.8011882010000004,-2.711643352,,,,,,,,,
132,132,6.65,0.45,-6.35,-2.16,-1.57,2.67,-1.15,5.83,1.22,-5.31,0,1,0,0,6650000000.0,0.7719626959999999,-8.71307743,0.244017596,-1.362235259,2.157348497,-0.9415705040000001,6.017859925,-1.4724312869999998,-3.995149459,,,,,,,,,
133,133,6.7,-7.02,-16.7,1.17,-2.3,1.6,-0.8,-1.82,-8.56,-0.703,0,1,0,0,6700000000.0,-1.910106475,-12.48597365,0.638450404,-2.095201398,1.826890093,-0.8329226059999999,3.002079218,-4.759546779,-2.368931587,,,,,,,,,
134,134,6.75,0.91,-4.84,0.711,-1.89,0.851,-0.812,5.86,3.59,-0.0059700000000000005,0,1,0,0,6750000000.0,-0.939398449,-8.874136736,0.669353747,-1.934813949,1.248273493,-0.81686559,4.101724119,-0.887143735,-1.2017031790000001,,,,,,,,,
135,135,6.8,-1.58,-8.18,-0.843,-1.5,0.406,-1.1,2.96,0.51,-0.723,0,1,0,0,6800000000.0,-1.159899735,-8.546237668,0.025149324,-1.594959075,0.748879718,-1.034156358,3.662421877,-0.239168004,-0.965238919,,,,,,,,,
136,136,6.85,-0.632,-9.9,1.83,-1.07,0.56,-1.11,3.41,-1.0,2.66,0,1,0,0,6850000000.0,-0.978191533,-9.185733396,0.79394619,-1.184645922,0.636890734,-1.09236237,3.565297309,-0.592031249,0.825514675,,,,,,,,,
137,137,6.9,-4.81,-10.1,-0.515,-0.8809999999999999,0.843,-0.8809999999999999,-1.34,-1.02,0.8809999999999999,0,1,0,0,6900000000.0,-2.297137174,-9.617618656,0.236385552,-0.9473132590000001,0.7590953159999999,-0.930152868,1.677881467,-0.790517165,0.852922665,,,,,,,,,
138,138,6.95,-3.89,-12.0,1.19,-0.095,0.615,-0.6759999999999999,-0.821,-2.8,2.95,0,1,0,0,6950000000.0,-2.845416052,-10.74301791,0.6425885889999999,-0.28113680399999996,0.67365953,-0.735103924,0.716384518,-1.722487193,1.8888126719999998,,,,,,,,,
139,139,7.0,-2.86,-13.1,3.65,0.257,0.621,-0.0433,-0.0599,-3.87,5.49,0,1,0,0,7000000000.0,-2.8504359530000003,-11.85641914,1.923630015,0.139476232,0.642437076,-0.204180841,0.417692798,-2.718473561,3.667685384,,,,,,,,,
140,140,7.05,-5.61,-11.5,2.65,1.9,0.83,1.23,-2.71,-2.26,4.17,0,1,0,0,7050000000.0,-3.8003047239999996,-11.68805238,2.233035683,1.515518965,0.753645309,0.8964774459999999,-0.785752497,-2.5058399280000003,3.91581298,,,,,,,,,
141,141,7.1,1.67,-12.3,-2.26,3.38,-1.83,1.64,5.24,-3.17,-1.98,0,1,0,0,7100000000.0,-1.917372766,-11.97712684,0.319175602,2.972815831,-0.7782281240000001,1.4670918419999999,1.5327818340000001,-2.813868121,1.0034675309999999,,,,,,,,,
142,142,7.15,-0.433,-22.8,3.06,1.86,-0.64,1.05,3.77,-14.0,1.79,0,1,0,0,7150000000.0,-1.406437254,-17.08968054,1.4866611680000001,2.103028007,-0.69627105,1.14699578,2.393598351,-8.001839724,1.3919897159999999,,,,,,,,,
143,143,7.2,-1.22,-12.9,-0.541,1.58,-0.845,1.89,3.57,-4.67,-2.73,0,1,0,0,7200000000.0,-1.3422637519999998,-15.11054155,0.622955632,1.694224189,-0.784454194,1.7172123819999998,2.8462434869999997,-6.456579069,-0.644143053,,,,,,,,,
144,144,7.25,-1.03,-7.41,-0.529,1.11,-1.16,1.61,4.36,0.24100000000000002,-3.45,0,1,0,0,7250000000.0,-1.234779528,-11.47292748,0.132266924,1.237588808,-1.007119659,1.634932536,3.4286930460000002,-3.350335518,-2.030147808,,,,,,,,,
145,145,7.3,1.41,-2.07,-0.953,0.785,-2.6,0.898,7.0,5.05,-4.74,0,1,0,0,7300000000.0,-0.32442076,-7.031133267,-0.33001497399999996,0.88384095,-1.951556916,1.0693756220000001,4.80282816,0.545622762,-3.368729108,,,,,,,,,
146,146,7.35,1.46,-2.45,-0.934,0.048,-2.32,0.266,6.7,4.39,-5.61,0,1,0,0,7350000000.0,0.289794196,-4.86707841,-0.58728933,0.230539415,-2.170011074,0.452827139,5.532804668,2.328591125,-4.4758462219999995,,,,,,,,,
147,147,7.4,1.36,-3.8,-0.113,-1.05,-0.47100000000000003,0.18,6.29,3.08,-5.07,0,1,0,0,7400000000.0,0.658169424,-4.363007429,-0.385260349,-0.770342792,-1.162647603,0.243446682,5.824151409,2.677084023,-4.769339511,,,,,,,,,
148,148,7.45,-0.74,-11.3,7.54,-1.5,0.225,-0.461,4.17,-4.11,3.07,0,1,0,0,7450000000.0,0.17690593699999999,-7.639933062000001,2.9905951839999996,-1.3406500670000001,-0.33989517399999997,-0.297179047,5.187682055,-0.470670738,-0.8969533690000001,,,,,,,,,
149,149,7.5,-14.4,-22.5,10.6,1.79,-1.3,0.10099999999999999,-9.83,-15.1,6.08,0,1,0,0,7500000000.0,-4.840606418,-14.65959359,6.2319086089999995,1.106296891,-0.909152484,0.008402406,-0.590685473,-7.2555493339999995,2.5494412459999998,,,,,,,,,
150,150,7.55,5.39,0.9309999999999999,-1.23,0.449,-0.8240000000000001,0.907,9.9,7.8,-6.58,0,1,0,0,7550000000.0,-1.319132451,-7.294843832000001,3.05342304,0.592547155,-0.858664585,0.698028744,3.4458252330000003,-0.272995914,-1.960214411,,,,,,,,,
151,151,7.6,2.0,-17.2,10.3,-1.95,2.89,-0.7959999999999999,6.76,-10.1,5.44,0,1,0,0,7600000000.0,-0.176654851,-11.97388326,6.1401856960000005,-1.39473283,1.363962388,-0.44855964600000003,4.721023443,-4.830623222,1.695257859,,,,,,,,,
152,152,7.65,-3.05,-6.77,-2.96,0.0235,0.342,0.39899999999999997,2.09,0.447,-7.16,0,1,0,0,7650000000.0,-1.1656881190000001,-9.515651128,2.263857202,-0.286228055,0.758028985,0.201897742,3.708682061,-2.382935345,-2.678959825,,,,,,,,,
153,153,7.7,2.96,-3.37,-4.57,-1.7,2.13,-1.09,8.13,4.08,-8.3,0,1,0,0,7700000000.0,0.254413782,-6.6125427089999995,-0.647102731,-1.3912461969999999,1.571486654,-0.78956577,5.40987674,0.6144836920000001,-5.455576269,,,,,,,,,
154,154,7.75,-7.33,-19.6,-2.05,-2.13,2.15,-1.08,-2.23,-11.6,-4.45,0,1,0,0,7750000000.0,-2.3562150180000003,-12.74761224,-1.244682894,-1.968663549,1.914494014,-1.0124587809999999,2.47027422,-5.050423284,-4.958853251,,,,,,,,,
155,155,7.8,-0.35,-6.19,0.259,-1.79,1.07,-0.754,4.6,2.2,-0.88,0,1,0,0,7800000000.0,-1.665656338,-9.649899992,-0.604171916,-1.829018326,1.413783704,-0.814105283,3.289730762,-1.6877782909999999,-2.944028541,,,,,,,,,
156,156,7.85,-0.335,-6.25,-0.79,-1.52,0.33899999999999997,-1.11,4.23,2.43,-1.03,0,1,0,0,7850000000.0,-1.207631516,-8.043841023999999,-0.683327529,-1.587486538,0.776531915,-1.041188908,3.651519043,0.22198975199999998,-1.9985588669999999,,,,,,,,,
157,157,7.9,-1.48,-10.2,0.9790000000000001,-1.25,0.634,-0.972,2.64,-1.33,1.48,0,1,0,0,7900000000.0,-1.301383398,-9.062376322999999,0.024759937000000003,-1.323703729,0.692023084,-0.988090067,3.262315956,-0.497801421,-0.28026062,,,,,,,,,
158,158,7.95,-2.45,-9.32,0.584,-1.25,0.33899999999999997,-1.3,1.12,-0.259,1.74,0,1,0,0,7950000000.0,-1.696748395,-9.184073527999999,0.262974653,-1.266096167,0.48271157600000003,-1.227464479,2.438015045,-0.387048661,0.717684337,,,,,,,,,
159,159,8.0,-3.43,-11.5,0.10800000000000001,-0.138,0.8009999999999999,-0.818,-0.39899999999999997,-2.35,1.74,0,1,0,0,8000000000.0,-2.293350441,-10.27808055,0.196961423,-0.384365067,0.6714284909999999,-0.9132220679999999,1.34641412,-1.2974380090000002,1.222675997,,,,,,,,,
160,160,8.05,-4.33,-12.1,1.92,-0.155,0.599,-0.249,-1.66,-2.81,3.69,0,1,0,0,8050000000.0,-2.994384958,-11.13872666,0.93090945,-0.20509106800000002,0.628484781,-0.403466606,0.189633362,-1.998943091,2.441456172,,,,,,,,,
161,161,8.1,-8.31,-13.5,1.43,1.31,0.737,0.8270000000000001,-5.67,-4.24,3.15,0,1,0,0,8100000000.0,-4.824071385,-12.25415483,1.143502772,0.979119018,0.6928247120000001,0.540851736,-2.064983271,-3.038313853,2.791454496,,,,,,,,,
162,162,8.15,-1.56,-11.6,5.76,2.81,-0.8140000000000001,1.88,1.67,-2.33,6.65,0,1,0,0,8150000000.0,-3.700546319,-11.94514262,3.1099528160000003,2.4101536169999997,-0.200589223,1.5685775069999999,-0.627870284,-2.709807754,4.697454181,,,,,,,,,
163,163,8.2,4.81,-22.2,-4.25,1.9,-2.71,1.18,8.87,-13.3,-5.01,0,1,0,0,8200000000.0,-0.771133704,-16.78937537,-0.025103506,2.011412497,-1.6884481340000002,1.270364692,3.0266340960000004,-7.621390974,-0.097721765,,,,,,,,,
164,164,8.25,-2.0,-14.6,0.7809999999999999,2.16,-0.6920000000000001,1.62,2.52,-6.08,-1.11,0,1,0,0,8250000000.0,-1.194121409,-15.75514926,0.318265536,2.127550023,-1.097642408,1.5386913830000002,2.831696014,-6.906515351,-0.597755255,,,,,,,,,
165,165,8.3,-1.13,-9.11,-1.37,1.44,-0.56,1.47,3.99,-1.24,-4.21,0,1,0,0,8300000000.0,-1.172050196,-12.61608572,-0.400870536,1.590154184,-0.7788679609999999,1.4859743859999999,3.277377725,-4.278464743,-2.382090114,,,,,,,,,
166,166,8.35,1.31,-4.99,-1.38,0.996,-2.13,1.17,6.74,2.32,-5.01,0,1,0,0,8350000000.0,-0.317704451,-9.013643366,-0.81794196,1.125757404,-1.5799699580000002,1.243480651,4.609694045,-1.218189061,-3.6801947289999997,,,,,,,,,
167,167,8.4,1.12,-2.63,-1.73,0.519,-2.39,0.613,6.4,4.25,-6.31,0,1,0,0,8400000000.0,0.177167375,-5.998111287,-1.206443551,0.651509824,-2.06024627,0.759619933,5.298551777,1.31788059,-4.979235463,,,,,,,,,
168,168,8.45,2.06,-2.56,-1.64,-0.534,-1.39,0.513,7.01,4.15,-6.8,0,1,0,0,8450000000.0,0.8252566170000001,-4.374001881,-1.391121888,-0.275096338,-1.6628494390000002,0.57035213,5.957067397,2.631378029,-5.878635743999999,,,,,,,,,
169,169,8.5,1.13,-6.92,2.05,-1.83,0.12,-0.354,5.99,0.0163,-2.9,0,1,0,0,8500000000.0,0.930152245,-5.576691149,0.07466343,-1.490424419,-0.605777235,-0.139039456,5.9697388170000005,1.4185413930000002,-4.40728379,,,,,,,,,
170,170,8.55,-9.76,-20.1,16.6,0.281,-1.48,-0.6779999999999999,-5.22,-12.7,12.0,0,1,0,0,8550000000.0,-2.74950198,-12.43727266,7.113820252000001,-0.10586162,-1.12411411,-0.552663272,1.664252637,-5.129440664,3.697396308,,,,,,,,,
171,171,8.6,0.0934,-9.27,4.23,0.578,-0.217,0.511,4.48,-2.08,-0.799,0,1,0,0,8600000000.0,-1.770947529,-10.94110338,5.885423946,0.42865137799999997,-0.58627558,0.263642261,2.7476703889999996,-3.715152675,1.4763185030000001,,,,,,,,,
172,172,8.65,-0.11,-12.1,0.515,0.245,1.4,-0.643,4.43,-5.02,-4.57,0,1,0,0,8650000000.0,-1.19923327,-11.48854799,3.5978302610000004,0.285107652,0.591410341,-0.43215793700000005,3.3949818589999996,-4.320322616,-1.5103719969999998,,,,,,,,,
173,173,8.7,2.4,-6.41,-2.77,0.04,1.06,-0.217,7.31,0.624,-7.52,0,1,0,0,8700000000.0,0.039657782999999995,-9.089522192999999,0.8853799290000001,0.093529092,0.869242576,-0.267035545,4.901367025,-2.027214893,-4.478938455,,,,,,,,,
174,174,8.75,1.02,-10.5,-2.01,-1.77,2.43,-0.871,6.1,-3.1,-6.01,0,1,0,0,8750000000.0,0.377101081,-9.755809594,-0.34794035799999995,-1.3630236219999998,1.7946338780000002,-0.7305464540000001,5.362566118,-2.5247575859999998,-5.235234625,,,,,,,,,
175,175,8.8,-5.01,-12.5,-0.802,-1.92,2.0,-0.972,0.1,-4.58,-3.5,0,1,0,0,8800000000.0,-1.477191469,-11.05212173,-0.541352265,-1.798361822,1.916397844,-0.915849338,3.3376836360000004,-3.4779502539999996,-4.378083514,,,,,,,,,
176,176,8.85,-1.61,-8.17,0.74,-1.96,0.6729999999999999,-1.14,3.27,0.213,-0.723,0,1,0,0,8850000000.0,-1.522905459,-9.690653056,0.004454434,-1.9246998469999999,1.179172762,-1.087873157,3.311640933,-1.766139119,-2.57258767,,,,,,,,,
177,177,8.9,-0.239,-6.74,-0.33,-1.71,0.00611,-0.951,4.16,2.0,-0.925,0,1,0,0,8900000000.0,-1.080972738,-8.296811125,-0.13801027400000002,-1.756888358,0.48365018200000004,-0.9828301970000001,3.638064785,-0.01945644,-1.7587313930000001,,,,,,,,,
178,178,8.95,0.0814,-9.06,-0.0886,-1.55,0.455,-1.06,4.04,-0.0933,0.0756,0,1,0,0,8950000000.0,-0.6808727609999999,-8.657329674,-0.116963402,-1.595182338,0.466663163,-1.042053913,3.792717759,-0.053704050999999996,-0.8526296090000001,,,,,,,,,
179,179,9.0,-1.19,-8.67,2.29,-1.1,0.406,-1.45,2.21,0.485,3.18,0,1,0,0,9000000000.0,-0.856119317,-8.663314972,0.908310251,-1.2081429540000002,0.43069526,-1.3551310890000001,3.1837339819999997,0.196139365,1.139362112,,,,,,,,,
180,180,9.05,-3.12,-11.5,-0.35700000000000004,-0.594,0.7759999999999999,-0.43700000000000006,-0.273,-2.25,1.01,0,1,0,0,9050000000.0,-1.6353689790000001,-10.0033201,0.369336839,-0.7281227459999999,0.635430477,-0.650513831,1.853683217,-0.93834588,1.075461309,,,,,,,,,
181,181,9.1,-3.88,-13.3,-1.07,-0.0119,0.8220000000000001,-0.649,-1.32,-3.96,0.494,0,1,0,0,9100000000.0,-2.407992799,-11.56061962,-0.24376521899999998,-0.16831598,0.746049737,-0.649352037,0.63254214,-2.3397468409999997,0.7882377770000001,,,,,,,,,
182,182,9.15,-7.42,-13.7,1.07,0.525,0.57,0.142,-5.11,-4.33,2.69,0,1,0,0,9150000000.0,-4.133174343,-12.57122898,0.315848167,0.373586614,0.641667792,-0.042031017000000004,-1.577021217,-3.2627984010000004,1.727648291,,,,,,,,,
183,183,9.2,-4.47,-11.8,2.42,2.13,-0.546,1.75,-1.78,-2.49,3.6,0,1,0,0,9200000000.0,-4.249112931,-12.2069127,1.212135808,1.746416739,-0.062514282,1.333258422,-1.6551215419999998,-2.904385309,2.652530865,,,,,,,,,
184,184,9.25,6.25,-16.9,-7.86,2.73,-2.24,1.81,9.87,-7.79,-8.04,0,1,0,0,9250000000.0,-0.6352163710000001,-14.42385271,-2.652244555,2.515195138,-1.3535709409999999,1.699132434,2.779410199,-5.170265093,-2.629241725,,,,,,,,,
185,185,9.3,1.45,-16.8,3.61,2.5,0.49700000000000005,1.18,5.59,-8.03,2.14,0,1,0,0,9300000000.0,0.08253535599999999,-15.54630674,0.015230297,2.5033184680000002,-0.256345863,1.300725588,3.8608435219999997,-6.496570045,-0.27338686,,,,,,,,,
186,186,9.35,-1.56,-11.9,-1.11,1.88,-0.598,1.5,3.11,-3.67,-3.62,0,1,0,0,9350000000.0,-0.482841234,-13.82384894,-0.46407446,2.016126598,-0.458916576,1.4536582059999998,3.571940718,-5.185646404,-1.926508018,,,,,,,,,
187,187,9.4,-0.843,-7.2,0.204,1.23,-0.9740000000000001,1.39,4.35,0.449,-3.07,0,1,0,0,9400000000.0,-0.606811374,-10.6948474,-0.17950048300000002,1.4016823059999999,-0.764315526,1.404803874,3.871315278,-2.572376164,-2.491356916,,,,,,,,,
188,188,9.45,0.733,-2.08,-1.38,0.777,-1.9,0.9229999999999999,6.11,5.06,-5.42,0,1,0,0,9450000000.0,-0.145635304,-6.625329747,-0.69086702,0.913424459,-1.4376760690000001,1.035044755,4.732696142,0.967413188,-3.9380141589999997,,,,,,,,,
189,189,9.5,1.6,-1.96,-1.28,-0.192,-1.62,0.43700000000000006,6.81,4.9,-5.97,0,1,0,0,9500000000.0,0.455229317,-4.421501801000001,-0.9418149579999999,0.049413791,-1.545778055,0.5760769029999999,5.531982266,2.791292025,-4.9417508969999995,,,,,,,,,
190,190,9.55,2.1,-3.47,-0.0239,-1.49,-0.379,0.0502,7.15,3.46,-4.78,0,1,0,0,9550000000.0,1.021375315,-3.972027417,-0.5508185529999999,-1.153807228,-0.8539817559999999,0.172494072,6.154548498,3.101429454,-4.861851165,,,,,,,,,
191,191,9.6,-3.0,-15.8,13.3,-1.09,-0.618,-0.58,1.91,-8.44,9.12,0,1,0,0,9600000000.0,-0.362821094,-9.55937463,5.3490965610000005,-1.103934895,-0.7140654059999999,-0.40500549,4.521369593999999,-2.251324004,2.0447417480000003,,,,,,,,,
192,192,9.65,-7.05,-13.8,5.62,1.42,-0.495,0.6920000000000001,1.62,-8.46,8.76,0,1,0,0,9650000000.0,-2.664613035,-11.56257906,5.46449094,0.8687974940000001,-0.584178977,0.436888435,3.405006906,-5.130821162,5.3618673889999995,,,,,,,,,
193,193,9.7,6.58,-7.4,2.81,-0.102,0.00855,0.233,11.2,-0.429,-2.3,0,1,0,0,9700000000.0,0.51747246,-9.596242608999999,4.333780052,0.110012594,-0.23274306,0.28041479399999997,6.404293609,-2.9501822260000004,1.577146862,,,,,,,,,
194,194,9.75,1.55,-16.4,5.4,0.214,2.11,-0.318,6.35,-9.28,0.662,0,1,0,0,9750000000.0,0.872878443,-12.81022978,4.787948709,0.191290178,1.156296535,-0.17883704,6.38340297,-5.885863106,1.12509321,,,,,,,,,
195,195,9.8,0.728,-6.12,-5.5,-1.39,1.75,-0.456,5.74,1.09,-9.87,0,1,0,0,9800000000.0,0.823009872,-9.649871022000001,0.40567895200000004,-1.044661819,1.5083102369999999,-0.39154501700000005,6.13584012,-2.650555292,-4.306135586,,,,,,,,,
196,196,9.85,-1.17,-11.1,-2.55,-1.51,2.69,-1.08,3.9,-3.28,-5.72,0,1,0,0,9850000000.0,0.136996548,-10.33488919,-0.8533263790000001,-1.408374726,2.2089479,-0.919897996,5.275553864,-2.942482936,-5.004539857,,,,,,,,,
197,197,9.9,-5.09,-11.3,0.359,-2.13,1.91,-0.732,-0.0916,-3.07,-1.46,0,1,0,0,9900000000.0,-1.6621864419999999,-10.79079236,-0.33692205299999994,-1.972404251,2.031698187,-0.7756961729999999,3.210429056,-3.001623537,-3.2536491130000003,,,,,,,,,
198,198,9.95,-1.47,-7.23,-0.0646,-1.89,1.07,-0.8029999999999999,3.27,1.33,-0.672,0,1,0,0,9950000000.0,-1.596034014,-9.108730391,-0.22092335100000002,-1.907996264,1.461496158,-0.796650402,3.233350217,-0.9926770690000001,-1.978395968,,,,,,,,,
199,199,10.0,-0.69,-8.24,-0.7609999999999999,-1.55,0.42700000000000005,-0.9670000000000001,3.69,0.525,-0.44,0,1,0,0,10000000000.0,-1.284168313,-8.69835579,-0.450975185,-1.628182814,0.848131324,-0.9273847540000001,3.409055803,-0.28879967,-1.2184769359999998,,,,,,,,,
200,200,10.0,-1.1,-9.36,1.52,-0.838,0.6629999999999999,-1.07,2.81,-0.42700000000000005,2.53,0,1,0,0,10000000000.0,-1.2207758,-9.010905885,0.388584295,-1.010568128,0.738364798,-1.0368344859999998,3.17855652,-0.352895045,0.63315229,1.2186393198160386,0.3991817427585433,1.1005432504579755,1.9627099688248084,2.159629152173701,2.2642475119104106,0.8815886734205102,1.2427533512586288,2.053969841465773
201,201,10.1,-4.36,-9.37,-0.5529999999999999,-1.08,0.499,-1.1,-1.04,-0.262,0.9490000000000001,0,1,0,0,10100000000.0,-2.301327281,-9.18053621,-0.012494324,-1.064836798,0.5964426279999999,-1.08531071,1.5553786,-0.310739191,0.789171086,1.293912080745489,0.3411196951555518,1.2163248075522768,2.0106219193624977,2.062255593613761,2.2599732273512374,1.0358180517995161,0.9451728358889216,1.9908587234626505
202,202,10.1,-1.19,-11.3,0.809,-0.34,0.688,-0.616,1.72,-2.12,2.8,0,1,0,0,10100000000.0,-1.918797665,-10.18173746,0.337430612,-0.498297206,0.650728074,-0.725139451,1.6187201409999998,-1.149849011,1.78245705,1.2386570166096247,0.39817166273750393,1.233101015776309,2.489898713955514,2.107471224680843,2.6169437394791233,0.9887246628840279,1.1459972295728564,1.9599359450856206
203,203,10.2,-4.52,-12.1,1.83,0.10400000000000001,0.6920000000000001,-0.315,-1.96,-2.91,3.92,0,1,0,0,10200000000.0,-2.814156746,-11.08789452,0.973207681,-0.027535764,0.675198663,-0.410379018,0.24173263399999997,-1.966182476,2.838335807,1.229007926890236,0.4266613909668878,1.2240647063591652,2.5401007463978527,2.181340003319157,2.773839721944274,0.9791341440850538,1.217160879596402,2.022829700745168
204,204,10.2,-7.94,-13.3,1.98,1.31,0.491,1.07,-5.36,-4.08,3.91,0,1,0,0,10200000000.0,-4.578521758,-12.13285824,1.4020624259999999,1.017895344,0.565985128,0.7257339629999999,-1.913651318,-2.9465414610000003,3.367704121,1.200632974291803,0.4164396612664353,1.1456215379742127,2.704682973258672,2.261868695483527,2.616194452626808,0.9181652528651106,1.197695220470999,1.972203010357143
205,205,10.3,-1.55,-11.8,5.8,2.79,-0.6679999999999999,1.94,1.72,-2.59,6.88,0,1,0,0,10300000000.0,-3.536075162,-11.97562136,3.275414462,2.402989802,-0.165659022,1.657619248,-0.515527894,-2.781182475,5.102667434,1.1713269159405466,0.3784109393792785,1.3313256139471972,3.109449771232969,2.4521632781668394,2.767716987795577,0.9277923937634327,1.1447265441226628,2.283103069191255
206,206,10.3,4.63,-21.3,-6.53,1.78,-3.1,1.03,8.7,-12.4,-7.13,0,1,0,0,10300000000.0,-0.725232804,-16.38030995,-0.901314387,1.916054802,-1.9054639219999998,1.175954503,3.0303393119999997,-7.2422554120000004,-0.9398840629999999,1.2519535398932349,0.29754013192739714,1.4909899791790462,2.7430538663239745,2.6737502930157278,2.8839915782601917,1.086541072338365,0.8030026693105197,2.215468527362145
207,207,10.4,-0.36200000000000004,-14.4,0.737,2.37,-0.505,1.39,4.09,-5.82,-1.02,0,1,0,0,10400000000.0,-0.600204544,-15.44484268,-0.203455587,2.270862759,-1.075112542,1.34022314,3.438066004,-6.5826333120000005,-0.979458797,1.2359408880903124,0.3233639336281392,1.5409458811552983,2.2851806196602364,2.757801251354839,2.6917976524555582,1.084011815038855,1.0329470375394911,2.192897129744931
208,208,10.4,-2.38,-9.84,-0.965,1.56,-0.44,1.37,2.61,-1.85,-3.7,0,1,0,0,10400000000.0,-1.212827451,-12.79720374,-0.527844154,1.7152453669999999,-0.698546914,1.363075316,3.1194502330000002,-4.387704147,-2.3233202680000002,1.1552365313267796,0.3386209603520402,1.4406449786871396,2.038033406775323,2.712977722315899,2.4939607540035684,0.9561363710607946,1.182140683302483,2.1238763665127425
209,209,10.5,0.96,-4.56,-0.943,0.976,-1.82,1.07,2.96,-2.38,-4.44,0,1,0,0,10500000000.0,-0.464919164,-8.906078985,-0.7046845559999999,1.137443901,-1.3634695469999998,1.138155484,3.058098433,-3.4565590810000004,-3.368893245,1.1296463205436715,0.2988776513178314,1.3489755749762646,1.8789532670984603,2.548911913218696,2.388291731685326,0.8579286479958349,1.0147583124965158,2.078019102289605
210,210,10.5,0.9620000000000001,-1.65,-1.62,0.42100000000000004,-2.47,0.474,6.15,5.44,-5.97,0,1,0,0,10500000000.0,0.026240264,-5.478422057,-1.09457367,0.577464281,-2.019544362,0.628451129,4.247772325,0.669540689,-4.653757743,1.0484111494998303,0.2974364961002666,1.3570078479101333,1.804642924995539,2.139016113767311,2.385612495882336,0.7196544846195385,1.1382677403663173,2.0796556364849925
211,211,10.6,2.3,-1.48,-1.46,-0.46299999999999997,-1.34,0.113,7.1,5.51,-6.39,0,1,0,0,10600000000.0,0.808890415,-3.589630744,-1.250231223,-0.235772869,-1.616634612,0.232869529,5.345226596,2.914478163,-5.511406527,1.193823520125602,0.27095728907213024,1.3378506424608727,1.7375859046033406,2.02312192180629,2.1857187971261935,0.9096035681193968,1.1089078664760401,1.930483953317732
212,212,10.6,2.23,-7.08,4.53,-1.98,0.159,-0.623,6.85,0.23,-0.1,0,1,0,0,10600000000.0,1.298050132,-5.238425925,1.2119246559999999,-1.5990780230000001,-0.563840165,-0.423965285,5.9242196279999995,1.6694547169999998,-2.83834258,1.3188231703748556,0.2399613353718197,1.4400490307973732,2.1551935718263087,1.799310683586997,2.1247747687445253,1.038575195439237,0.8385293556381317,1.9071823000862325
213,213,10.7,-13.4,-24.0,14.5,0.762,-1.52,-0.6920000000000001,-9.2,-16.2,10.2,0,1,0,0,10700000000.0,-3.76116123,-14.101096700000001,6.872132765,0.24636388,-1.1307584609999999,-0.629667793,0.104859583,-6.618148951,3.602186848,1.2169368132580471,0.3034005631922039,1.4814392705457733,2.518245323726943,2.046161347282288,2.389934612496109,0.9182449584292678,1.1623825336391445,1.8631166217390656
214,214,10.7,2.73,-7.66,3.67,1.03,-0.907,0.593,6.79,-0.237,-1.27,0,1,0,0,10700000000.0,-1.526840534,-11.05842445,5.5081476170000006,0.8588615829999999,-0.998089465,0.30866535,2.677107293,-3.658661266,1.195480404,1.1690766800178796,0.3216636250187367,1.5297905394474538,2.5333326080731258,2.2182938990620764,2.5145659214468545,0.8422500068807556,1.222571871858173,1.9849475229504954
215,215,10.8,6.66,-10.1,2.57,0.0693,1.19,-0.8190000000000001,10.8,-2.89,-2.62,0,1,0,0,10800000000.0,1.291149375,-10.60568008,4.25660991,0.24173246,0.299254308,-0.5567584289999999,5.8025603839999995,-3.302166964,-0.689246377,1.2184453692226986,0.2709264439055471,1.3800663356600726,2.8546435338988316,2.3590177295227415,2.430626325145984,0.8576427878276157,1.0979116828539164,1.7653718595995118
216,216,10.8,-2.11,-11.0,-2.44,-1.05,1.97,-0.0934,2.12,-3.56,-7.27,0,1,0,0,10800000000.0,0.120440789,-10.79195057,1.404112084,-0.767898341,1.289858913,-0.20115523600000002,4.38561814,-3.4217462960000002,-3.939930857,1.2256833977011221,0.247062454241177,1.71996388280168,3.325745929210194,2.933457302675307,2.7476354980453737,0.9632812343259007,1.1487954609137006,2.108621071092364
217,217,10.9,1.69,-9.19,-2.33,-1.61,1.61,-0.635,6.26,-1.41,-6.19,0,1,0,0,10900000000.0,0.660698321,-10.03521427,-0.186475757,-1.426093319,1.4796743019999998,-0.534108239,5.106825888,-2.488726469,-5.051393991,1.2571629999825915,0.1934640898103184,1.8204432438708538,2.6259704212408854,3.2375624217457273,3.26151087474972,1.0691094528176541,0.801486529203395,2.0480043804270283
218,218,10.9,-2.33,-11.4,-1.31,-1.99,2.19,-0.778,2.23,-3.1,-3.96,0,1,0,0,10900000000.0,-0.36872903799999995,-10.67991728,-0.665053771,-1.8668483530000002,1.9008347190000001,-0.72128232,3.99990691,-2.7722265439999996,-4.512279841000001,1.179867223141943,0.2417262425939034,1.741473611941103,2.3837358269256588,3.294403108777637,2.960330820586155,0.9987708621402689,1.061980994894846,1.8487027722248337
219,219,11.0,-1.53,-10.1,0.769,-1.99,1.8,-0.8109999999999999,2.91,-1.42,-0.542,0,1,0,0,11000000000.0,-0.768449763,-10.40597371,-0.054202121,-1.963104903,1.841048611,-0.790135907,3.580542443,-2.145082755,-2.551086967,1.1481778255218125,0.2875792966435355,1.5853639421051602,2.039080851932888,2.671083036516322,2.270598335579868,0.9531671474025402,1.2640814176021065,1.7391310602384429
220,220,11.0,-1.32,-7.08,-0.34,-1.73,1.61,-0.586,2.84,1.81,-0.40299999999999997,0,1,0,0,11000000000.0,-0.958298725,-8.834836312,-0.17594100699999998,-1.780907825,1.7040572059999999,-0.633472367,3.2956032019999997,-0.310770685,-1.489999834,1.110951427990575,0.2508677157924681,1.4981927906097312,1.9489071715560524,2.258341774339873,2.249886167149079,0.8365056999309548,1.0774667721179605,1.6190313037958166
221,221,11.1,-2.03,-9.0,-0.376,-1.4,0.8390000000000001,-0.6970000000000001,1.82,-0.0267,0.515,0,1,0,0,11100000000.0,-1.3271886940000002,-8.912857025,-0.261158424,-1.4831864909999999,1.1911547009999999,-0.6822265009999999,2.7278339989999996,-0.179022672,-0.499593235,1.0239590062355615,0.21560430595812458,1.417209197697334,1.9355993678628058,1.9347197072301356,2.2014925648114936,0.7107158603842306,1.091478173180072,1.6123246184480133
222,222,11.1,0.242,-10.1,1.94,-0.7929999999999999,1.09,-0.982,3.69,-1.09,3.49,0,1,0,0,11100000000.0,-0.7870587179999999,-9.473644765,0.676450278,-0.943729905,1.13117892,-0.91228687,3.098047533,-0.601521238,1.4711398480000002,1.1837301087821217,0.14623428738413435,1.475363358335502,1.7625538713148425,1.8473599681165151,1.8215592266711687,0.8880171543774541,0.8251553697818979,1.6346383772233224
223,223,11.2,-5.13,-9.76,0.742,-1.01,0.966,-0.7240000000000001,-2.24,-0.629,2.84,0,1,0,0,11200000000.0,-2.281941293,-9.608914556,0.7043719270000001,-0.995527258,1.033242426,-0.767786595,1.044121992,-0.614265508,2.1473134959999998,1.166190108959865,0.1579005636273121,1.3439282048568284,2.1948467906005567,1.7562370934575284,1.9921393427931877,0.8428013142249805,0.887862637343765,1.5258891733327056
224,224,11.2,-3.88,-12.1,1.06,-0.124,0.401,-0.639,-1.39,-2.95,3.51,0,1,0,0,11200000000.0,-2.832008648,-10.78566409,0.85585576,-0.314332951,0.658378521,-0.668949664,0.107542604,-1.697546538,2.820437595,1.1830942949627932,0.23725895708194017,1.4752500746621908,2.314096079195107,2.1484662481480608,2.280283017428198,0.7947127491967009,1.2563144275625497,1.6412263389594257
225,225,11.3,-2.07,-12.5,3.72,0.223,0.479,-0.0384,0.157,-3.23,6.21,0,1,0,0,11300000000.0,-2.569717853,-11.59548925,2.075870863,0.10565179,0.552022907,-0.185036002,0.12657237400000002,-2.408277041,4.494774409,1.230604966843463,0.2462385539894872,1.5336146547323968,2.512935439540272,2.322976780435645,2.4576295493693303,0.7838429639453223,1.256003640219024,1.7136975981481248
226,226,11.3,-7.59,-12.2,2.49,2.05,0.833,1.19,-5.27,-2.91,4.66,0,1,0,0,11300000000.0,-4.29774774,-11.88105048,2.252273923,1.625373502,0.7186175020000001,0.870231765,-1.9498718130000001,-2.640969176,4.576390558,1.2615104187744357,0.19774615998558048,1.3198539850860547,2.916240326109725,2.4368462015010537,2.770244011087713,0.83898573997041,1.0632766172147001,1.6174879796916224
227,227,11.4,-0.6970000000000001,-12.4,2.31,3.43,-0.7,1.8,2.32,-3.08,3.34,0,1,0,0,11400000000.0,-3.058335434,-12.12619384,2.276862983,3.0358874339999997,-0.122497337,1.583779888,-0.306949272,-2.8445855,3.965652622,1.4142011813267472,0.18249624033899978,1.7628811005489153,3.3799198553090006,2.9315382680607684,3.1669605469384257,1.0335654285474818,1.0289063755093288,2.020175584629532
228,228,11.4,-2.23,-21.9,-0.546,1.73,-2.18,1.39,1.57,-12.9,-1.22,0,1,0,0,11400000000.0,-2.773214345,-16.74318506,1.074432115,2.015192943,-1.342414679,1.435064017,0.41524627399999997,-7.508146011,1.40410396,1.3837654214376272,0.17246845622634116,1.8234844255259397,2.340257532095307,3.099076885019072,3.3527782393147922,1.0520194130001084,0.8942453990500613,2.0437078005714167
229,229,11.5,-0.436,-15.4,0.546,2.13,-1.51,1.6,3.95,-6.83,-1.33,0,1,0,0,11500000000.0,-1.9687224819999998,-16.10868551,0.8493403959999999,2.104927361,-1.441777963,1.561643717,1.7753167859999999,-7.193631335,0.053542917999999995,1.3231286061900125,0.19480736072091526,1.5295765426806802,2.04734298504921,3.247420169647615,2.9206541445830845,1.0011693649440216,1.0265027353251934,1.8035991181284274
230,230,11.5,-0.6559999999999999,-8.51,-1.43,1.44,-1.4,1.33,4.17,-0.493,-4.38,0,1,0,0,11500000000.0,-1.516870671,-12.5191868,-0.12157076800000001,1.585213618,-1.417007308,1.383869395,2.6967213130000003,-4.085972185,-2.1364873419999997,1.4212488880141894,0.22447903738693045,1.4284553544243588,1.719723869032699,2.630423385646811,2.303835040943085,1.023761687786275,1.1925056478243456,1.861753318394758
231,231,11.6,2.05,-3.99,-1.16,1.06,-1.98,0.779,7.03,3.54,-5.0,0,1,0,0,11600000000.0,-0.289119188,-8.490133896,-0.563901596,1.174701426,-1.750812246,0.9196639740000001,4.364041083,-0.549152901,-3.550972174,1.3513298729811252,0.21440799236294905,1.3858280553440865,1.7069072275474688,2.3394834726532543,2.3340030463041184,0.8453536296945758,1.2232508163115732,1.9200597743326375
232,232,11.6,1.07,-2.09,-1.2,0.395,-1.96,0.456,5.84,5.11,-5.84,0,1,0,0,11600000000.0,0.17870284399999997,-5.466811857000001,-0.834855028,0.565279105,-1.874842125,0.56382629,4.931947234,2.0754831719999998,-4.6816797139999995,1.3090366601534014,0.15612431644146235,1.3881014074129254,1.740156781944048,2.032576026853365,2.1325629806694733,0.761726456439707,1.075325454535633,1.8121584198737817
233,233,11.7,2.82,-1.23,-2.54,-0.998,-0.77,0.295,7.35,5.89,-7.52,0,1,0,0,11700000000.0,1.087862935,-3.465408974,-1.561181071,-0.656595291,-1.219768345,0.357516259,5.862343619,3.844602695,-6.0837203,1.3945856238049608,0.10231580922747313,1.5367053536636188,1.490400227710665,1.844395581160555,1.7493175948090898,0.838327737606399,0.759039101303757,1.8714680641326704
234,234,11.7,0.184,-9.18,6.83,-2.2,-0.261,-0.86,4.59,-1.6,2.44,0,1,0,0,11700000000.0,0.7767445409999999,-6.16489151,2.013138722,-1.86293568,-0.651303426,-0.5768633679999999,5.372782835,1.31947206,-1.873271598,1.3382120303945841,0.17651328754632042,1.4432141764312103,2.1743675710611705,1.9392517765947206,2.0962760972702483,0.7453367657529907,1.149991531485862,1.7528004058056244
235,235,11.8,-13.8,-23.0,11.0,1.22,-1.62,-0.242,-9.94,-15.0,6.74,0,1,0,0,11800000000.0,-4.240712456,-14.11753042,5.841195364,0.546717295,-1.225654915,-0.319873366,-0.519130764,-6.249270965,2.381412476,1.514356508662202,0.23410557377671462,1.5509790685762568,2.1821865611742925,2.070188695645073,2.447588810360954,0.7989491607394512,1.3000591101448207,1.8505635808016019
236,236,11.8,2.08,-7.1,2.07,0.725,-0.184,0.757,5.92,0.5329999999999999,-2.74,0,1,0,0,11800000000.0,-2.065061915,-10.80256003,4.234811414,0.686064835,-0.608045579,0.506570258,1.958459626,-3.103748499,-0.14840357199999998,1.594420195845219,0.21513319557839622,1.3503885908491577,2.2376930264681074,2.214975454364112,2.638862704990923,0.8144624739413309,1.1890057180564246,1.709535049290358
237,237,11.9,1.94,-12.2,5.15,-0.209,1.63,-0.818,5.98,-4.58,0.415,0,1,0,0,11900000000.0,-0.686480717,-11.46268847,4.62464653,-0.013526678,0.718917719,-0.509967679,3.5058314810000004,-3.788413274,0.12989999800000002,1.4912811495319045,0.17431310443072873,1.4363371523389976,2.6773199564306145,2.4370964391431307,3.050082518937596,0.7500678610972512,1.096712468045294,1.9400317950772326
238,238,11.9,-3.53,-9.12,-6.02,-0.578,1.22,-0.0744,0.606,-1.43,-10.5,0,1,0,0,11900000000.0,-1.6652476390000002,-10.35603945,0.09043725300000001,-0.454724604,1.016015259,-0.175692422,2.390060615,-2.69461414,-5.12093494,1.7082301828366406,0.14404865617067275,1.7592468386750213,2.923982668856008,3.0849958591472886,3.6237819567111593,0.9938979782370291,0.9121603700917718,2.0987841599721815
239,239,12.0,2.57,-8.69,-1.88,-1.63,2.05,-0.721,6.94,-0.69,-5.5,0,1,0,0,12000000000.0,-0.20743432399999998,-9.569028571,-0.748893094,-1.373331448,1.629076831,-0.594187285,4.140745066,-1.7649021219999999,-5.30818111,1.6567880671683708,0.1818408710516381,1.9097864394405875,2.237208308237265,3.2696231909513167,3.2421125314206245,0.9811550706519073,1.1399464931895509,2.197772558523053
240,240,12.0,-3.55,-13.2,-0.85,-1.82,1.8,-0.9520000000000001,0.757,-4.7,-3.26,0,1,0,0,12000000000.0,-1.357977851,-11.28424194,-0.79196075,-1.7224520369999998,1.730419141,-0.8687897179999999,2.8387783260000004,-3.126159402,-4.296444312,1.4739875053403102,0.21313258132447582,1.6494934503411702,1.9854136732613128,3.0093117374092406,2.9049503878695853,0.8634609167465608,1.2865907615449468,2.0155711918728247
241,241,12.1,-1.68,-8.7,0.898,-1.91,1.0,-0.9229999999999999,2.36,0.151,-0.36,0,1,0,0,12100000000.0,-1.4688209819999998,-10.06348684,-0.072102584,-1.86904135,1.297345122,-0.9103932379999999,2.654558302,-1.606258683,-2.351965131,1.492684358683326,0.19712266670391826,1.5118687881718034,1.8004090399170258,2.47315049540998,2.305628023574958,0.8174686696900603,1.148992802702474,1.9449144884519427
242,242,12.1,-0.812,-6.46,-0.41200000000000003,-1.77,0.368,-0.74,2.86,2.63,-0.677,0,1,0,0,12100000000.0,-1.242736818,-8.361256685,-0.216885787,-1.791629638,0.746325571,-0.779625408,2.7336062560000003,0.358458932,-1.52458524,1.3189875397280548,0.19049701423407442,1.584080386774085,1.8748559121503334,2.090217579194881,2.3083337512266366,0.65928511871265,1.272434357355878,1.9891856977831543
243,243,12.2,-0.977,-9.55,0.292,-1.51,0.382,-0.78,2.34,-0.335,0.867,0,1,0,0,12200000000.0,-1.1512676259999999,-8.92280031,-0.000120051,-1.571505126,0.530312695,-0.779912866,2.582157976,0.036842369,-0.343217659,1.2778139558619206,0.129329090444519,1.5399195914376729,1.729458525029841,1.8879949114967696,2.212484354060886,0.6591696376114121,1.1169124235159158,1.790171908062403
244,244,12.2,0.725,-9.22,1.3,-0.95,0.561,-1.38,3.59,0.0841,2.51,0,1,0,0,12200000000.0,-0.505438092,-9.063192868,0.5536809770000001,-1.085730577,0.548507549,-1.2404481379999999,2.96994626,0.058759797999999995,1.066181764,1.5312144175728828,0.06331038287875546,1.6604946945780745,1.6095448659003602,1.6469627964459794,1.9089781762201188,0.7916563736731048,0.6489250455481544,1.9682948379650629
245,245,12.3,-4.6,-10.3,0.35200000000000004,-0.7879999999999999,0.8590000000000001,-0.672,-2.32,-0.971,2.09,0,1,0,0,12300000000.0,-1.914826004,-9.64744108,0.46777265100000004,-0.85302141,0.732602157,-0.804194119,0.93452872,-0.41882841,1.571915601,1.2193029134713815,0.17155265008599727,1.5627392727182443,2.08822576571887,1.9490855712330517,2.2477225751181487,0.6005113024870955,1.2547277092642917,1.9068782652205636
246,246,12.3,-4.1,-12.9,0.402,-0.04,0.456,-0.635,-2.17,-3.48,2.38,0,1,0,0,12300000000.0,-2.666984067,-11.18389828,0.43975604,-0.217555852,0.568601515,-0.674346535,-0.260003726,-1.8385570119999999,1.971083834,1.2598589272844039,0.22507832390856738,1.742427724314702,2.1634725333171207,1.9223093205534139,2.497098965073036,0.6277635649214575,1.4270806522370247,2.1084312728057286
247,247,12.4,-4.89,-13.4,2.53,0.46399999999999997,0.56,0.138,-3.19,-3.94,4.54,0,1,0,0,12400000000.0,-3.4321676780000003,-12.23074949,1.330119418,0.315154918,0.563501578,-0.050913349000000004,-1.387381152,-2.813176922,3.240047282,1.4136073990663942,0.17358246981289552,1.443204127478237,2.4579975732068102,2.1606721598904253,2.782815796292296,0.7149480278124672,1.144401686638533,1.933289815768347
248,248,12.4,-4.96,-11.3,1.53,2.28,-0.293,1.51,-2.95,-1.81,3.05,0,1,0,0,12400000000.0,-3.958062403,-11.79107825,1.415260832,1.8508972019999999,0.055671805,1.147005443,-1.988631485,-2.347917462,3.146169902,1.3774543371790011,0.15954519312089416,1.7918445944704475,2.960932129238133,2.4922510144231405,3.077254445930318,0.7872011857261171,1.1901002709014508,2.210468594843664
249,249,12.5,4.55,-16.4,-5.92,3.16,-2.19,1.9,7.39,-6.97,-5.85,0,1,0,0,12500000000.0,-1.029504692,-13.96825979,-1.709277688,2.874104935,-1.275813208,1.724889095,1.619993264,-4.491574637,-1.297653909,1.6444476608026557,0.11339900890508577,1.800359131852427,2.9284063359401302,3.1250980643804227,3.5340683315621986,0.9863706504616544,0.7837168465847731,2.0997158488681897
250,250,12.5,-0.22699999999999998,-18.2,2.7,2.17,0.659,1.44,3.28,-9.15,1.42,0,1,0,0,12500000000.0,-0.7532747879999999,-15.96726728,0.168904738,2.323769629,-0.128639925,1.506251761,2.258715596,-6.652087027,0.044781285,1.5908761262326974,0.1594272577238999,1.9202815669211535,2.3257554964988625,3.068173541968568,2.95606996883726,0.9752837567616917,1.089640952913451,2.1853144065755625
251,251,12.6,-2.59,-11.8,-0.285,1.62,-0.69,2.03,1.68,-3.29,-2.51,0,1,0,0,12600000000.0,-1.385493401,-13.99871623,-0.02444119,1.773696345,-0.46147685299999996,1.908200932,2.036042635,-5.092798042,-1.217199993,1.41995952082512,0.2142062342142996,1.7585547392972547,1.9866568681422172,2.794420404658331,2.2235110864415777,0.8681153917525019,1.3319613017542486,2.159431430619782
252,252,12.6,-0.38299999999999995,-7.09,-0.249,0.81,-1.52,1.64,4.57,0.857,-3.17,0,1,0,0,12600000000.0,-1.040425439,-10.73514806,-0.12009459,1.020461773,-1.089087549,1.7023708290000001,3.011035844,-2.333364881,-2.18182157,1.3345726161223972,0.19942212292033112,1.5522369600370336,1.8372683808165229,2.4229464642837013,2.102848603360478,0.7508116566077242,1.2509991597079462,2.0460065862224686
253,253,12.7,1.13,-3.84,-0.912,0.667,-2.67,1.03,6.27,3.63,-4.65,0,1,0,0,12700000000.0,-0.29334394199999997,-7.47798916,-0.45741578299999996,0.74419256,-2.026429007,1.186361602,4.26499052,0.43236044700000004,-3.4010238239999997,1.078066403761374,0.16983840611795575,1.7013718815796497,1.8372789144061727,1.9874996899885702,1.991892593535721,0.57784194187345,1.2428997190349074,2.1959513099926267
254,254,12.7,0.713,-3.57,-1.33,-0.0675,-2.35,0.428,5.58,3.62,-5.89,0,1,0,0,12700000000.0,0.053049409000000006,-5.631916876,-0.829103057,0.10976564300000001,-2.2182779619999997,0.60435901,4.770967917,1.910743061,-4.630499394,1.2551922197532113,0.10351114324494685,1.6635523453573118,1.642549902634788,1.8564152528270688,1.8817228719461654,0.6397177504892121,1.0201014816474148,1.9593693405933152
255,255,12.8,1.87,-2.78,-1.09,-1.07,-0.9,0.207,6.44,4.43,-5.91,0,1,0,0,12800000000.0,0.6784614370000001,-4.284716448999999,-0.9402351170000001,-0.812350868,-1.4366555840000002,0.29940689600000003,5.4131629729999995,3.079139135,-5.262532215,1.5420290573898634,0.06692646586165399,1.7444103510920244,1.8459114996413064,1.6654728268668442,1.8052773015056893,0.7089552206826188,0.6715224871986089,2.0995369574036276
256,256,12.8,0.278,-9.72,9.76,-1.44,-0.335,-0.726,4.7,-2.15,5.36,0,1,0,0,12800000000.0,0.540618723,-6.852258535,3.617652862,-1.302927668,-0.783471157,-0.487538908,5.138758516,0.653937454,-0.015336664,1.1793492535995034,0.18654720339940792,1.8353244642323088,2.1934091698382683,1.9441652826525264,2.1124955333473574,0.5035283881743451,1.317623416664748,2.221074299839875
257,257,12.9,-12.4,-20.1,8.87,1.27,-0.845,-0.0421,-8.47,-12.3,4.36,0,1,0,0,12900000000.0,-3.9136676930000003,-13.110282199999999,5.8549503220000005,0.7080979740000001,-0.819952342,-0.145688003,-0.097496317,-5.353917753,2.145941554,1.357713802724596,0.22624864880261455,1.7995206240869441,2.22302555874013,1.9901375897846187,2.486046977220259,0.5746000315981199,1.432905605646399,2.2932215137304
258,258,12.9,3.05,-7.02,1.52,0.6659999999999999,-0.47600000000000003,0.545,6.95,0.41,-3.55,0,1,0,0,12900000000.0,-1.51670571,-10.23332923,4.008428502,0.675193789,-0.6160189970000001,0.384378681,2.6141753530000003,-2.68069327,-0.667673689,1.447268090688927,0.16977865843774587,1.4645720309298258,2.649798801069471,2.151468779835172,2.836352103387729,0.6015871263565571,1.1883938112904788,2.0626188242247316
259,259,13.0,-2.26,-17.4,4.05,0.129,2.11,-0.41200000000000003,1.71,-9.97,-0.9670000000000001,0,1,0,0,13000000000.0,-1.772554815,-13.61875094,4.026136439,0.248283328,1.000269367,-0.22680002,2.2662749719999997,-6.061371964,-0.815531439,1.6392790056332096,0.16138578253021638,1.9683601499179968,3.4048835419979167,2.6438305142751295,3.1968063768829316,0.77459346169149,1.2426810923405656,2.405321330810329
260,260,13.0,-0.32799999999999996,-5.15,-7.14,-0.917,0.889,-0.0677,3.94,2.22,-12.0,0,1,0,0,13000000000.0,-1.275325032,-9.618247022,-0.730207397,-0.662513618,0.934296462,-0.10469913199999999,2.910275737,-2.2205873919999997,-6.340305735,1.6956889095094485,0.1288011533066509,1.9531851895484578,2.698307516320249,3.1619924562722366,3.452660651843346,0.8666451881238383,0.9027909007922783,2.2895040025940334
261,261,13.1,0.812,-10.9,-2.54,-1.7,2.25,-1.06,5.2,-3.03,-6.47,0,1,0,0,13100000000.0,-0.5568475070000001,-10.22372667,-1.5011092990000001,-1.47342325,1.71439242,-0.837842199,3.791295008,-2.595981632,-6.404370502999999,1.607366497035729,0.16808743437514106,1.8364344601215894,2.244689662726975,3.1529794346056357,2.548458128325987,0.8162322851409544,1.1368175833115781,2.277199070177553
262,262,13.1,-3.79,-12.5,-0.982,-2.19,1.95,-0.647,0.613,-4.17,-3.62,0,1,0,0,13100000000.0,-1.669729959,-11.29900218,-1.279988736,-2.0335067540000002,1.854086928,-0.691380872,2.5683794580000003,-3.325989385,-5.02897934,1.4574339845602193,0.21112233802569583,1.7277668915626971,2.0016901157051343,2.603704263153758,2.036406914051329,0.7185509400704185,1.314405800326606,2.3427753674168943
263,263,13.2,-1.17,-8.53,0.728,-2.02,1.38,-1.05,3.07,0.215,-0.578,0,1,0,0,13200000000.0,-1.4977180419999998,-9.990969231000001,-0.42466290799999995,-2.022949727,1.572995261,-0.966602132,2.761388437,-1.6837280030000001,-2.8303361000000002,1.290448426530833,0.19865649384998535,1.6389135887529729,1.9389123142012439,2.2760051813222386,1.9295393058752297,0.5783835379251733,1.3119377413181592,2.2664141117151777
264,264,13.2,-1.04,-6.46,-0.0479,-1.63,0.6629999999999999,-0.877,2.8,2.55,-0.278,0,1,0,0,13200000000.0,-1.340167037,-8.322995246,-0.264176425,-1.715816339,1.0334484609999999,-0.8978371940000001,2.7762450260000002,0.279815843,-1.56956266,1.059659210812267,0.15810101582457609,1.66930361149175,1.8947605197343171,2.0500204950406435,1.8693662171155205,0.45788528398156947,1.2692875771982048,2.2094600362202526
265,265,13.3,-1.88,-9.4,-0.335,-1.31,0.698,-0.9440000000000001,1.54,-0.22699999999999998,0.226,0,1,0,0,13300000000.0,-1.52598278,-8.831755073,-0.294344543,-1.3986262390000002,0.834557168,-0.9332647209999999,2.300573857,0.04476174,-0.682611407,1.2558055456480643,0.0850158760640168,1.7538173247165154,1.4975854038595153,1.895859278638803,1.5376159549156094,0.5052395761877361,0.9193073367101651,1.9819050460573306
266,266,13.3,0.314,-8.77,0.745,-1.17,0.505,-1.43,3.21,0.519,1.99,0,1,0,0,13300000000.0,-0.8926428470000001,-8.80258317,0.148376189,-1.219929681,0.63915888,-1.31448285,2.6504946190000003,0.264706813,0.63757424,1.3168355550159438,0.0992384909526363,1.750854885528703,1.8513883818786188,1.9406921749613617,1.8525189358758498,0.5228304181190688,0.9476959205256714,2.033178521976974
267,267,13.4,-4.31,-10.5,-0.273,-0.763,0.648,-0.8059999999999999,-2.05,-1.11,1.53,0,1,0,0,13400000000.0,-2.068930324,-9.604416026,-0.031113832999999997,-0.862788942,0.644400884,-0.924249034,0.84188093,-0.37286299700000003,1.078404371,1.2509889591252206,0.19350338547248289,1.8555719274896336,2.055688488412086,2.0964059333544247,1.970675829439188,0.5043901833193579,1.3384751924656573,2.2455334223850443
268,268,13.4,-3.84,-13.4,0.575,-0.149,0.504,-0.54,-1.94,-4.0,2.63,0,1,0,0,13400000000.0,-2.678549664,-11.39738967,0.22706730100000003,-0.30488446399999997,0.561155569,-0.629358151,-0.228506017,-2.0550784380000002,1.8448436730000002,1.2788632711488042,0.20429015761495686,1.866380528730054,2.1984191243821694,2.205791455625772,2.318427466128357,0.5625766106349492,1.3891244887489202,2.3702591295962785
269,269,13.5,-6.09,-14.8,0.6970000000000001,0.516,0.5329999999999999,0.254,-4.38,-5.35,2.81,0,1,0,0,13500000000.0,-3.8528040289999996,-13.00472905,0.427240536,0.33672691299999996,0.5444618,0.048572719,-1.82588028,-3.583216957,2.321600394,1.199595867349467,0.14773067718189684,1.675268514508935,2.8453151220634023,2.4788026101820875,2.651075462960686,0.5742630594824809,1.1404219961481115,2.18311925601201
270,270,13.5,-4.63,-12.6,1.47,2.28,-0.226,1.83,-2.53,-3.17,3.1,0,1,0,0,13500000000.0,-4.120322464,-12.81354163,0.8714159020000001,1.855608313,0.087646024,1.4157243819999998,-2.096805072,-3.391572744,2.706105172,1.5644028744014258,0.14175755441608975,2.123797356645123,3.420782048449737,2.8756921533587407,3.178679109013524,0.8222571661908622,1.1111302007138848,2.3582884688330767
271,271,13.6,6.21,-16.0,-5.14,3.17,-1.59,1.9,9.3,-6.65,-4.85,0,1,0,0,13600000000.0,-0.564525208,-14.31877415,-1.689215596,2.882949887,-0.9070498709999999,1.7873803990000001,2.288354339,-4.902785803,-1.026372136,1.4747610253450116,0.1393803891358369,2.113045937283261,2.5449940851536046,3.202141752200433,3.1784800862694493,0.8414197719997533,0.9923152324985345,2.2929253054578225
272,272,13.6,-0.69,-17.3,2.93,2.59,0.8170000000000001,1.08,2.97,-8.24,1.74,0,1,0,0,13600000000.0,-0.607714848,-15.72705772,0.278392299,2.653977297,0.115159369,1.244503226,2.550631788,-6.450538992999999,0.34012835,1.3683553865851559,0.177533102770397,1.9366317019653911,2.184229401201742,3.066121236064648,2.350043896157826,0.7778790182368881,1.1832048753048572,2.186154988483522
273,273,13.7,-2.36,-11.9,-1.14,2.1,-0.316,1.43,1.86,-3.29,-3.38,0,1,0,0,13700000000.0,-1.210868366,-13.91921602,-0.325788164,2.2209831,-0.140480053,1.386862192,2.284896755,-4.984725169,-1.497497641,1.3270873824351288,0.20489073334482116,1.9088512682364525,1.9786253086507886,2.6199308137775423,1.946895851918258,0.6928580886762412,1.3037361811997175,2.3483359975695977
274,274,13.7,-1.31,-7.47,0.0718,1.3,-0.998,1.4,3.47,0.5329999999999999,-2.97,0,1,0,0,13700000000.0,-1.2449904170000001,-10.872708300000001,-0.156430925,1.501133583,-0.648913637,1.396944749,2.740890049,-2.4256813669999997,-2.2248673230000002,1.1454939162223043,0.19700581003183074,1.8440161575070768,1.9835665100868978,2.1342404777600734,1.8929995635648669,0.5181842689975245,1.354391749602895,2.380900981367585
275,275,13.8,0.6990000000000001,-3.45,-1.3,0.932,-2.22,0.907,5.65,4.07,-5.19,0,1,0,0,13800000000.0,-0.57585005,-7.366338355,-0.643547269,1.056293143,-1.580429064,1.020937958,3.86023104,0.5869249329999999,-3.689549263,1.0213880412989944,0.1397166748699184,1.7257689211328302,1.8618026144295006,1.830197935681753,1.7664311561540709,0.43641227075514466,1.196018130314499,2.120006130675681
276,276,13.8,1.4,-2.05,-1.4,-0.0895,-2.07,0.456,6.12,5.18,-6.04,0,1,0,0,13800000000.0,0.104256704,-4.854984201000001,-0.9657669759999999,0.160729913,-1.8707013369999999,0.587377825,4.72972441,2.7171288660000004,-4.850597688,1.3019990162552222,0.0726391851085934,1.8580515420435741,1.5970407956303319,1.5355190614711496,1.4705692994831165,0.554868414641092,0.8168803337506527,2.108887236302029
277,277,13.9,1.98,-2.4,0.0479,-1.36,-0.903,-0.0103,6.42,4.91,-4.74,0,1,0,0,13900000000.0,0.749905756,-3.695288549,-0.533983901,-1.027887606,-1.296939937,0.12869156699999998,5.380093358,3.734151775,-4.795965809,1.102302612128693,0.12914265649266224,1.7723983756300479,2.171109023964157,1.7215625784644888,1.775535382671572,0.4633999108170907,1.1321799250952607,2.0759055756211207
278,278,13.9,-0.991,-12.4,9.72,-1.49,-0.318,-0.638,3.21,-4.68,5.44,0,1,0,0,13900000000.0,0.150669101,-7.807256344,3.83381827,-1.389079221,-0.716515035,-0.459703846,4.545104523,-0.168214124,0.260278107,1.238970866534274,0.2114913365433772,1.9421473551834756,2.3582736384413976,1.8225023127741755,2.1407301521045334,0.5142814499691233,1.4269460290352518,2.2786437775898314
279,279,14.0,-9.74,-18.5,6.77,1.13,-0.624,0.41700000000000004,-5.92,-10.6,2.39,0,1,0,0,14000000000.0,-3.253795109,-12.85833928,5.084518548,0.579857955,-0.661661801,0.21312018600000002,0.518436448,-5.006330772,1.312293523,1.315631928051552,0.2085473559219438,1.8446262841992938,2.6419316749939923,1.9713009641154269,2.472658440190989,0.5545856741544506,1.4394274938940845,2.2390049220053267
280,280,14.0,3.79,-3.59,0.845,0.5479999999999999,-0.524,0.7170000000000001,7.68,3.91,-4.13,0,1,0,0,14000000000.0,-0.829252489,-8.480122395,3.278647007,0.554957446,-0.580040509,0.599821415,3.2739978819999997,-0.871061155,-1.376027682,1.2721306847955975,0.1586251521975989,1.8817633461605416,3.146671771257497,2.2255705535336587,2.787908912050937,0.5708675102100768,1.222186039291993,2.220875006286912
281,281,14.1,-0.953,-24.2,9.78,-0.371,2.09,-0.778,2.95,-16.5,5.09,0,1,0,0,14100000000.0,-0.8718475859999999,-15.90594424,6.0479727720000005,-0.16878002600000003,1.003057569,-0.457583964,3.149332932,-8.119544526,1.81798589,1.6252607860698662,0.14420032645623282,2.1507352905972015,3.095896427588958,2.817734350197776,3.1266464968354093,0.7894387061939038,1.0996935606699123,2.3666097139168416
282,282,14.1,5.78,-2.47,-1.57,-0.54,0.419,0.309,10.0,5.06,-6.2,0,1,0,0,14100000000.0,1.4177829780000002,-9.559016758,2.803009868,-0.45892923799999996,0.656763031,0.13072885,5.785270501,-2.007056028,-2.142645861,1.6224063542657974,0.1605295217155668,2.2396531535610724,2.3502761362132887,3.4126067549707235,2.654646218425424,0.8116649106796338,1.121650434017956,2.4280013227956343
283,283,14.2,2.7,-8.39,-1.96,-1.78,2.6,-1.2,7.02,-0.473,-5.81,0,1,0,0,14200000000.0,1.8591345369999999,-9.006791898,0.7741511659999999,-1.491491161,1.808930815,-0.890535504,6.260358517,-1.295582281,-3.954202973,1.498837011689085,0.19863620281829633,2.045950258861319,2.212743335895295,3.002192741921971,2.1731349887558276,0.7134081432502798,1.3279426270294061,2.3339700206498475
284,284,14.2,-7.95,-16.1,-1.12,-2.13,1.78,-0.657,-3.74,-7.58,-3.67,0,1,0,0,14200000000.0,-1.5172646980000002,-12.35751137,-0.032684251,-1.99055606,1.791777381,-0.711309306,2.412511222,-4.210207339,-3.813815716,1.3707104898571123,0.20605793590363303,2.1437320203290424,2.0510902658674555,2.4838221235935243,1.9307245625126543,0.6128546893462038,1.3953350905126436,2.449208574696287
285,285,14.3,0.599,-6.57,1.08,-2.0,0.735,-0.9690000000000001,4.65,2.25,-0.33,0,1,0,0,14300000000.0,-0.78882586,-9.62358264,0.44127638700000005,-1.9979375369999999,1.165201767,-0.90907333,3.273431907,-1.214053477,-2.092920768,1.2780422031741727,0.1945528501860209,2.0944429644963627,1.993979800248104,2.024100847728242,1.9429102405484888,0.47674507383839365,1.4845129939186954,2.3897563952375505
286,286,14.3,-1.32,-7.09,-0.7709999999999999,-1.77,0.639,-0.9359999999999999,2.28,2.02,-1.22,0,1,0,0,14300000000.0,-0.971661172,-8.426758356,-0.07510665700000001,-1.8197792940000002,0.8532106070000001,-0.9297381229999999,2.891188173,0.28585531,-1.6617254869999998,1.1673449694742914,0.12027594165872751,1.902331445076976,1.7970267187915776,1.7825264718700504,1.758908709753554,0.4135281724558755,1.1591778857656778,2.0774500880824838
287,287,14.4,-0.737,-9.83,0.29,-1.5,0.33799999999999997,-0.894,2.43,-0.563,0.738,0,1,0,0,14400000000.0,-0.890888515,-9.089627472,0.080414708,-1.5698366419999998,0.547736235,-0.9023109909999999,2.7137363939999997,-0.10783192800000001,-0.476336885,1.4576316937760725,0.07012533176787619,2.1098991219289758,1.6643684225918127,1.5385170769616847,1.4791219820916266,0.5526951855625547,0.8401512587677757,2.232486602206334
288,288,14.4,-0.977,-8.94,-0.134,-1.17,0.44,-1.47,1.67,0.444,0.966,0,1,0,0,14400000000.0,-0.920528923,-9.018945622999999,-0.010917698,-1.257320343,0.483858164,-1.3379824329999999,2.31213695,0.148100009,0.23613200199999998,1.236498196537308,0.15566715665350647,2.003429127258896,2.1861954866611764,1.8288549264227154,1.7797378688420271,0.4814812908466478,1.3247439384364412,2.234650749367737
289,289,14.5,-2.3,-11.5,0.996,-0.628,0.863,-0.588,-0.2,-2.06,2.63,0,1,0,0,14500000000.0,-1.395356239,-10.19095646,0.417990442,-0.765437369,0.708655762,-0.762410409,1.345539667,-0.875985883,1.4186272580000001,1.3903202128998393,0.2110109992354261,2.0395255690202645,2.3890687020249612,1.8920100208082482,2.005756667226516,0.5822143840962295,1.5078897394871429,2.420168757483424
290,290,14.5,-4.61,-12.5,-1.17,-0.0376,0.619,-0.6579999999999999,-2.87,-3.03,0.631,0,1,0,0,14500000000.0,-2.5018678640000003,-11.2817121,-0.258432283,-0.19655249800000002,0.655497827,-0.6822809120000001,-0.276477426,-1.874987508,1.029564255,1.307264178560872,0.18248356168993085,1.885214402031796,2.8500879272918227,2.172353570352535,2.2761421038174907,0.589514105452891,1.4197480213037745,2.361849439310225
291,291,14.6,-6.05,-14.7,0.524,0.509,0.42100000000000004,0.152,-4.54,-5.21,2.36,0,1,0,0,14600000000.0,-3.723169444,-12.89645713,0.074853718,0.3549143,0.516461335,-0.042014248,-1.916956976,-3.421719702,1.68675745,1.2784812659726263,0.14779157090758238,2.137110758153955,3.5009146744484085,2.596762145547846,2.7473988616674005,0.6493026600241288,1.2698404630105107,2.415610192403865
292,292,14.6,-4.46,-12.7,2.92,1.93,-0.00733,1.59,-2.59,-3.21,4.33,0,1,0,0,14600000000.0,-3.976793685,-12.8036538,1.286776443,1.5860167859999998,0.20589934899999998,1.210470773,-2.175924336,-3.3235270810000004,2.9924357660000003,1.5381732571057736,0.12915194704848923,2.2351963016884335,3.1055367642051777,2.8766999343390967,3.3616107398790565,0.8711476336336957,1.036824513630038,2.391767123396575
293,293,14.7,3.72,-14.3,-0.505,2.83,-0.784,1.93,6.47,-4.92,-0.282,0,1,0,0,14700000000.0,-1.327482595,-13.51050416,0.523548717,2.558326283,-0.38102349700000004,1.762671525,1.1507759690000001,-4.0639489410000005,1.374967892,1.5177209757113346,0.15615627293226153,2.2741681943584617,2.218152040231943,3.384718356391638,2.6504908216663057,0.8999874906856052,1.173306589148607,2.435218764314733
294,294,14.7,-1.96,-18.1,2.54,2.13,-0.7340000000000001,0.998,1.43,-8.92,1.39,0,1,0,0,14700000000.0,-1.545201237,-15.67850957,1.3824792540000002,2.223542323,-0.590307394,1.175826416,1.25821324,-6.316117577999999,1.3823932719999998,1.3652695342937866,0.19808011921608654,2.1445126985461656,2.014532222593611,2.900798523110932,2.1290060089457374,0.7931543854414943,1.3665627570887828,2.4248837027016834
295,295,14.8,-0.84,-12.8,-0.735,2.03,-1.22,1.52,3.05,-4.1,-3.03,0,1,0,0,14800000000.0,-1.3024641190000001,-14.31874728,0.48051467200000003,2.072267711,-0.9636594940000001,1.4399615030000001,1.9476406880000001,-5.288313179,-0.79718966,1.237699271037923,0.20887105886861485,2.074246178230657,1.9345899491409306,2.3451156719840442,1.962197365179186,0.6663645851207365,1.4617785263266267,2.387078709868601
296,296,14.8,-0.342,-7.79,-0.8759999999999999,1.4,-0.971,1.45,4.05,0.37,-4.08,0,1,0,0,14800000000.0,-0.9718630509999999,-11.23467033,-0.097308307,1.546816615,-0.968011775,1.4476655569999999,2.756567518,-2.664066617,-2.418794269,1.0896156758088298,0.18541824646637628,2.0237652523634146,1.8262659464851212,1.878511233027033,1.8909234033086555,0.4941491041512808,1.4686886910045795,2.353133075081983
297,297,14.9,1.14,-3.39,-1.29,1.09,-1.73,1.03,5.81,4.24,-5.31,0,1,0,0,14900000000.0,-0.24493929899999997,-7.528972225,-0.605348997,1.189764267,-1.4198034830000001,1.127129214,3.931439565,0.537942867,-3.846958576,1.1595951156782067,0.11336869232240433,1.930272964109284,1.5873065241417605,1.6082047497256216,1.6536754064926187,0.5035875034621612,1.1237585759835822,2.1123567787437816
298,298,14.9,1.15,-2.6,-1.49,0.153,-1.85,0.684,5.74,4.66,-6.23,0,1,0,0,14900000000.0,0.235212337,-5.20060368,-0.982176243,0.379419082,-1.674872025,0.7870508890000001,4.627320966,2.449695276,-5.024105799,1.3746792940712382,0.07670830815380587,2.0604672200891843,1.7268377514913074,1.2889335149384784,1.4846646987385337,0.5918656227677837,0.8494901205066037,2.309510055346448
299,299,15.0,2.09,-1.82,-1.6,-1.18,-0.853,0.252,6.51,5.41,-6.53,0,1,0,0,15000000000.0,0.873648221,-3.60366001,-1.245345369,-0.839438221,-1.187574516,0.37642751,5.351721225,3.8226431560000003,-5.767970086,1.2164161784564085,0.17356911725872873,2.231195535938229,2.295095501609453,1.6217980094029656,1.8348131320470382,0.5201281848028921,1.39231961657562,2.4376347961831537
300,300,15.0,-0.915,-9.84,8.1,-1.88,-0.20600000000000002,-0.718,3.33,-2.18,3.69,0,1,0,0,15000000000.0,0.257978138,-6.549608431,2.7354118460000003,-1.6527515730000002,-0.605587549,-0.463487968,4.573821631,1.038701136,-1.096031491,1.3223776793680615,0.22650607927940458,2.131422725534114,2.4811428704359124,1.7293868033742779,2.1932378419668517,0.5729388985492354,1.6250669083024347,2.3743402600842423
301,301,15.1,-14.3,-23.8,8.12,1.34,-0.8,0.195,-10.5,-15.9,3.76,0,1,0,0,15100000000.0,-4.753019281,-14.69842014,5.029038883,0.686412617,-0.720856963,0.041866867,-1.226146803,-6.817231501,1.302694722,1.3470574955136245,0.19006532717840666,1.974025609366001,3.077497600994241,1.8810974433361336,2.5983294704043676,0.5919355624071121,1.5349267526925574,2.31218355800964
302,302,15.1,3.32,-4.19,0.5579999999999999,0.537,-0.318,0.8490000000000001,7.3,3.31,-4.35,0,1,0,0,15100000000.0,-1.9742077230000001,-9.73440874,3.1245486000000002,0.569630241,-0.481998369,0.661299026,2.0544667430000003,-2.120363118,-1.4895579280000002,1.443188281414165,0.15360651505984102,2.184917953115535,3.6247334182502096,2.4110058331008406,3.0157038546625747,0.685815311633417,1.3369295933563359,2.4612090696992377
303,303,15.2,0.6629999999999999,-21.3,8.26,-0.414,2.04,-0.821,4.66,-13.6,3.65,0,1,0,0,15200000000.0,-1.066455236,-15.19781072,5.312053125,-0.19918486600000002,1.013323827,-0.476287405,3.05700015,-7.444458416,1.049221443,1.6051377361587287,0.1401345408295566,2.23473779333707,2.742966576011285,3.143201232264971,3.5052561574396774,0.8648356972506932,1.1196847822446248,2.435470965090714
304,304,15.2,1.34,-4.53,-4.45,-0.812,0.966,0.0941,5.56,3.1,-8.93,0,1,0,0,15200000000.0,-0.238129979,-10.1585058,1.153794706,-0.6781672040000001,0.985264991,-0.038545109,4.020081718999999,-2.55408604,-3.8801989860000003,1.6079063370129258,0.17517405522475402,2.317622750253499,2.1071518708924053,3.5649942952352487,2.345544390880289,0.874902544361952,1.317256328140217,2.549810187474228
305,305,15.3,2.13,-7.64,-2.73,-1.82,2.79,-1.05,6.48,0.41600000000000004,-6.26,0,1,0,0,15300000000.0,0.577003381,-8.968803444,-0.500552205,-1.5706350269999998,2.055313383,-0.814783439,4.966586782,-1.176601647,-5.055745653,1.4787482040491333,0.21174957149908066,2.096322656060668,2.060221006463943,2.7733865063181358,2.0012988154516727,0.7656871555175112,1.4955158304576266,2.4775065644841447
306,306,15.3,-6.75,-16.0,-1.25,-2.01,1.84,-0.675,-2.45,-7.48,-3.43,0,1,0,0,15300000000.0,-1.945022288,-12.29022946,-0.8197880890000001,-1.9140470180000002,1.927651589,-0.70750702,2.112899737,-4.100029702,-4.25267867,1.2864469461585029,0.2085585583563944,2.141854568269941,1.9929818996436859,2.168968104928053,1.922904691191092,0.6171782332267832,1.570307517574643,2.470807992353622
307,307,15.4,-0.326,-7.0,-0.187,-1.84,0.993,-0.945,3.78,1.85,-1.22,0,1,0,0,15400000000.0,-1.387739106,-9.791208757,-0.550244747,-1.856171164,1.373485754,-0.88977037,2.754351452,-1.3404890859999998,-2.754631184,1.0909502310993724,0.1721759802131643,2.1591311938918376,1.853284065203187,1.8567438568658237,1.845819220626182,0.446337168667974,1.5255725993945948,2.3685843264085884
308,308,15.4,-1.41,-7.97,-1.06,-1.73,0.745,-0.98,2.27,1.12,-1.09,0,1,0,0,15400000000.0,-1.39540151,-8.930898454,-0.76738082,-1.7575545519999998,1.000849231,-0.959016874,2.567987084,-0.199348639,-1.93235596,1.2507302872451032,0.09862977522238825,2.101121568640606,1.581499844115113,1.4985651419619845,1.5553594712490637,0.5291684699171345,1.08312071841948,2.2638754736223587
309,309,15.5,-1.2,-9.17,1.53,-1.23,0.5820000000000001,-1.0,2.02,0.0576,2.32,0,1,0,0,15500000000.0,-1.3281424309999998,-9.043846278,0.211214879,-1.3452127230000002,0.7525086520000001,-0.990469265,2.3571375740000002,-0.080179452,0.168173574,1.3501655313925673,0.10463191965145464,2.198683638494851,1.8068312383125138,1.4521619783276676,1.483882661175597,0.5937280057971895,1.1521507474571209,2.390308825538133
310,310,15.5,-2.48,-8.85,-0.35,-1.08,0.276,-1.46,0.13699999999999998,0.508,0.996,0,1,0,0,15500000000.0,-1.724622991,-8.952276543,-0.027841032999999998,-1.137919875,0.46998111600000003,-1.3508094080000002,1.5028931630000002,0.192609964,0.5770936839999999,1.2561281934507393,0.1803808027185186,2.3318748950911488,2.2531639421157603,1.7363682239858902,1.7764964943632053,0.5639953148886568,1.460118561376535,2.567592448184166
311,311,15.6,-1.91,-11.3,0.515,-0.55,0.742,-0.693,0.166,-1.85,2.37,0,1,0,0,15600000000.0,-1.788431545,-10.06130405,0.203388325,-0.6783959079999999,0.631264272,-0.8459753409999999,0.988495529,-0.754723997,1.4627327330000002,1.2610622022371232,0.2091330145823252,2.2334102081603584,2.4613862885550293,1.913742503771757,2.0170805822227758,0.6155365993927667,1.5972975454764442,2.534519911043537
312,312,15.6,-5.4,-12.6,0.359,-0.0809,0.67,-0.561,-3.72,-3.17,2.37,0,1,0,0,15600000000.0,-3.0315684889999996,-11.26054403,0.269672902,-0.211387209,0.654231146,-0.627271765,-0.823196706,-1.874895281,1.910894057,1.2452366846628655,0.15898399572378355,2.0142878207080352,3.126309145876377,2.185931405095552,2.4275743491049613,0.6184768175338075,1.3900577556760954,2.3067849044096183
313,313,15.7,-8.33,-14.8,1.69,0.9159999999999999,0.449,0.465,-6.81,-5.29,3.68,0,1,0,0,15700000000.0,-4.855340007,-12.93252713,0.874677545,0.6697897660000001,0.532547209,0.210989299,-3.1267445819999997,-3.458773095,2.7847765630000003,1.453462123702217,0.13254910535299216,2.322817074892551,3.837770631901301,2.638223969676372,3.1383877852345163,0.8026617162377983,1.1911477301605833,2.4487451752347877
314,314,15.7,-3.8,-12.0,2.64,2.43,-0.43799999999999994,1.83,-1.76,-2.46,3.95,0,1,0,0,15700000000.0,-4.492081719,-12.49201606,1.626636938,2.045587508,-0.042901536,1.453494789,-2.600860988,-2.995556112,3.36036017,1.5055113457288631,0.13629994031318082,2.347401618036837,2.7421906168469343,3.3136837872993095,3.3649345000774256,0.9393574320937461,1.1138881359307355,2.4596193775998865
315,315,15.8,5.1,-20.5,-9.17,2.22,-3.49,1.67,8.12,-11.2,-9.29,0,1,0,0,15800000000.0,-1.190394137,-16.27486098,-2.972314437,2.181910055,-2.086726386,1.619651105,1.5242146680000002,-6.800662415,-2.888518274,1.4251962008085861,0.18024395493507334,2.450150437779161,2.169556247879043,3.394006872340424,2.346327164576523,0.9148109536697829,1.3906529415102293,2.538591988057753
316,316,15.8,0.67,-16.9,0.419,2.47,-0.522,1.57,4.22,-7.89,-1.02,0,1,0,0,15800000000.0,-0.550028415,-16.57016659,-1.527745154,2.407084022,-1.158981889,1.581546537,2.561474428,-7.305881897999999,-1.965529239,1.3355162254502697,0.21672137343281916,2.454012903335767,1.898813817254356,2.532544299125448,2.0315155269756353,0.8117824146968166,1.5394129963480494,2.604937550518251
317,317,15.9,0.268,-11.5,-1.58,2.11,-0.235,1.53,4.46,-3.08,-4.19,0,1,0,0,15900000000.0,-0.268455094,-14.175100099999998,-1.550003723,2.174880136,-0.611142261,1.541987262,3.291971901,-5.345976909,-3.0643475810000003,1.1121852024783634,0.20520858373914821,2.271497073871616,1.8636279658115422,2.155045735255384,1.929724799097142,0.6029150730983506,1.5598684906500802,2.45629388148017
318,318,15.9,0.455,-5.43,-1.04,1.5,-1.28,1.27,5.15,2.44,-4.52,0,1,0,0,15900000000.0,-0.019434825,-10.04405309,-1.332761771,1.6473871619999998,-1.0077157909999999,1.333251346,4.006887146,-1.734949626,-3.783393901,0.9826382448055885,0.1583023866492803,2.2535425086398084,1.6696943802397926,1.737465600901048,1.7870071101979133,0.4671565234833818,1.4217592089827953,2.3741693644875492
319,319,16.0,1.07,-2.14,-1.33,0.986,-2.01,0.615,5.83,5.24,-5.7,0,1,0,0,16000000000.0,0.355559232,-6.310303505,-1.331585381,1.13044043,-1.601981771,0.782031268,4.708367953,1.4999344069999998,-4.730136699,1.3107857237250675,0.08918419510561788,2.2364542748790495,1.393136795745907,1.4345208889332748,1.4113215861571333,0.620074132328661,1.0107503013523549,2.265786939193755
320,320,16.0,1.53,-1.52,-2.36,0.062,-1.73,0.16,5.96,5.61,-7.43,0,1,0,0,16000000000.0,0.759813132,-4.047439906,-1.76965034,0.295336845,-1.6778852819999999,0.304655023,5.1899596,3.40612544,-6.063783831,1.3978213930117616,0.10767352397540038,2.373636275519571,1.8027058482186746,1.3902949751278701,1.4946655525725012,0.6509130833531374,1.1188535828190114,2.347761852489983
321,321,16.1,2.95,-2.23,-1.21,-1.75,-0.0867,-0.585,7.08,5.07,-6.29,0,1,0,0,16100000000.0,1.513696723,-3.188910056,-1.531260874,-1.303318618,-0.7344529879999999,-0.37810834200000004,5.917192181,4.177807282,-6.175527456,1.3012607908305232,0.21071449332931616,2.4749103887891675,2.3207525012590677,1.6314271159012865,1.853972051420436,0.6072992120278123,1.6116373033736782,2.4247621027454165
322,322,16.1,-2.14,-17.9,18.8,-0.851,-0.715,-0.9059999999999999,1.66,-9.93,14.4,0,1,0,0,16100000000.0,0.256058817,-10.13819603,7.129072572,-0.949781931,-0.722919069,-0.783237405,4.279148355,-2.365196675,3.9881332030000003,1.3367190158173123,0.22920631024129542,2.3762519416879258,2.6368933124089473,1.7427677634093794,2.2403605708157763,0.6530646057461853,1.748702230022287,2.3455638545985886
323,323,16.2,-5.77,-12.4,6.29,1.08,-0.8590000000000001,1.19,-2.22,-4.51,1.6,0,1,0,0,16200000000.0,-1.8181691009999998,-11.20663626,6.77165997,0.636715691,-0.803603055,0.731118438,1.778464958,-3.359926583,2.808470823,1.336034341684255,0.16175015420580488,2.189605312601664,3.160013815383183,1.9953038362964175,2.7081482837629487,0.6618339681186699,1.4587905722992447,2.3217028040665344
324,324,16.2,7.61,-2.91,0.7090000000000001,-0.452,0.374,-0.304,11.3,4.58,-4.46,0,1,0,0,16200000000.0,1.427098246,-7.2874365889999995,4.189200412,-0.21423523100000003,-0.105388475,-0.063280447,5.442074967000001,0.322500345,-0.781924265,1.6315276349730243,0.14092696956499026,2.4057883580069896,3.4675265880234867,2.5073033913980005,3.2658940368794407,0.8556553932260563,1.2429308769377745,2.521614506017849
325,325,16.3,-1.11,-22.7,4.72,0.8240000000000001,2.12,0.447,11.3,4.87,-4.0,0,1,0,0,16300000000.0,0.553804403,-14.56808807,4.415300496,0.5972596720000001,1.2140702140000001,0.328332923,7.696034329,2.431567066,-2.371552061,1.7512297166573416,0.1461514540649331,2.389438509270485,2.4899392892158816,3.5561538482369692,3.164092657747222,0.9905217476157333,1.297576196242652,2.5003666530420032
326,326,16.3,2.52,-3.28,-6.23,-1.34,1.68,-0.723,6.54,4.44,-10.8,0,1,0,0,16300000000.0,1.230588002,-9.235773836,-0.11918736199999999,-0.916921632,1.490325382,-0.478509726,7.251225905,3.363050213,-6.534939291000001,1.5955108016842325,0.2026189530948953,2.4916002588751414,2.115582041201249,3.357100341683246,2.1742961481385823,0.8831933301355477,1.5649434935957796,2.5139418611678392
327,327,16.4,-0.915,-12.2,-2.21,-1.93,2.85,-1.1,3.19,-3.99,-5.57,0,1,0,0,16400000000.0,0.49205578200000005,-10.63602729,-1.009793003,-1.708753641,2.296492249,-0.955470802,5.688584241,-0.047191698,-6.058289836,1.520202629598593,0.22436116528029582,2.3842004179300975,1.8766173393496013,2.4460050394405517,1.8900940435907099,0.8101539558551395,1.6000441886626993,2.431313057704691
328,328,16.4,-4.09,-11.5,0.682,-2.15,1.32,-0.6709999999999999,-0.0361,-2.77,-1.31,0,1,0,0,16400000000.0,-1.0851323370000001,-11.04415433,-0.289154376,-2.053636224,1.7175186480000002,-0.7371544440000001,3.4858921360000004,-1.3099921190000001,-3.7127845660000003,1.260082666222255,0.19942360311392823,2.3704015574019035,1.8625754115064204,2.018571320332908,1.9163132873698596,0.625522116280001,1.6714717292583823,2.372973342828599
329,329,16.5,-0.124,-5.96,-0.0215,-1.89,0.44299999999999995,-1.2,3.58,3.08,-0.888,0,1,0,0,16500000000.0,-0.7543012590000001,-8.642480277,-0.175143925,-1.925736525,0.961841685,-1.092364072,3.522102078,0.726024826,-2.317430194,1.1761033988517389,0.13976251093707678,2.2926093859541403,1.6289772763023718,1.6718068828455448,1.7165729388274689,0.5324445939485298,1.4619451960187904,2.2760915850491186
330,330,16.5,-1.3,-8.69,-1.75,-1.69,0.426,-1.12,1.87,0.586,-1.72,0,1,0,0,16500000000.0,-0.942136045,-8.664927644,-0.845971934,-1.741482575,0.644134906,-1.113573195,2.886421219,0.661083281,-2.0223185580000003,1.384901453721091,0.07951326388584128,2.3533573401799037,1.3956196116641533,1.357346727224188,1.2646654499383991,0.6567974371214236,1.182090165366933,2.255224565813799
331,331,16.6,1.44,-9.49,2.65,-1.06,0.581,-1.13,4.1,-0.0866,3.45,0,1,0,0,16600000000.0,-0.122181681,-9.054678663999999,0.643177451,-1.2088290240000001,0.606701467,-1.126179899,3.353371024,0.314318227,0.680834033,1.478485149264166,0.11562098059011608,2.3964225036559634,1.8287926963717618,1.4275920380602045,1.445186167557415,0.6749521942735422,1.3551403770384987,2.3780442125560555
332,332,16.6,-5.4,-10.1,-0.845,-1.03,0.425,-1.11,-3.39,-0.573,0.47,0,1,0,0,16600000000.0,-1.938857998,-9.548472106,0.009271184,-1.069054472,0.49896855700000003,-1.11376269,0.758717814,-0.09720757,0.576688678,1.3565459610144177,0.2098955689958603,2.4983093038924014,2.201304222679137,1.7309451290828817,1.7517622702640956,0.635068455782214,1.7104928242558013,2.5008612622494253
333,333,16.7,-1.38,-11.4,0.85,-0.32799999999999996,0.57,-0.7070000000000001,0.182,-1.89,2.58,0,1,0,0,16700000000.0,-1.74649365,-10.42310441,0.367389277,-0.48983899,0.541083923,-0.801593758,0.53681356,-0.928679632,1.566261175,1.3474265642085999,0.19799499142215166,2.124919462126268,2.6419561117079478,1.8763141468835316,2.126588806627234,0.6685188576734419,1.6644771234489135,2.1983788714087993
334,334,16.7,-5.58,-12.0,1.88,0.0345,0.39,-0.32899999999999996,-4.38,-2.47,3.7,0,1,0,0,16700000000.0,-3.066023712,-11.16800494,1.011703162,-0.080010462,0.45150449600000003,-0.438902932,-1.355033432,-1.6435224869999998,2.620260801,1.2197438173935928,0.13359666665288455,2.21250966446636,3.1847574344354275,2.1603074642514346,2.5951624545680283,0.6764322538797571,1.2973630074432265,2.331348532873387
335,335,16.8,-6.49,-13.7,1.82,1.5,0.505,1.26,-5.26,-4.14,3.43,0,1,0,0,16800000000.0,-4.2445895,-12.36407926,1.356006494,1.154941308,0.48322260100000003,0.864915598,-2.857551155,-2.8013537989999997,3.0202464289999997,1.4961433248227785,0.1275051395472692,2.5239215240515613,3.408803384897593,2.8933442900777537,3.351959083440117,0.9263029114902633,1.275527008778417,2.56714287526035
336,336,16.8,0.335,-12.3,4.64,2.89,-0.687,1.98,2.35,-2.68,5.23,0,1,0,0,16800000000.0,-2.668250348,-12.33380932,2.754861139,2.511080387,-0.210616,1.720684172,-0.8538368679999999,-2.745071635,4.111794925,1.5003127336740083,0.14838246319834994,2.611031242353097,2.415432367883862,3.517321939107483,3.1303192739823746,1.0099223640239239,1.4434098273188334,2.6158343083277016
337,337,16.9,1.84,-22.5,-3.96,1.83,-1.22,1.21,4.71,-13.1,-4.83,0,1,0,0,16900000000.0,-1.116466816,-17.13615696,-0.10541099999999999,1.9787412690000001,-0.809091552,1.328760991,1.286965857,-7.547542844,-0.305169374,1.4014021427083736,0.18987084695468567,2.5327442645346983,2.077731425439519,3.0398923485166733,2.2715006837000775,0.9232189609574719,1.5730993253834538,2.474520114813789
338,338,16.9,-1.89,-14.5,0.287,2.05,-1.15,2.08,1.7,-5.55,-1.58,0,1,0,0,16900000000.0,-1.38272444,-15.89087812,0.061740967,2.0344377590000002,-1.011220129,1.9052973119999999,1.445889409,-6.621110483,-0.9348954690000001,1.3310837801334565,0.21326604103899466,2.357311925679044,1.7616728105389852,2.375340346125165,1.9623972783195207,0.8201193237513534,1.6301996309471436,2.3040489999552807
339,339,17.0,-0.6920000000000001,-10.1,-0.68,1.3,-0.757,1.66,3.65,-1.79,-3.52,0,1,0,0,17000000000.0,-1.144970375,-13.15535909,-0.25421210899999996,1.4603939209999999,-0.86049007,1.717044517,2.293967137,-4.380508954,-2.211855468,1.0533986751968791,0.19770378838714867,2.36401279274474,1.6749662526596798,1.924355704458788,1.8923653298636582,0.5943442431195133,1.6507236940497951,2.482920916050485
340,340,17.0,1.53,-4.9,-1.09,1.13,-2.07,1.29,6.26,2.87,-4.75,0,1,0,0,17000000000.0,-0.22421962199999998,-9.255658106,-0.610225562,1.202154768,-1.5776225609999999,1.389310309,3.819981396,-1.017824303,-3.46561872,1.0811856808695062,0.1331012111666274,2.3937809461609882,1.4172246080097148,1.5834784209900885,1.599064412597296,0.5719518820514793,1.4520941096197073,2.4136325100027336
341,341,17.1,1.21,-1.89,-1.63,0.43799999999999994,-2.45,0.675,5.86,5.46,-6.17,0,1,0,0,17100000000.0,0.269452703,-5.776237739,-1.044610179,0.604883855,-2.094865337,0.841114771,4.604921312,1.9865000780000002,-4.801497713,1.4366948452812076,0.06505474435141743,2.3509361573156458,1.2430404191035151,1.2216605278022732,1.205404394167605,0.728988675374338,1.022793358900208,2.2957626407030647
342,342,17.1,1.65,-1.26,-2.37,-0.483,-1.41,0.27899999999999997,5.97,5.95,-7.43,0,1,0,0,17100000000.0,0.744650472,-3.642838476,-1.6091751269999999,-0.24541691,-1.688800679,0.409721295,5.130163833,3.824715851,-6.099894758,1.3159967519901137,0.1446076170973953,2.496023788957241,1.8959053067898042,1.4097499125649158,1.5679630389186623,0.6481088215934484,1.5260130160891487,2.42258253610731
343,343,17.2,2.37,-4.19,1.43,-1.9,-0.0678,-0.556,6.5,3.26,-3.43,0,1,0,0,17200000000.0,1.3041115140000001,-3.9013089510000003,-0.31460364399999996,-1.5386553630000002,-0.7276904890000001,-0.33141894,5.657236975,3.562808528,-4.781051088,1.320281250109479,0.23124011008662623,2.6276065277169462,2.252445033206182,1.600129540268871,2.003099351402272,0.6198293487871878,1.8269242830326469,2.331520746278631
344,344,17.2,-8.13,-23.5,19.1,0.498,-1.6,-0.92,-4.44,-15.5,14.7,0,1,0,0,17200000000.0,-1.9432012630000002,-13.15942054,7.955269629,0.053214565,-1.244892976,-0.783123922,1.7721136469999998,-5.278255603,4.841972900000001,1.3919908773461434,0.20196363782619747,2.308496383770948,2.6490007629436825,1.6681925648776972,2.3757519822274924,0.686864614601211,1.6904474760862784,2.1460181901584714
345,345,17.3,-1.2,-7.98,3.77,1.14,-1.21,1.09,2.27,-0.327,-1.28,0,1,0,0,17300000000.0,-1.687384192,-10.71274423,6.172506017000001,0.902656775,-1.224204547,0.654400077,1.9636858369999999,-2.98193246,1.817911616,1.2684139716762306,0.13600292422847052,2.214242380370616,2.990744711944048,2.050448546901081,2.8371616100729224,0.6804384966081604,1.3733975152372309,2.266532836976709
346,346,17.3,5.4,-5.01,-2.3,-1.03,1.2,-1.06,9.05,2.45,-7.51,0,1,0,0,17300000000.0,0.75216226,-8.018858182999999,2.5635449180000003,-0.607926811,0.213134603,-0.66131166,4.6902936330000005,-0.46267809200000004,-2.789782287,1.6733514722936464,0.13948126737361236,2.5600133840644435,2.929840860447172,3.029477841878166,3.3188178818409417,0.9611323958039538,1.3555766505495357,2.5618019050257166
347,347,17.4,-4.93,-16.9,-2.34,0.8540000000000001,1.69,0.524,-1.06,-9.12,-6.96,0,1,0,0,17400000000.0,-1.203693074,-12.21416889,0.47482375299999996,0.53472959,1.088785339,0.248352613,2.4777478,-4.477822926,-4.849738173,1.5651557033721657,0.1622244988909237,2.595485427052895,2.312198704766361,3.6586221642678187,2.6432529060853875,0.967031373032851,1.4583434467065177,2.5838384240460153
348,348,17.4,4.18,-4.52,-5.51,-1.36,1.58,-1.07,8.36,3.26,-9.78,0,1,0,0,17400000000.0,0.649426269,-8.579565225,-2.074480669,-0.946209767,1.38003226,-0.7634136340000001,4.741067344,-0.889128818,-7.2851317,1.5287440889892805,0.20246427066629363,2.4167754111511615,2.0998343340525567,2.893582081992588,2.1451892780858497,0.9077321603539966,1.627727505186925,2.346272082343856
349,349,17.5,-2.59,-13.9,-1.28,-1.92,2.48,-1.15,1.5,-5.57,-4.37,0,1,0,0,17500000000.0,-0.46561566,-11.09285426,-1.736062503,-1.70733379,2.032215961,-1.060098294,3.493998833,-3.0600515219999997,-5.845148635,1.425956712653517,0.21139784942863754,2.4106813524102724,1.8043328461882502,2.225763302783002,1.8511771684696174,0.7935640114294807,1.7162778054863927,2.2901717286639145
350,350,17.5,-2.9,-9.38,0.905,-1.94,1.2,-0.6920000000000001,1.07,-0.604,-0.935,0,1,0,0,17500000000.0,-1.303554407,-10.28372906,-0.611071649,-1.889188041,1.5387854490000001,-0.7776022159999999,2.5613145569999998,-1.920969144,-3.419690259,1.0811880664649085,0.18659985451879973,2.5335864314501593,1.7156295289866428,1.7730077700596134,1.862877284349565,0.5310068151023654,1.7384445034482314,2.4063060411685147
351,351,17.6,-0.11,-5.83,-0.18,-1.74,0.706,-1.14,3.5,3.25,-0.9790000000000001,0,1,0,0,17600000000.0,-0.8927213970000001,-8.179857877,-0.427451739,-1.772581203,1.045017235,-1.055723421,2.922493432,0.477254064,-2.214066327,1.118325281227807,0.11698741596748712,2.5910538189550767,1.4113996562033544,1.3310464353579434,1.5813338307016,0.5437147292287999,1.464847467877134,2.3409023877080966
352,352,17.6,-1.58,-8.44,-0.7020000000000001,-1.58,0.632,-0.983,1.57,0.8440000000000001,-0.609,0,1,0,0,17600000000.0,-1.129289377,-8.302744702,-0.544398729,-1.6220578680000002,0.8001345209999999,-0.99991201,2.402093291,0.647345694,-1.4212142580000002,1.5360333948693756,0.059660020688105275,2.483697286121496,1.2116433726643516,1.0721871829708762,1.1608606777146695,0.7490578855268549,1.0315983096661536,2.306592384079228
353,353,17.7,1.81,-10.0,1.8,-0.899,0.604,-1.48,4.44,-0.62,2.6,0,1,0,0,17700000000.0,-0.117557469,-9.104501252999999,0.45422478,-1.056908694,0.683844062,-1.368354276,3.186220582,0.059568474,0.56513856,1.2715788921925169,0.15931695771008247,2.6462609965560318,1.8130443209458473,1.4112390981637484,1.4979083076860122,0.6114045305459324,1.6486680924513786,2.42554985879595
354,354,17.7,-4.47,-9.92,-0.172,-1.01,0.69,-0.9420000000000001,-2.53,-0.40700000000000003,1.18,0,1,0,0,17700000000.0,-1.615710354,-9.489729996,0.18747715,-1.020244388,0.687493988,-1.041149799,0.9867850579999999,-0.156819465,0.86886067,1.3381498287841855,0.22567650914934795,2.5777318177446724,2.1873745113929837,1.5691490715510228,1.8625760195218972,0.6658142888532277,1.842424998688942,2.3041648489814555
355,355,17.8,-3.88,-12.6,-0.919,-0.171,0.447,-0.7509999999999999,-2.36,-3.06,0.7609999999999999,0,1,0,0,17800000000.0,-2.395100864,-10.95897252,-0.283839496,-0.356466596,0.544902298,-0.818475097,-0.300960516,-1.503273989,0.8155808940000001,1.3840238504270455,0.17221314378772243,2.4124077358078173,2.674914301383122,1.7272842505142394,2.1563664155258273,0.7414211716899662,1.59930359154985,2.153692287342653
356,356,17.8,-3.2,-13.1,1.87,0.0944,0.738,-0.0812,-1.97,-3.51,3.67,0,1,0,0,17800000000.0,-2.672154974,-11.97036021,0.633613144,-0.004064812,0.659392161,-0.252655287,-0.943158409,-2.4339654580000003,2.225573836,1.2307594308632872,0.12306210540462588,2.529616048665498,3.0930734745560606,2.150521077223856,2.7285353277481574,0.7499275797813298,1.3401005075115775,2.3293115330935397
357,357,17.9,-6.36,-11.8,2.88,1.51,0.531,1.32,-5.01,-2.19,4.41,0,1,0,0,17900000000.0,-3.9415470669999997,-11.88988483,1.59048744,1.179343179,0.583266964,0.954274871,-2.507960936,-2.320817715,3.304611308,1.6063483896107438,0.1149061765702347,2.6784599232201645,3.01996374766243,2.955840273375098,3.4421658823671426,1.027267076013354,1.215779672248174,2.5377167857056033
358,358,17.9,1.21,-13.0,5.32,2.91,-0.636,2.15,3.39,-3.45,5.7,0,1,0,0,17900000000.0,-2.16833456,-12.41428567,3.179116166,2.532041697,-0.13965061199999998,1.871931015,-0.238596955,-2.844516697,4.487857588,1.5617373631188902,0.15273788140587588,2.617868230307276,2.4211620604447357,3.467062441089423,2.554301213825603,1.0495218980470773,1.4121017079964107,2.441386989761905
359,359,18.0,0.7879999999999999,-21.6,-0.797,1.9,-1.65,1.19,3.83,-12.3,-1.89,0,1,0,0,18000000000.0,-1.1507355190000002,-16.75347198,1.485443883,2.038031651,-1.035154348,1.348584915,1.326880868,-7.229837771000001,1.337397341,1.4781236204022736,0.21374494426383212,2.4638611384318114,1.9414950820878634,2.6884105682811112,2.0739202207714658,0.9810569871511561,1.6852069105619676,2.26560979131638
360,360,18.0,-1.39,-14.2,-0.0982,2.05,-1.04,1.92,2.29,-5.39,-2.29,0,1,0,0,18000000000.0,-1.23309267,-15.54725212,0.810872606,2.047386193,-1.0380273690000001,1.78711587,1.6974611019999999,-6.376546668,-0.454422384,1.3087119653203338,0.2087149190581698,2.40891260232978,1.6712652212365988,2.1700077110547173,1.8058388566712806,0.8006672325862194,1.6684050823096992,2.3056197096760878
361,361,18.1,-1.37,-9.36,-0.733,1.4,-0.7859999999999999,1.62,3.0,-1.15,-3.84,0,1,0,0,18100000000.0,-1.280217503,-12.62449194,0.15324236900000002,1.541382737,-0.888597413,1.658863243,2.198640211,-3.95254737,-2.126790777,1.0394862058440655,0.17712482849283107,2.5894885389056115,1.5180970648049,1.7022548540827187,1.710142411022451,0.5692793209189769,1.6426565753840163,2.5572641240309917
362,362,18.1,1.65,-4.01,-1.16,1.11,-2.08,1.09,6.33,3.66,-5.09,0,1,0,0,18100000000.0,-0.271608211,-8.555142344,-0.406148267,1.2042097440000001,-1.594993844,1.222290686,3.788267348,-0.42195427,-3.5905226389999996,1.1526069079513659,0.10671893058189823,2.453349122759374,1.2471217886550872,1.3019974884408096,1.4469911565292304,0.5882982639657018,1.3279039858390473,2.361987904090183
363,363,18.2,1.55,-1.49,-1.81,0.396,-2.35,0.545,6.04,5.79,-6.59,0,1,0,0,18200000000.0,0.355406997,-5.21768088,-1.004134991,0.57250503,-2.042645734,0.702505763,4.65466861,2.4590632709999998,-5.072169816000001,1.585217738235735,0.0654684346604723,2.4488863892535173,1.1873346440209487,0.8980102650962407,1.1051752053841128,0.7719223030648624,1.0468015890382334,2.3597502826739514
364,364,18.2,2.05,-0.9359999999999999,-2.08,-0.847,-0.968,0.111,6.21,6.3,-7.23,0,1,0,0,18200000000.0,0.938702337,-3.1950825660000004,-1.462411999,-0.536994112,-1.405475754,0.24855623899999998,5.253114937,4.240436125,-6.138069797999999,1.2471367678865335,0.17802528110451163,2.554793375079369,1.9116741637004764,1.3983949155646176,1.561190345262377,0.5985347894279974,1.7451553201387913,2.350719193001236
365,365,18.3,1.3,-6.3,4.07,-2.09,-0.0428,-0.8,5.26,1.33,-0.662,0,1,0,0,18300000000.0,1.063064483,-4.66179653,0.894182423,-1.7508387730000001,-0.597529423,-0.5561554679999999,5.2557641969999995,2.890616553,-3.433064237,1.3917386715188258,0.24286353765774543,2.637273712380512,2.1896738815424923,1.4794171771665225,1.9824602647199703,0.6738597667616669,1.8955239127581236,2.1603501333870656
366,366,18.3,-14.6,-30.4,15.0,1.32,-1.34,-0.508,-11.1,-22.4,10.6,0,1,0,0,18300000000.0,-4.328314446,-16.82011648,6.902717215,0.649359158,-1.0377488990000001,-0.519198694,-1.037458623,-8.83881771,3.4988265610000004,1.4523495552122356,0.17550565307313978,2.4196135433284542,2.6854997109891228,1.6170600973529343,2.328004907690332,0.7341561131768525,1.6048145106441003,2.0500850843383747
367,367,18.4,1.53,-3.31,2.21,1.28,-1.15,0.9890000000000001,5.0,4.28,-2.93,0,1,0,0,18400000000.0,-2.3118257719999997,-10.43815116,4.903800508,1.142274241,-1.104303871,0.6382644000000001,1.285579973,-2.7544933360000003,0.32318921100000003,1.3068035035690575,0.13201920313865495,2.5670366239187543,2.7761853379812105,2.060958168569145,2.798717892222079,0.7547579831208976,1.3713705918696963,2.335388476393768
368,368,18.4,0.948,-11.1,1.06,-1.1,1.14,-1.61,4.46,-3.54,-4.07,0,1,0,0,18400000000.0,-1.189762101,-10.75079826,3.266489568,-0.610309453,0.22637003600000002,-1.087160146,2.5070045480000003,-3.118800329,-1.84690762,1.657437099794938,0.12780725822229352,2.561123465083435,2.6611843500229764,3.0953852608225385,3.216178585015111,1.0192329457253793,1.273548597556796,2.439587489059229
369,369,18.5,-1.11,-6.72,-3.99,0.177,1.07,0.535,2.57,1.0,-8.8,0,1,0,0,18500000000.0,-1.162307217,-8.846712834,0.1755046,0.005059386,0.726568102,0.157762365,2.531243341,-1.20855831,-5.2815157919999995,1.6584314241268592,0.16069566119538842,2.461070023279992,2.414594784583848,3.544462262236242,2.234502146331548,1.025884999097883,1.4459072079634971,2.301307587648631
370,370,18.5,2.4,-4.86,-3.76,-1.72,2.49,-1.06,6.32,3.1,-7.94,0,1,0,0,18500000000.0,0.063873531,-6.963452827,-1.500868721,-1.343264077,1.7721274269999998,-0.77680608,3.989046847,0.789690764,-6.594723072000001,1.5358399724295198,0.21909829967386596,2.3737559158083195,1.9195942683443872,2.508772409742252,1.933798978550476,0.9347454459864191,1.7832138612873616,2.241566478676019
371,371,18.6,-6.02,-17.2,-1.69,-1.76,2.33,-0.988,-2.08,-8.72,-4.62,0,1,0,0,18600000000.0,-2.0302547730000002,-11.79903612,-1.5814313830000002,-1.66898898,2.102896531,-0.938886274,1.65385405,-3.620771008,-5.619272174,1.3554668143474753,0.21256305747748247,2.194013998872353,1.7170842158721609,2.0174049834103736,1.788836652861779,0.7564350745204484,1.787590970526074,2.095685793762508
372,372,18.6,-0.18,-8.23,0.6920000000000001,-2.0,1.07,-0.863,3.61,0.628,-1.11,0,1,0,0,18600000000.0,-1.3933791269999998,-10.11307971,-0.613037221,-1.92771046,1.490480174,-0.8806475359999999,2.406522115,-1.650250395,-3.3918341169999997,0.9681503722686364,0.16741226821049368,2.4971497898467976,1.6013751300200387,1.4862320694748008,1.7115177169960947,0.5057848187690982,1.7099616650562584,2.379344423183117
373,373,18.7,-0.79,-6.6,-0.5670000000000001,-1.78,0.635,-1.11,2.57,2.58,-1.33,0,1,0,0,18700000000.0,-1.185690183,-8.453556387,-0.593427127,-1.812258484,0.983256005,-1.056663486,2.469423628,0.311680572,-2.373353191,1.1072550764912086,0.0985314845114007,2.3108425579384844,1.2860091672587894,1.1623707616020904,1.4487410849329414,0.5817068280793788,1.347504938521845,2.151402937817733
374,374,18.7,-0.63,-8.94,-1.46,-1.64,0.636,-0.991,2.28,0.42200000000000004,-1.34,0,1,0,0,18700000000.0,-0.994416228,-8.683344456,-0.962553798,-1.677619542,0.77736386,-1.0062702159999999,2.39653891,0.362845176,-1.862909361,1.5949279618578163,0.06706380948069826,2.5080170927531964,1.2510835350442375,0.8699935908604524,1.1465044062773484,0.8157250786943581,1.0913863313862433,2.3709773738968316
375,375,18.8,2.12,-9.76,2.04,-1.09,0.62,-1.36,4.5,-0.289,2.92,0,1,0,0,18800000000.0,0.077596022,-9.19193961,0.31641841600000004,-1.218330335,0.684060997,-1.2777392090000002,3.205889599,0.060528492999999996,0.49969687,1.2076787073248647,0.19177012734383914,2.6354872378329124,1.8640104663432628,1.4355298115985595,1.5213554695764775,0.6457023104563008,1.8695380122033263,2.391346407167852
376,376,18.8,-6.74,-10.0,-1.11,-0.9279999999999999,0.685,-0.82,-5.05,-0.474,0.298,0,1,0,0,18800000000.0,-2.269086611,-9.573654553999999,-0.29118087600000003,-0.9914052590000001,0.6846177440000001,-0.926448465,0.02926317,-0.187378354,0.400064989,1.2974132968035716,0.2325936186908504,2.5701789395832493,2.1415009581458855,1.4889314681449852,1.9194809345638144,0.70826380856372,1.9251691250707361,2.143170821235139
377,377,18.9,-2.53,-12.5,-0.156,-0.00458,0.634,-0.65,-1.16,-2.94,1.55,0,1,0,0,18900000000.0,-2.358895522,-10.95601385,-0.233599033,-0.220092898,0.654605896,-0.7142888070000001,-0.42833071799999994,-1.4640058230000002,0.9680965490000001,1.3507002793788498,0.1527506592105897,2.381459545316042,2.737226372116972,1.6746614465550025,2.289770408535371,0.7571782092002654,1.4721081698037441,1.9721928417766532
378,378,18.9,-4.85,-13.0,1.29,0.317,0.6990000000000001,-0.0799,-3.79,-3.44,3.0,0,1,0,0,18900000000.0,-3.216357825,-11.92156057,0.415395435,0.19970421300000002,0.680927678,-0.227428801,-1.721803334,-2.3804443280000003,1.971792692,1.3168422174005858,0.13738861875989403,2.7529933433614433,3.193692128531568,2.1781227651960378,2.7615337769004613,0.8680574887974402,1.5168360137717918,2.429413303979543
379,379,19.0,-6.47,-12.5,1.96,1.62,0.0299,1.43,-5.21,-2.88,3.34,0,1,0,0,19000000000.0,-4.336292965,-12.194806199999999,1.073337483,1.30982142,0.29492578199999997,1.044560485,-3.063960039,-2.612131319,2.6476438559999997,1.4679857733025226,0.12570161186348652,2.699361223508367,2.7481340210506424,3.07404826590826,3.4441210880879147,1.0466522975122219,1.3335758118345704,2.468261237375392
380,380,19.0,2.8,-13.5,4.15,2.88,-0.7120000000000001,2.17,4.93,-3.92,4.38,0,1,0,0,19000000000.0,-1.8799116880000002,-12.8113591,2.383877212,2.537088583,-0.302092254,1.9082761069999998,0.011883369,-3.218702567,3.503373145,1.4959260220833277,0.15915649777410545,2.486587292848957,2.334951731585969,3.383340703126887,2.3336799534283075,1.0456532316549239,1.508008693501939,2.21621538719561
381,381,19.1,1.87,-20.8,0.0383,1.93,-0.941,1.16,4.83,-11.6,-1.14,0,1,0,0,19100000000.0,-0.5891556920000001,-16.58506632,1.384751695,2.062582114,-0.680908092,1.334013573,1.8657545780000002,-7.105831338,1.209693443,1.4142512710372706,0.21947258365684658,2.5245337163439374,1.819994373436292,2.3841972105638694,2.0066600169642568,0.9398806646835747,1.7991770428601201,2.2220477705657276
382,382,19.1,-2.39,-13.2,-0.11,2.02,-0.856,1.84,1.26,-4.36,-2.28,0,1,0,0,19100000000.0,-1.209023816,-14.98601445,0.748045066,2.029299499,-0.784722128,1.722331536,1.632677819,-5.832353207000001,-0.51410491,1.3267833344287088,0.2165264569232691,2.337092619345697,1.5955515459074276,1.9681684351846471,1.759641874983426,0.7824840945239111,1.8072725842978792,2.2265561555680815
383,383,19.2,-1.96,-8.63,-0.754,1.33,-0.93,1.54,2.37,-0.375,-3.79,0,1,0,0,19200000000.0,-1.467517119,-11.98353384,0.10823173800000001,1.482720143,-0.870859075,1.582401654,1.91637792,-3.3013090739999997,-2.1322936219999997,1.054258535847581,0.16724259014523427,2.520476764635534,1.4319127914749368,1.4653388573774604,1.600450319656118,0.5609189134163096,1.6836806451020492,2.466176432263497
384,384,19.2,1.16,-4.41,-1.34,1.07,-2.24,1.06,5.75,3.34,-5.23,0,1,0,0,19200000000.0,-0.563100239,-8.405916197,-0.5086591970000001,1.1601340470000001,-1.6826386880000002,1.18148585,3.39144427,-0.221162799,-3.6624627660000004,1.1261846604683152,0.09486077938082695,2.297777547414449,1.1051400717703634,1.1321834459976425,1.3084909722897466,0.6002775347262005,1.325460780787238,2.1361679115197636
385,385,19.3,1.81,-2.32,-1.83,0.22399999999999998,-2.4,0.601,6.2,5.07,-6.55,0,1,0,0,19300000000.0,0.253743873,-5.531025637000001,-1.071499486,0.42844244299999995,-2.107970625,0.735993536,4.472094809,2.232804626,-5.088815073999999,1.5700704842740305,0.07699684057717548,2.45259793860821,1.378319516278655,0.8706292535221848,1.1827495096033653,0.8114224513943032,1.192094516116997,2.3735535443814686
386,386,19.3,2.0,-1.13,-1.64,-1.02,-1.08,0.326,6.1,6.22,-6.68,0,1,0,0,19300000000.0,0.854822179,-3.4520507510000003,-1.313658795,-0.70367445,-1.4984748890000001,0.421345091,5.098465374,4.082010008999999,-5.874810097,1.2772762590288658,0.2092668058594259,2.528110680162738,1.968114933124896,1.3311850214781322,1.6053329399693488,0.677580921521732,1.9430694931232833,2.303088554972923
