,Time (s),Acceleration x (m/s^2),Acceleration y (m/s^2),Acceleration z (m/s^2),Gyroscope x (rad/s),Gyroscope y (rad/s),Gyroscope z (rad/s),Linear Acceleration x (m/s^2),Linear Acceleration y (m/s^2),Linear Acceleration z (m/s^2),Still,Walk,Run,Cycle,SPM/RPM,Timestamps,Acceleration x (m/s^2)_kalman,Acceleration y (m/s^2)_kalman,Acceleration z (m/s^2)_kalman,Gyroscope x (rad/s)_kalman,Gyroscope y (rad/s)_kalman,Gyroscope z (rad/s)_kalman,Linear Acceleration x (m/s^2)_kalman,Linear Acceleration y (m/s^2)_kalman,Linear Acceleration z (m/s^2)_kalman
0,0.0459,2.66,4.06,8.37,-0.289,0.5660000000000001,0.165,-0.0585,-1.43,0.7120000000000001,,,,,150,45900000.0,1.0662011341667554,2.484215656693027,5.093237461989914,-0.3080332781850651,1.1044182216925205,0.17621074185840438,-0.44610888749872024,-0.9049673451039154,-0.16915588405784662
1,0.0959,0.39,4.38,5.61,-0.317,1.63,0.39,-2.08,-0.9790000000000001,-2.22,,,,,150,95900000.0,0.9219049883661425,3.2750389847342016,5.20305726566661,-0.31419737113408364,1.1940916730468194,0.3102668762681974,-0.8661054380275608,-0.93566152790873,-0.7119015817994017
2,0.146,1.57,2.17,4.92,-1.2,3.84,0.134,-0.0709,-2.89,-3.32,,,,,150,146000000.0,1.1320582513086421,2.6888840426771754,5.1123326586062,-0.9630836339074815,1.8589688204007562,0.18845311760021632,-0.5683719331056173,-1.9679905971871223,-1.7040455075698677
3,0.196,-3.98,3.74,12.8,0.526,2.48,-0.42700000000000005,-3.77,-0.826,4.11,,,,,150,196000000.0,-0.7663574363013734,3.271365942084305,7.933490955778559,0.1324771151286317,2.041508249103607,-0.24055932779546363,-1.9040872430786835,-1.3373530941656484,0.7487587849266975
4,0.24600000000000002,-1.94,3.73,8.1,0.11,0.966,1.81,-1.36,-1.08,-0.42200000000000004,,,,,150,246000000.0,-1.22341778158311,3.5276602240852917,7.997606380524455,0.11593506873287981,1.7031878314117606,1.1899446822615591,-1.669379749008954,-1.1940105790367856,0.23899811144150152
5,0.29600000000000004,-1.89,3.03,8.09,-0.76,2.69,1.01,-1.12,-1.71,-0.465,,,,,150,296000000.0,-1.4874528179041522,3.2491063442631094,8.033808029855848,-0.5287234319200279,2.023042255502669,1.0644032643998607,-1.42989057508255,-1.4818915760554818,-0.07054435276061921
6,0.34600000000000003,-1.07,2.06,10.0,-0.9129999999999999,0.5529999999999999,1.44,0.248,-2.38,1.39,,,,,150,346000000.0,-1.3210879623716971,2.583322604008743,8.809098262687856,-0.8115383615568261,1.5401798052673068,1.3264463590189008,-0.696031809066227,-1.9831281704836234,0.5736041446642227
7,0.396,-2.91,3.0,8.38,-0.757,0.759,0.7290000000000001,-1.48,-1.08,-0.428,,,,,150,396000000.0,-1.9556968909177768,2.8166355213531955,8.639508734977282,-0.7713999351775821,1.2820626744382224,0.9096249241789085,-1.039273787315287,-1.479058007504215,0.13144415145657645
8,0.446,-1.92,1.9,9.59,0.14800000000000002,0.455,0.5329999999999999,-0.345,-2.03,0.746,,,,,150,446000000.0,-1.941428337372828,2.303371710151712,9.015482053357752,-0.09475169017140028,1.0080623762329382,0.6468643541999085,-0.7352022478619669,-1.7865635013726684,0.4028212091031838
9,0.496,-2.3,-0.836,9.39,-0.5820000000000001,0.6509999999999999,0.271,-0.506,-4.74,0.5770000000000001,,,,,150,496000000.0,-2.0847950593294415,0.5454979513431732,9.1636709386544,-0.45335050251482634,0.8896306064785687,0.38463441490786027,-0.6348079410584401,-3.435013146521011,0.47974260355339615
10,0.546,1.92,-3.32,7.2,-2.27,0.665,0.19699999999999998,4.06,-6.73,-1.74,,,,,150,546000000.0,-0.48340479971093897,-1.618967064396191,8.386600844406088,-1.7903450273464618,0.8150851350384134,0.253727184054402,1.4216615501435195,-5.2740988828222255,-0.5005752809048758
11,0.596,-0.929,-3.89,6.8,-3.09,-0.309,0.455,1.06,-6.05,-2.55,,,,,150,596000000.0,-0.6615907343411389,-2.890620065465672,7.758720480040418,-2.7468484632081003,0.44196094376721656,0.39414954887973513,1.2632410576235948,-5.70716560371472,-1.4056827700647476
12,0.6459999999999999,1.71,-7.03,9.28,-2.63,2.09,-1.33,3.99,-7.68,-0.24,,,,,150,646000000.0,0.2867805845561534,-5.2084442345916635,8.36075961922849,-2.660851905041946,0.989061458034769,-0.8087408965211822,2.457661207664108,-6.808296450194346,-0.8908694312143539
13,0.696,-5.76,-5.44,8.26,-1.86,2.76,-3.51,-2.36,-4.72,-0.907,,,,,150,696000000.0,-2.131267659816029,-5.338102701607117,8.3208843441515,-2.0714511395981123,1.5769884628059299,-2.693333028270845,0.34734725910609177,-5.642720626162284,-0.8979933607111313
14,0.746,-14.2,-3.2,6.55,-1.75,2.71,-3.21,-9.81,-0.9990000000000001,-1.93,,,,,150,746000000.0,-6.957443391502643,-4.140883346662552,7.6200599978088075,-1.8348736276719027,1.953140410875251,-3.053796999953854,-4.101948578231516,-3.0508434337092454,-1.3537703310328593
15,0.7959999999999999,-13.3,-3.16,5.48,-2.43,0.6829999999999999,-0.8,-8.47,0.38299999999999995,-2.27,,,,,150,796000000.0,-9.4937754847814,-3.5916429148267905,6.77313433793943,-2.272867197756393,1.5314587344203336,-1.4813865341330699,-6.015317778170367,-1.134255166363315,-1.7584154317800835
16,0.846,-11.6,-5.61,7.77,-2.91,2.09,-0.737,-6.45,-0.9520000000000001,0.833,,,,,150,846000000.0,-10.336036289497194,-4.721811442197158,7.1676425880928925,-2.7417761386779453,1.7168930070555786,-0.962049077788661,-6.2057246910046775,-1.032530064560998,-0.6139386207463606
17,0.8959999999999999,-12.0,-5.58,6.82,-1.74,2.0,0.652,-6.31,-0.00403,1.14,,,,,150,896000000.0,-11.001440790555455,-5.202349576565732,7.030063551547344,-2.0045017135955012,1.8108839935559637,0.16402735743801466,-6.251401133920385,-0.45847617925424844,0.1606736053080332
18,0.946,-12.6,-1.86,8.04,-1.92,2.1,1.06,-6.13,3.93,3.51,,,,,150,946000000.0,-11.640690776048848,-3.3308184879244696,7.429744593532041,-1.9423111880502386,1.906870008796637,0.7891221098758242,-6.19822296690761,1.9909372202105042,1.6398754223590393
19,0.996,-5.03,-0.905,5.59,-0.474,1.09,2.38,-5.3,3.58,4.44,,,,,150,996000000.0,-8.997133465673414,-1.9724941461621934,6.701668075867222,-0.8616822426966648,1.6356703971389608,1.8990327351471432,-5.8047679443730456,2.877867275276887,2.8765269083196086
20,1.05,-3.19,-0.828,4.69,-0.0565,0.21100000000000002,0.883,4.74,4.0,1.54,,,,,150,1050000000.0,-6.67491162242421,-1.3316406631691415,5.905553017681336,-0.2690944792960914,1.1626818740665223,1.190175420423507,-1.185767034439464,3.504181917953469,2.2862610272195756
21,1.1,-10.1,-3.74,11.5,1.04,-0.852,0.7070000000000001,-2.1,0.795,8.05,,,,,150,1100000000.0,-8.04457465281039,-2.680188834264418,8.119548294865691,0.6943561594252061,0.49381034280676606,0.8530775961992577,-1.5862350744837803,1.9920610635734048,4.831767936034206
22,1.15,-12.0,-2.46,0.541,1.19,0.18,-0.22,-3.92,1.55,-3.35,,,,,150,1150000000.0,-9.626314645921141,-2.5568952739625868,5.1203474484969576,1.0591338369547028,0.3896257519250595,0.10442168353885173,-2.608511046722385,1.7453261267533988,1.2183590057561688
23,1.2,-17.1,-5.78,3.0,-0.131,-0.462,1.35,-9.03,-1.96,-1.11,,,,,150,1200000000.0,-12.614976190078735,-4.361655960127871,4.281222642087242,0.1832343092401688,0.10688718962807081,0.9734264912884297,-5.421362205656332,-0.32278933039309887,0.19005883397314882
24,1.25,-8.45,-5.55,4.22,-0.982,-0.701,1.87,-0.204,-2.42,-0.0738,,,,,150,1250000000.0,-10.949438571438849,-5.027063072747385,4.256993776301363,-0.6743399785860241,-0.16133022057908059,1.5989404943060688,-3.1359632811105285,-1.493340522775888,0.07352780097383835
25,1.3,3.74,-8.2,2.5,-0.45799999999999996,0.364,0.78,12.2,-5.54,-1.66,,,,,150,1300000000.0,-5.075260588923559,-6.803732339103174,3.5616657235256546,-0.5151208421637401,0.01307867688627512,1.0275888348816655,3.581759611509544,-3.751970009982781,-0.692070152716056
26,1.35,6.55,-2.83,3.33,-0.33799999999999997,0.0128,-1.36,15.0,-0.0306,-0.715,,,,,150,1350000000.0,-0.42642050310374824,-4.5786617368742535,3.4699842778325496,-0.3847657022984107,0.012986156441565715,-0.6381644314828256,8.583374078054739,-1.6748997342392524,-0.7021969152684439
27,1.4,-5.85,-8.83,3.82,-0.46299999999999997,-1.35,-6.04,1.99,-4.71,-0.402,,,,,150,1400000000.0,-2.595262459289871,-6.959176233270533,3.608502528382917,-0.4423435830546191,-0.43952335365773043,-4.406872424126832,5.6952307212474915,-3.368930859477687,-0.5696174777402792
28,1.45,-22.6,-7.82,2.59,-1.97,1.13,-4.03,-16.4,-1.41,-1.51,,,,,150,1450000000.0,-10.594982149195623,-7.4411900778834115,3.205431413930347,-1.5666486995940339,0.08155620837513844,-4.143939330676989,-3.9833029187073175,-2.2755601064857407,-0.9849295026670167
29,1.5,-9.64,-10.3,1.93,-0.0828,1.69,-2.12,-4.29,-2.73,-1.27,,,,,150,1500000000.0,-10.213093279385655,-9.04196579061464,2.7006810329410382,-0.474584650141765,0.6155573221531213,-2.731893976730311,-4.1176476439585645,-2.5292042300368154,-1.110828480977413
30,1.55,3.32,-12.4,1.1,0.636,-0.21100000000000002,-0.96,8.11,-4.48,-2.17,,,,,150,1550000000.0,-4.801327693673188,-10.922279201460805,2.0672135590069556,0.3427692666632667,0.3411414458689122,-1.495693608254569,1.2385171896639937,-3.6180344019284485,-1.578602704811135
31,1.6,0.462,-7.96,0.304,-1.51,-0.9209999999999999,-1.97,4.69,0.3,-2.87,,,,,150,1600000000.0,-2.6965689885854776,-9.263566537179361,1.3694240312537835,-1.0208082324626333,-0.07788775456629454,-1.8266037937474329,2.750395207121648,-1.4311965441249943,-2.148937404643129
32,1.65,0.306,-7.38,1.56,-0.8959999999999999,-1.99,-6.28,2.76,1.72,-1.13,,,,,150,1650000000.0,-1.4958679193704878,-8.20887340828584,1.4448442059048583,-0.9289534809196335,-0.7127063555651687,-4.933612619406872,2.754602459874695,0.3276333268631686,-1.6989322705079304
33,1.7,-0.0311,-6.58,3.35,-2.7,-5.51,-6.04,-1.04,2.97,1.39,,,,,150,1700000000.0,-0.9101200422059762,-7.296794252868814,2.198807151091221,-2.232385756177191,-2.3054012286495684,-5.705507801515689,1.0924253010863298,1.8024615001824915,-0.3347313279888784
34,1.75,-1.04,-6.98,-0.563,-1.21,2.57,-4.56,-4.91,2.01,-1.17,,,,,150,1750000000.0,-0.9620578858591309,-7.119406984958583,1.1058254736984225,-1.4799433485911495,-0.6867748447246866,-4.9063193407445445,-1.5368604238271886,1.91829841725833,-0.7036206905771654
35,1.8,15.2,-23.3,-5.71,2.3,-3.14,2.79,10.8,-14.6,-7.12,,,,,150,1800000000.0,5.501007597733423,-16.179644661583097,-1.5915288056495287,1.3019711360451207,-1.5012422085343653,0.4631851372364837,3.8671439080269554,-7.301335037690827,-3.5373605784548623
36,1.85,0.285,-9.97,5.06,-1.36,-0.847,0.517,-3.55,-0.972,4.33,,,,,150,1850000000.0,3.4151717885745985,-12.702586886106904,1.0408052384952402,-0.6571524569107368,-1.2840347090041238,0.5007302598080822,0.6181587080184263,-3.768637769907292,-0.0628070039525177
37,1.9,0.654,-8.0,-0.175,0.469,3.6,0.19899999999999998,-2.97,1.07,-1.01,,,,,150,1900000000.0,2.3110033392755946,-10.069398049797698,0.5596518625511817,0.17165888095677972,0.3374579688575077,0.2902215851596296,-0.9535884294367609,-1.0679681860127346,-0.48112681732836154
38,1.95,2.64,-12.1,-1.24,0.243,-2.12,-0.654,-0.919,-3.02,-2.53,,,,,150,1950000000.0,2.442566267725549,-11.206423163897988,-0.15255807740055427,0.22416360883421393,-0.4784146103344119,-0.36853511994709487,-0.9384374223382295,-2.1574882304677567,-1.3859944078233717
39,2.0,0.919,-11.1,2.89,1.33,-0.9079999999999999,-0.638,-3.1,-2.2,1.8,,,,,150,2000000000.0,1.8333054575256154,-11.146832285641818,1.0515304543469042,1.038023010606271,-0.6210363578427675,-0.556533159615675,-1.8852822788087644,-2.1812160596474253,0.021073196276757633
40,2.05,1.93,-11.3,5.33,2.15,1.35,-0.159,-2.24,-2.62,3.42,,,,,150,2050000000.0,1.8719727381841436,-11.232597849902508,2.744729306368403,1.8564017301860227,0.03334497102360323,-0.2791855046052677,-2.040661853347916,-2.426121790567924,1.5221806562936275
41,2.1,2.75,-17.1,4.76,3.88,0.573,-0.0635,-1.32,-8.86,1.42,,,,,150,2100000000.0,2.223088159038463,-14.51801909111335,3.5422702113460787,3.3457038726001174,0.21250969234555978,-0.12870782476925907,-1.7249851495642998,-6.017169291416257,1.4770534101754198
42,2.15,11.0,-8.13,-8.23,2.84,0.13,-0.0482,7.04,-0.6809999999999999,-13.2,,,,,150,2150000000.0,5.732898422181268,-10.94108140492196,-1.116590574083057,2.973522319887719,0.18511658801552727,-0.07253979064818429,2.114404707432781,-3.038804172064067,-5.004943660222114
43,2.2,5.31,-1.21,4.4,3.58,-0.0935,0.5660000000000001,1.46,5.56,-1.56,,,,,150,2200000000.0,5.5637850198630945,-5.492213485881468,1.06659316848673,3.4198699754900383,0.09261626843227656,0.37295136538599455,1.8277510944842956,1.7605897035250564,-3.4835132511145357
44,2.25,0.35700000000000004,-5.66,0.44799999999999995,-2.22,1.11,1.52,-3.36,0.746,-5.98,,,,,150,2250000000.0,3.481637237674348,-5.586164578071322,0.8217857141301762,-0.7308896541863161,0.4303862526789936,1.17321476863747,-0.44467701313170327,1.1942998353987253,-4.586065628233527
45,2.3,3.65,-10.5,-0.29,-4.37,0.8640000000000001,2.18,1.16,-2.78,-5.83,,,,,150,2300000000.0,3.548964071596209,-8.337640922869939,0.3817979348059193,-3.4091556116184285,0.5743454192823516,1.8756204191923809,0.25823125670613556,-1.023942364063526,-5.135438744108029
46,2.35,5.05,-3.16,1.61,-3.3,-0.255,0.804,3.26,5.73,-2.12,,,,,150,2350000000.0,4.149215284296521,-5.438448120969952,0.8678573459929639,-3.3288206209798763,0.2990038987087695,1.1279811508902693,1.5731177377368417,2.7457480808849497,-3.8036955423332115
47,2.4,4.0,0.594,-3.36,-2.35,1.57,-0.504,2.42,9.93,-5.91,,,,,150,2400000000.0,4.0895453974694105,-2.0606104786781603,-0.8053117810487607,-2.6084406279744443,0.7209728485460877,-0.01060598364491283,1.9440837370390733,6.755614530386698,-4.733927117483659
48,2.45,-0.0958,-1.07,-7.34,-4.77,2.34,-0.649,-1.85,8.51,-8.53,,,,,150,2450000000.0,2.4158623882217602,-1.5059233716357956,-3.3914063946128943,-4.199277525431289,1.2584875755790044,-0.45599544006848924,0.2821337710147662,7.734819064450194,-6.410430650223755
49,2.5,6.49,-29.3,-19.5,-5.06,-0.532,-0.42100000000000004,4.42,-19.8,-18.3,,,,,150,2500000000.0,4.0450742863302205,-17.069070221848794,-9.766361830349052,-4.832741037833028,0.6640481967091486,-0.43158011317187583,2.0946732927767036,-7.633648056879672,-11.661358584864317
50,2.55,-10.5,-45.0,9.18,2.64,-5.97,-1.41,-12.6,-35.7,11.2,,,,,150,2550000000.0,-1.7713736777572926,-32.70884770195215,-2.2683631073011723,0.6669517273805168,-1.5384464795794202,-1.1141959945932212,-4.342140956147981,-23.298789335660558,-1.5648319919258196
51,2.6,2.84,-5.49,7.49,1.17,3.34,1.37,0.499,3.86,9.3,,,,,150,2600000000.0,0.07267428050003644,-17.467796713523764,1.5934965931546792,1.0371787507193646,0.08119091707594084,0.6189573503118735,-2.221540944112964,-8.140201587685246,3.2335297313310374
52,2.65,-2.43,-3.52,5.7,3.92,-2.31,0.8079999999999999,-4.3,6.09,6.21,,,,,150,2650000000.0,-0.9281232971073254,-9.657801164926859,3.218640019124315,3.158840840282716,-0.7126811123728471,0.7508470842460642,-3.131983488877483,-0.19766188466205126,4.548062800091113
53,2.7,3.52,-6.19,0.371,4.44,-1.67,0.36200000000000004,2.03,3.37,-1.21,,,,,150,2700000000.0,0.8506422887684053,-7.716024142086412,2.0916900993906498,4.101732068801609,-1.0305096332324764,0.47955945447562043,-0.87084251859556,1.7936166491302232,2.0050627924883035
54,2.75,3.62,-7.34,0.764,4.53,0.996,-1.67,1.73,1.62,-2.74,,,,,150,2750000000.0,1.9580841648695062,-7.505471483451399,1.5662584302738378,4.416923395742646,-0.357711264935892,-1.0201274000138523,0.26842335942238593,1.6967130973662974,-0.09055427189889231
55,2.8,-2.74,-33.8,-0.6659999999999999,1.33,2.5,2.23,-4.14,-25.7,-6.02,,,,,150,2800000000.0,0.07936140323887497,-22.228954241713872,0.6828449916233212,2.1450488980138958,0.5910448881427595,1.247394651066894,-1.6626301681933064,-13.594671490106716,-2.7092440824726856
56,2.85,0.91,-8.18,1.85,1.64,-3.39,0.17600000000000002,0.316,-0.266,-3.91,,,,,150,2850000000.0,0.41152652199023104,-14.362316247888316,1.1447451114761225,1.7733494377884589,-0.7306564954716441,0.499912880167949,-0.7959164707048134,-6.155317894838303,-3.2395478689111936
57,2.9,2.1,4.8,-4.1,-1.39,-2.13,-0.983,0.27899999999999997,12.6,-9.79,,,,,150,2900000000.0,1.086732256629613,-3.632477768331963,-0.9308560594610311,-0.5547721451573735,-1.19523662470252,-0.5346735152866396,-0.3250630241456398,4.312900530401945,-6.132499924163522
58,2.95,4.11,-1.08,-4.63,-2.74,4.65,0.866,2.38,7.11,-9.75,,,,,150,2950000000.0,2.2957106324859806,-2.203231267570517,-2.3947876154088306,-2.1630282919330055,0.7453738114928423,0.44253681070126616,0.8598553578944297,5.874092357230165,-7.7301383971695286
59,3.0,-4.13,-9.16,21.4,-0.325,3.52,1.6,-4.37,-0.302,17.2,,,,,150,3000000000.0,-0.27387488189698006,-6.098637307880965,7.021969175106783,-0.8102996516819243,1.666545828779305,1.2500661843798115,-1.4310159807371425,2.4269269872425494,3.2800478155768493
60,3.05,3.05,-4.02,2.09,-0.28600000000000003,-3.2,-0.7809999999999999,3.96,4.6,-2.49,,,,,150,3050000000.0,1.0553135864294536,-4.934715250376286,5.070148611554773,-0.42443228753099066,0.05085938726002559,-0.1669513067885764,0.930449778611476,3.6398203979584105,0.7317547393550003
61,3.1,1.13,-25.9,-2.69,-2.76,2.91,-3.11,0.95,-16.7,-6.16,,,,,150,3100000000.0,1.085180027938844,-16.67411615573066,1.9990796436477796,-2.1433336321824155,1.0000901103111746,-2.220233135739978,0.9390134983415047,-7.7127830346139925,-2.311930690779724
62,3.15,-2.43,-14.2,4.01,-2.21,-0.46399999999999997,-0.621,-3.2,-4.74,1.38,,,,,150,3150000000.0,-0.3205097404806436,-15.28874769768256,2.794898908179006,-2.192397923794123,0.5140142407172502,-1.1044933659100429,-0.8740285575865375,-6.053533957914306,-0.6814205650047271
63,3.2,-13.5,-35.5,18.1,-4.51,-1.23,-1.02,-14.8,-25.8,17.1,,,,,150,3200000000.0,-5.590872598629623,-26.60593230675842,8.851873354354034,-3.898077323959233,-0.06499606040583761,-1.0455447190060987,-6.974122688664066,-17.074957781451587,7.171594393739564
64,3.25,0.445,-6.55,9.67,0.0754,1.11,-1.33,-1.25,3.11,9.93,,,,,150,3250000000.0,-3.1771799522343382,-15.375718420501272,9.175645964236478,-0.9737281344772737,0.3251009971253707,-1.2440011597362453,-4.466743804193845,-5.8087908868462375,8.389821156943897
65,3.3,-6.18,0.366,5.07,1.32,1.16,1.09,-8.06,9.99,4.88,,,,,150,3300000000.0,-4.3779813514614965,-6.561225843477693,7.550841862540665,0.7143806965481634,0.6022862902050591,0.38436551338416836,-6.0407240023885365,3.0092514958913146,6.8397382230624935
66,3.35,-0.40700000000000003,0.493,-2.11,1.63,-1.86,1.89,-1.46,10.2,-3.21,,,,,150,3350000000.0,-2.7900206499932136,-2.611249119685483,3.727576021627324,1.3882465158604653,-0.21518932768166543,1.4348041351999767,-4.034196335490011,7.0227437158773975,2.4013558725006563
67,3.4,3.0,2.75,2.22,2.34,-2.43,1.23,2.61,12.4,0.344,,,,,150,3400000000.0,-0.47464204423879686,0.3907541760612676,3.1309547394158463,2.0887058491847386,-0.9505034031047928,1.2919180911816392,-1.123790979252675,10.024041187245258,1.4927419659349666
68,3.45,0.136,-10.3,11.1,4.41,-0.912,-0.109,-0.22,-1.0,7.95,,,,,150,3450000000.0,-0.23045162980232722,-5.595477600652687,6.284694418865664,3.797102214605804,-0.9377203271495818,0.3145371310045396,-0.7278968757196256,3.8710093177351776,4.344535564927114
69,3.5,-4.61,-52.7,9.66,-0.273,4.2,1.56,0.157,-1.7,6.37,,,,,150,3500000000.0,-1.9817947633316693,-31.971408026743333,7.62046725019378,0.8016402701501968,0.767995590350188,1.1834613377649865,-0.34027909131070755,0.7615689964833221,5.239064841085968
70,3.55,0.47600000000000003,-8.72,-1.51,0.428,-0.9570000000000001,1.82,1.84,-0.384,-6.49,,,,,150,3550000000.0,-0.9989441343354835,-18.95190433139753,4.0070964499538455,0.5266532694980104,0.1952994552487033,1.627556410297529,0.6147643514728474,0.122173474922876,0.05902213645724519
71,3.6,1.8,-1.38,-4.02,-1.17,-3.88,-0.22899999999999998,2.95,6.97,-9.04,,,,,150,3600000000.0,0.12032912023294995,-9.112608758277197,0.8303832446430004,-0.7220279436043362,-1.1576943163136404,0.33228946797171854,1.6376845426378626,3.9442649238797562,-3.9594844195186907
72,3.65,0.35700000000000004,2.21,-0.8190000000000001,-3.16,2.91,-2.18,0.6609999999999999,11.0,-5.07,,,,,150,3650000000.0,0.21497173194134275,-2.7725734111955163,0.17764192065737094,-2.516295602055993,0.19277455023386736,-1.42046394263053,1.2098603504046495,7.882399955198206,-4.449934358235584
73,3.7,-2.6,-2.39,11.7,-0.11800000000000001,0.153,-0.465,-2.64,6.89,8.57,,,,,150,3700000000.0,-0.9107107996289671,-2.5583534970090414,4.737600403309296,-0.7512285783766777,0.1795694540970548,-0.7538637539442767,-0.4765218847132269,7.328495151194186,1.3002099743417972
74,3.75,0.996,-6.5,-0.345,-0.121,2.96,0.9570000000000001,1.12,2.58,-4.05,,,,,150,3750000000.0,-0.14823383435976956,-4.765457761050717,2.726167757177107,-0.287400982809073,1.1026685289381954,0.43975754982522286,0.22281415191790377,4.678138356377817,-1.0626653315883066
75,3.8,13.1,3.34,45.5,-2.84,1.19,-0.9490000000000001,14.1,12.7,42.7,,,,,150,3800000000.0,5.149619130532717,-0.2268492928857846,19.65385747631305,-2.166030204287972,1.1316624744890307,-0.5291393468017758,6.3015384596178725,9.15551360689102,18.264747956099356
76,3.85,7.62,-22.0,-9.89,-2.11,-0.498,-2.39,7.4,-12.5,-12.3,,,,,150,3850000000.0,6.137502783117306,-12.418610713101618,7.961913311993348,-2.1247937315919763,0.5906168078960778,-1.8274093094523187,6.782705559046671,-2.9314391820713066,4.766084090603773
77,3.9,4.12,-20.6,-4.95,-1.51,0.9940000000000001,-1.11,3.14,-11.0,-6.82,,,,,150,3900000000.0,5.330721023874473,-16.999736902154797,2.852040112970413,-1.6723256712644254,0.72453947075984,-1.3268931183506842,5.187064928186421,-7.434879527634945,-0.35081254542575024
78,3.95,-7.7,-30.3,6.99,-3.85,-0.527,-2.16,-9.57,-20.6,6.75,,,,,150,3950000000.0,0.11984975787213337,-24.447148964593293,4.489632385876476,-3.275022592980601,0.3090301092039305,-1.9081283058007785,-1.2770788795234456,-14.782947881490507,2.7852015732616375
79,4.0,3.17,-12.2,21.0,-2.8,0.7759999999999999,-0.873,0.65,-2.82,22.2,,,,,150,4000000000.0,1.3395781869265555,-17.589422097770505,11.023589374676533,-2.925421485398645,0.46406346906314666,-1.185948557730061,-0.43294658288101384,-8.105868330660925,11.359584290846747
80,4.05,-4.13,-5.88,5.06,1.01,2.44,0.0276,-7.06,3.3,6.89,,,,,150,4050000000.0,-0.8476583269017115,-11.032792737613661,8.66350644026962,-0.029080155564243704,1.1200716596420301,-0.33929002433638145,-3.3358427234151846,-1.7397209394672535,9.385629934244111
81,4.1,-4.49,-1.36,3.41,1.91,0.91,1.85,-7.24,8.01,4.33,,,,,150,4100000000.0,-2.3041988065632655,-5.616563238442218,6.584437980829142,1.3980193137541215,1.0503281704252596,1.188115772526128,-5.046008887821895,3.702053456032778,7.15285347514433
82,4.15,1.8,1.71,1.57,1.71,-1.21,2.12,0.114,11.4,1.59,,,,,150,4150000000.0,-0.6629656271816551,-1.5140925992662195,4.599980547004604,1.6276269102245329,0.29990235863203807,1.8382649829676718,-2.7857328537712833,7.998636466120016,4.69606605511815
83,4.2,0.8809999999999999,-3.23,3.91,2.68,0.145,0.607,-0.0852,6.47,2.77,,,,,150,4200000000.0,-0.0455472868255411,-2.4749059497489725,4.3269216568702475,2.402139090525705,0.24847499028999595,0.9792461954753059,-1.602798903783681,7.1454329970716985,3.8454351782221305
84,4.25,-3.18,-50.5,-0.74,1.93,-2.57,2.34,-3.87,-41.1,-3.42,,,,,150,4250000000.0,-1.2989875327441343,-29.366305211169426,2.3216938504583844,2.054660142812822,-0.6872547521826424,1.9286056098502746,-2.5959173566448888,-19.782593881490214,0.6367168251022486
85,4.3,-0.778,-20.9,1.12,2.64,1.59,1.87,-0.272,-11.8,-2.31,,,,,150,4300000000.0,-1.0906491749515221,-24.625641846249554,1.8461250390936048,2.48545118631537,0.0687906595561476,1.8877181353901313,-1.5779550261412387,-15.32713580161693,-0.6646758435160849
86,4.35,1.83,-5.42,-2.29,-0.289,-1.98,0.932,3.08,3.37,-6.45,,,,,150,4350000000.0,0.07729289689069829,-13.871543574889886,0.2092588294419453,0.44354596702912863,-0.6114049874185852,1.2209405881296145,0.46240268827148867,-4.8913917947047025,-3.219715498725252
87,4.4,5.33,1.91,-10.0,-1.71,-0.608,-1.13,6.23,10.8,-14.0,,,,,150,4400000000.0,2.177804485255832,-5.03475112858643,-3.831042370274382,-1.1413933688841231,-0.6102745298553365,-0.4192442188553329,2.9888250848457436,3.866706376689285,-7.9807374498317545
88,4.45,-1.13,5.19,7.56,-1.2,1.15,-1.56,-0.8959999999999999,14.6,4.67,,,,,150,4450000000.0,0.8550424107979029,0.690544613646022,0.6769481403322457,-1.1845259652407596,-0.025865849671463326,-1.2151172494644173,1.2871270279123639,9.857458674734582,-2.393645657175532
89,4.5,-0.395,-7.65,14.4,2.34,-1.86,1.23,-0.423,1.69,11.4,,,,,150,4500000000.0,0.35516138203303166,-3.9796996047853685,6.107828312675093,1.4094096615323828,-0.6347958334733735,0.4907719693173247,0.5380277069336913,5.298818851743589,3.6982017273388816
90,4.55,2.1,-4.03,-6.99,-2.3,4.95,0.7659999999999999,2.82,5.11,-10.5,,,,,150,4550000000.0,1.0529070430485665,-4.007865164468576,0.9243795036374296,-1.320594339251794,1.2193485283972332,0.6827907693658264,1.5376165149315049,5.193430313086058,-2.5723146103426835
91,4.6,8.48,-10.8,-18.4,1.52,-1.95,-1.44,9.56,-1.46,-21.1,,,,,150,4600000000.0,4.0229363598867725,-7.811085510850189,-6.72321896119012,0.7699900571814768,0.16712922279313158,-0.798220399872575,5.051719391439909,1.479840323956811,-10.754911150267832
92,4.65,5.24,-21.7,-5.62,-2.02,1.79,-3.11,5.21,-12.2,-8.19,,,,,150,4650000000.0,4.509629370941052,-15.588110683589278,-6.286621414856223,-1.2833512448270077,0.7059200440445975,-2.411083622363414,5.12105220852986,-6.155516881248906,-9.622139535063864
93,4.7,3.8,-30.6,-9.27,-3.18,-2.88,-2.13,2.68,-21.0,-10.9,,,,,150,4700000000.0,4.225854774403187,-23.993939501159236,-7.467289877439065,-2.6792226666891468,-0.48460044574611183,-2.214979602359064,4.051780473964707,-14.440915689605863,-10.186495689774526
94,4.75,-10.4,-22.4,8.68,-3.26,2.59,-1.04,-12.6,-12.9,8.8,,,,,150,4750000000.0,-1.6228964476355605,-23.101421232738417,-1.0770203204713757,-3.1066557578065765,0.5361625842771588,-1.395229512325203,-3.2423195963267997,-13.580858517056637,-1.801269525195167
95,4.8,0.373,-10.0,5.3,-0.904,-0.687,-1.24,-2.42,-0.733,6.62,,,,,150,4800000000.0,-0.8247549203203622,-15.765349201458791,1.4466774378555685,-1.4855732406128035,0.1300743205256894,-1.2869302750448464,-2.882113026173902,-6.409869068816558,1.9179132585283685
96,4.85,-5.13,-2.47,2.93,0.8270000000000001,0.83,0.281,-8.28,6.72,4.27,,,,,150,4850000000.0,-2.546384810363231,-8.320688238318043,2.0337004820587916,0.21640494893265694,0.3624486640826928,-0.19302964030317837,-5.24658840266951,0.9185235015447732,2.9566925704212537
97,4.9,-4.02,0.895,1.28,1.44,0.8440000000000001,1.75,-6.78,10.3,2.0,,,,,150,4900000000.0,-3.1356706256118123,-3.1604120062056174,1.7354244633627989,1.1169308785831769,0.522323029764544,1.1625672293506732,-5.918279873229968,6.154763467560088,2.534177345735162
98,4.95,1.87,1.18,0.48100000000000004,1.85,0.0446,2.04,0.0614,10.8,0.419,,,,,150,4950000000.0,-1.1339467310607474,-0.730021121696395,1.2389875795591672,1.6564457630909633,0.3637196499511305,1.7747272504023455,-3.298957425838021,8.747486872129956,1.60002706672605
99,5.0,-0.611,-15.9,7.73,3.04,-1.82,1.64,-1.59,-6.24,6.61,,,,,150,5000000000.0,-0.9248249087169002,-9.224370932207393,3.807797498562548,2.6746963450220522,-0.3612722446728396,1.6807318452339706,-2.550370452187374,0.382271122894684,3.812639520749058
100,5.05,0.747,-53.3,1.03,1.13,1.13,2.45,0.71,-43.8,-1.35,,,,,150,5050000000.0,-0.25627676154640566,-33.904287585854746,2.70848765941542,1.5378504169852103,0.13382805845610046,2.217428530418045,-1.1222067984361532,-24.277915915108174,1.5326032012492008
101,5.1,-1.27,-12.1,-3.68,0.932,0.11199999999999999,2.33,0.0278,-2.88,-6.81,,,,,150,5100000000.0,-0.6616558087371863,-21.69509144747188,0.18025176534717513,1.0919643366665568,0.12658117464940682,2.295966410226192,-0.6184609986728108,-12.334740483676454,-2.1518372876260443
102,5.15,4.04,-2.46,-5.72,-0.523,-3.54,0.294,5.92,6.56,-9.05,,,,,150,5150000000.0,1.2184952029624245,-10.924503005170413,-2.154765285031076,-0.0965965299928031,-1.0907186473103314,0.8992510215949976,2.2456284221862552,-1.788704049721888,-5.198352896757335
103,5.2,2.84,2.81,-4.47,-2.12,1.21,-2.51,3.96,12.1,-7.41,,,,,150,5200000000.0,1.8669207517491668,-3.233940191404349,-3.071016396409376,-1.5857551376788368,-0.32688325354125103,-1.4792870634386788,2.9965870273377155,5.963230067705195,-6.175108165036203
104,5.25,-1.49,5.26,11.5,1.12,-1.54,-1.64,-1.34,14.8,9.15,,,,,150,5250000000.0,0.5245175062783003,1.5221971501619675,2.695444814048258,0.4055920396309258,-0.7296363082446754,-1.5914119275192096,1.097000415010125,10.895443878140263,0.5930967512631167
105,5.3,0.9359999999999999,-8.51,-4.88,2.25,1.54,1.35,0.433,0.612,-8.45,,,,,150,5300000000.0,0.6890657515971712,-4.095279098962267,-0.3025278835087519,1.7630158981574269,0.02387976698904204,0.4607280660865112,0.8061435073904428,5.155773923519697,-3.400710761475497
106,5.35,5.44,-0.539,4.81,-2.54,3.4,1.24,6.4,8.7,1.67,,,,,150,5350000000.0,2.5889228183587156,-2.103959275313772,1.720748502683604,-1.4038628605025107,1.1447470058823215,1.0044040786590096,3.256460989093757,7.133971796452691,-1.1612740345578358
107,5.4,10.1,-12.1,-14.6,-0.655,-0.588,-1.43,11.1,-2.87,-17.6,,,,,150,5400000000.0,5.592537027542864,-7.701190009270151,-4.738167114848844,-0.8527242977285201,0.5694774174958475,-0.6940108137066643,6.69222330965014,1.5502883236157752,-8.421299220036532
108,5.45,8.92,-33.5,4.03,-2.24,-0.7240000000000001,-3.21,8.78,-23.9,1.89,,,,,150,5450000000.0,6.923160391472603,-22.147098208935883,-1.26817604566734,-1.8737137913902127,0.14004472705583054,-2.449345393266616,7.606747124748818,-12.654705120840308,-3.8674006789442963
109,5.5,-8.17,-26.4,-1.69,-3.76,0.337,-1.34,-9.66,-16.7,-2.48,,,,,150,5500000000.0,0.8875375581885878,-24.528488023710494,-1.4351123618504786,-3.261958662182602,0.20543360701103303,-1.675386485982746,0.04326899608719437,-14.912573409306503,-3.254666850273681
110,5.55,-3.53,-14.8,21.5,-3.25,2.63,-0.249,-5.26,-5.21,22.3,,,,,150,5550000000.0,-0.878997054449614,-19.081072340303805,7.641429191193728,-3.253157478436098,1.01038630489114,-0.6802369432509863,-2.279760400134834,-9.497114399766769,8.031336425484797
111,5.6,-3.88,-4.63,6.27,-0.341,0.28300000000000003,-0.8059999999999999,-6.07,4.8,7.86,,,,,150,5600000000.0,-2.079071924807036,-10.989270321661603,7.098687825132043,-1.1099049342179077,0.7688950639331317,-0.7679782698648582,-3.940026555684846,-1.5172275122635268,7.955667193657402
112,5.65,-5.85,0.14800000000000002,4.02,1.28,0.831,1.11,-8.13,9.6,5.28,,,,,150,5650000000.0,-3.587033035159725,-4.753014279349978,5.880301025629615,0.6489868121787117,0.7895138062476684,0.542234106978502,-5.77539099476633,4.687816207084227,6.773981381705973
113,5.7,0.397,0.285,0.685,1.59,-0.0715,2.18,-1.06,9.97,1.19,,,,,150,5700000000.0,-1.9938530715503915,-1.9320046373322461,3.8242672519953977,1.3415417268679768,0.5036584226918752,1.6848571335398583,-3.7098741288916592,7.636049646112114,4.307863010034
114,5.75,2.93,-2.52,-3.57,2.63,0.0929,1.03,2.37,7.26,-4.05,,,,,150,5750000000.0,-0.024847276324512446,-2.2612495427540793,0.897995415945378,2.289804905942587,0.36728719958994704,1.2279817978951848,-1.0466629167590176,7.426158916439796,0.6166830454884922
115,5.8,-8.71,-46.4,-0.124,2.41,-3.09,3.3,-8.7,-36.8,-1.88,,,,,150,5800000000.0,-3.497963886445097,-26.976511968623694,0.4935420304505467,2.3782646222123787,-0.7805272988115254,2.6735703086092686,-4.399109459879048,-17.25852394734771,-0.48595601384414766
116,5.85,-3.98,-25.4,-0.20600000000000002,2.04,2.6,2.35,-2.24,-16.1,-2.74,,,,,150,5850000000.0,-3.6907259189414194,-26.093752155544248,0.21669916133904665,2.129312909611732,0.34180301645540234,2.4478243819156305,-3.4533391227460597,-16.61189787789205,-1.4814355803605297
117,5.9,0.381,-7.02,-3.05,0.159,-1.64,1.48,3.16,1.84,-6.22,,,,,150,5900000000.0,-2.0624783393102053,-15.413504770617969,-1.0760928589740817,0.6792271274293729,-0.31615281538473616,1.772600674860482,-0.5564502911591194,-6.313032518757311,-3.5741825961805556
118,5.95,6.04,0.68,-7.15,-0.6890000000000001,-2.08,-1.03,8.65,9.5,-10.6,,,,,150,5950000000.0,1.1776318513373414,-6.402031267999337,-3.479833924230937,-0.3277432396493434,-0.9017475945505659,-0.18269459400319854,3.4763175861268,2.5129589111446595,-6.677075910014787
119,6.0,1.26,4.87,1.35,-1.25,1.05,-2.17,2.96,14.1,-1.5,,,,,150,6000000000.0,1.2105701496019894,-0.09031660648635675,-1.5684332808704409,-1.0064940133864235,-0.25377013193324705,-1.5691814673680955,3.250151274204474,8.980227513400376,-4.390663891184443
120,6.05,-6.68,2.46,10.1,1.22,-2.6,-0.05,-5.75,11.8,7.29,,,,,150,6050000000.0,-1.9447997564022679,1.3377198084370727,3.04933450348696,0.6321326887389498,-1.0327151431727726,-0.5092914904612065,-0.6922501188804175,10.55407424108558,0.7680030253734316
121,6.1,-0.934,-5.26,-0.764,-1.12,4.96,1.76,0.685,3.87,-3.94,,,,,150,6100000000.0,-1.5405897825831838,-2.3566388856442195,1.5402122233125326,-0.6573795951893919,0.9568579364058261,1.0739290451727004,-0.08896328166224654,6.823380403029747,-1.311246925725361
122,6.15,7.76,-9.44,-21.6,3.09,-2.63,-0.889,10.4,-0.361,-24.3,,,,,150,6150000000.0,2.178634799709899,-6.322929516029472,-7.617497490067627,2.100569005259583,-0.23397393234032893,-0.29555107589963847,4.505593041880196,2.81344241019338,-11.464035970381364
123,6.2,8.87,-30.8,-1.81,-3.03,2.38,-3.66,10.3,-21.5,-4.25,,,,,150,6200000000.0,4.8544531602343,-20.028736191371763,-5.319187720509138,-1.6753617467016744,0.6338618043562005,-2.642832070162231,7.043759137067843,-10.757024487236727,-8.278017678656669
124,6.25,-0.156,-28.5,-9.98,-1.91,-3.4,-2.64,-0.141,-18.8,-11.7,,,,,150,6250000000.0,2.8508167725459246,-24.772175883301998,-7.163698072295933,-1.848047792676822,-0.705374718588391,-2.64085628803356,3.8965670979208453,-15.246184054110344,-9.789307296124056
125,6.3,-12.3,-22.2,7.97,-3.32,2.49,-0.337,-13.3,-12.4,7.91,,,,,150,6300000000.0,-3.2078623889044855,-23.33189992966022,-1.1745563871403926,-2.9313563649373693,0.3554852331845022,-1.0335208719372033,-3.6361697161130757,-13.65759569153331,-1.9725572075909161
126,6.35,-2.05,-8.59,9.22,-1.66,-1.62,-1.88,-3.5,1.03,10.4,,,,,150,6350000000.0,-2.7448433297088775,-15.077250550685708,2.9390761910880885,-1.9956796899033462,-0.30037310975620024,-1.6240854345993627,-3.576522309959048,-5.459763094082115,3.4916784193547423
127,6.4,-6.35,-3.17,3.69,0.415,1.08,-0.131,-8.4,6.28,5.26,,,,,150,6400000000.0,-4.186513905440411,-8.40984816564169,3.2362533562394673,-0.22149838873500993,0.15790885113010505,-0.5824019198436976,-5.689384980981808,1.0927466908884416,4.272642868927788
128,6.45,-4.42,0.139,1.81,1.07,0.599,1.53,-6.23,9.71,2.95,,,,,150,6450000000.0,-4.279882982584277,-3.622965521153409,2.6718153814784107,0.7290021702445478,0.3043504895763626,0.891361182792324,-5.926194498328911,5.902437944098791,3.688508794852856
129,6.5,1.89,2.57,4.04,1.97,-0.461,1.89,0.975,12.3,4.54,,,,,150,6500000000.0,-1.812600758853542,-0.15524703064725598,3.213272689385953,1.6423359540505882,0.05025519630473774,1.5880832538557126,-2.903214320636206,9.473216002899099,4.064562704819864
130,6.55,0.426,-4.31,3.45,2.02,0.469,1.29,0.272,5.48,2.92,,,,,150,6550000000.0,-0.9174038994653027,-2.4816791095890065,3.3069572404111334,1.9202843101648133,0.1892778908065065,1.3801189649157328,-1.5123522075544311,7.244415802230054,3.559076249598419
131,6.6,-8.05,-61.0,-2.15,1.62,-0.433,4.86,-7.18,-51.4,-3.85,,,,,150,6600000000.0,-3.769666759064637,-35.248705646286396,1.147373313812603,1.6992848950437558,-0.017317500228323957,3.8079337141460563,-3.9949929093540657,-25.487770395168607,0.2869201016282701
132,6.65,-4.47,-18.2,-3.65,2.05,1.36,2.43,-1.58,-9.1,-5.88,,,,,150,6650000000.0,-4.049723811568677,-25.702372859754043,-0.7511811125577195,1.9573996920493786,0.4399499930591441,2.846588349028731,-2.9371361077438456,-16.340991146814957,-2.436648327011623
133,6.7,2.22,-3.91,-5.84,-0.63,-2.92,0.996,5.91,4.75,-8.6,,,,,150,6700000000.0,-1.5425160965917573,-13.499848144152399,-2.765074776736381,0.053158253861029126,-0.6755487423973567,1.5554851502331712,0.9382388778284096,-4.5691246886186185,-5.1586409070963635
134,6.75,7.21,1.3,-8.84,-1.52,-0.292,-1.44,10.6,10.1,-11.6,,,,,150,6750000000.0,1.9575385370507243,-5.212750907985038,-5.1692187693891425,-1.1046346894695418,-0.5482110935971887,-0.5343802260278707,5.170450187518462,3.6183986089641795,-8.003413125198126
135,6.8,1.55,4.29,8.21,-0.0944,-0.556,-2.22,4.06,13.6,6.21,,,,,150,6800000000.0,1.7945674222387829,0.10826454812712338,0.1255900607549183,-0.36113504359916837,-0.5507969977566701,-1.710389526354678,4.684031630937351,9.189596391320446,-1.726178784784361
136,6.85,-5.61,-6.44,10.8,2.12,-2.61,0.986,-4.09,2.85,8.11,,,,,150,6850000000.0,-1.1664543667723328,-3.55840183648372,4.349974296175418,1.4648990125480013,-1.2344494868165603,0.17080524670225428,0.8406789946897435,5.651171728361427,2.6178866681507325
137,6.9,1.79,-2.59,0.816,-1.04,4.52,1.9,4.55,6.43,-1.84,,,,,150,6900000000.0,0.01580585563243897,-3.016150264602671,2.951408456206917,-0.378624602677625,0.6760197082663406,1.3772155420730356,2.4654998010467106,6.085872038223672,0.6490985124191087
138,6.95,7.01,-10.7,-16.3,0.526,-3.41,-0.0714,10.3,-1.91,-19.3,,,,,150,6950000000.0,2.8127229989812386,-7.318681473682564,-4.667311658423415,0.2871494972714509,-0.680533162843151,0.3665574153705571,5.897302701844152,1.6230027115689492,-8.161252668833203
139,7.0,6.87,-29.0,0.28300000000000003,-2.18,3.17,-4.27,9.24,-19.8,-2.01,,,,,150,7000000000.0,4.4351925321106656,-19.459021946418957,-2.7082321174097537,-1.5285917881302917,0.5978385005541111,-2.8682376500356517,7.361528488841436,-10.33417446979033,-5.444603676400867
140,7.05,-4.9,-28.5,-8.84,-2.69,-2.69,-2.25,-4.13,-18.9,-10.6,,,,,150,7050000000.0,0.7021306663840754,-24.521470138570223,-5.134871520210226,-2.383350240613597,-0.4937193136632887,-2.4369107131188716,2.327811055213111,-15.115161245295855,-7.721441256762738
141,7.1,-13.8,-18.1,13.5,-2.73,3.66,0.11199999999999999,-13.7,-8.25,13.4,,,,,150,7100000000.0,-5.097144596038954,-20.925801863508855,2.2398551879165876,-2.6384731255420597,0.8853097319882071,-0.6586077388634926,-4.69296692452206,-11.283394362883977,1.6066654026094866
142,7.15,-6.37,-7.68,5.57,-1.38,0.319,-1.7,-6.55,2.09,6.45,,,,,150,7150000000.0,-5.606148291143168,-13.508884559967697,3.557755830640213,-1.7122781138614145,0.697295692943797,-1.3851577227834586,-5.5064166447179534,-3.8190788915813094,3.7456832943831433
143,7.2,-6.02,-0.261,6.3,0.168,-0.35600000000000004,0.302,-6.71,9.44,7.54,,,,,150,7200000000.0,-5.77164396143595,-6.090801161738872,4.642995549125377,-0.3284549987001535,0.3476029903133527,-0.20807546864185866,-6.033630988386618,3.581431593877042,5.421411327454743
144,7.25,-3.11,0.505,1.69,1.07,-0.41,1.92,-3.33,10.3,2.62,,,,,150,7250000000.0,-4.70727578386402,-2.3975169346337393,3.4743513382162377,0.7007621226199543,0.09607985567165628,1.2766226160729077,-4.849339908042929,7.3313782778376755,4.184191533545871
145,7.3,3.23,2.02,2.62,2.34,0.28600000000000003,1.93,4.08,11.8,2.8,,,,,150,7300000000.0,-1.533228627034751,0.07604846840555801,3.1362428372156046,1.9071874557670354,0.1591330830579455,1.732465515675871,-0.9379565635305105,9.825524714324114,3.572874967457879
146,7.35,-0.929,-5.45,4.83,1.46,-1.48,1.76,0.754,4.18,4.02,,,,,150,7350000000.0,-1.2916028929966854,-3.0182332505898626,3.8065450504223457,1.578072160803301,-0.3850568200451522,1.751675540605557,-0.19681658245286726,6.674493803466163,3.7703439678132256
147,7.4,-16.4,-62.1,-3.79,1.11,1.87,5.27,-13.4,-53.0,-5.76,,,,,150,7400000000.0,-7.333318572472122,-36.10075748329732,0.800222021537695,1.2335863893142163,0.3636188996944463,4.206311074102378,-5.980302393827443,-26.632626147648757,-0.43865236402757546
148,7.45,-6.31,-13.4,-4.04,1.33,-0.00611,2.4,-1.36,-5.28,-6.27,,,,,150,7450000000.0,-6.924102404639818,-23.389587305482955,-1.1152896735905047,1.3045436810294895,0.24086942082974688,2.946098950929409,-3.956437907270543,-14.71472910230124,-3.01401797755155
149,7.5,1.3,-3.0,-4.66,-0.885,-2.9,0.364,6.74,4.71,-7.32,,,,,150,7500000000.0,-3.635355818070571,-11.972544947718616,-2.518104217447157,-0.30688875844839436,-0.8018948766249472,1.1446414783149297,0.7290000947760116,-3.8728812329315225,-4.915718785615237
150,7.55,8.6,0.0838,-7.08,-1.21,0.9490000000000001,-2.34,13.5,8.1,-9.88,,,,,150,7550000000.0,1.2574560889531945,-5.221657893502086,-4.323468642318544,-0.9715490853979383,-0.22060021999564106,-1.2864943445955268,6.323173601808801,2.8097427605743555,-7.108151867990051
151,7.6,1.81,4.76,12.0,-0.0816,-0.5589999999999999,-2.96,5.69,13.6,10.1,,,,,150,7600000000.0,1.4784135423419174,0.3675191642078808,2.1365233160493586,-0.31657570458777684,-0.33294847991114024,-2.454051973398482,6.0458200120525865,8.832289111218369,0.4916837938584715
152,7.65,-11.6,-7.79,6.86,1.82,-2.45,1.67,-9.01,1.16,3.82,,,,,150,7650000000.0,-3.751529773392138,-4.2002408400108076,4.005833260214959,1.2558740844355158,-1.0358066468484832,0.42318251201088586,-0.5491898809496938,4.550026480213276,1.9616066143514785
153,7.7,3.22,-5.1,29.1,2.03,6.94,2.87,7.59,3.24,26.4,,,,,150,7700000000.0,-0.9636759938111399,-4.704056204130839,13.93681798885169,1.825605386313231,1.6121500516114375,2.130257846013019,3.0160784294585117,3.8188395690739547,12.754617274590032
154,7.75,10.7,-16.6,-16.7,-2.02,-1.05,-1.24,15.7,-8.67,-19.6,,,,,150,7750000000.0,3.700525923833132,-11.36512768750293,1.812335925434402,-1.0046342288553283,0.7283199643540244,-0.22107581567867118,8.572108299850758,-3.1517646808501043,-1.5345274007609255
155,7.8,-2.65,-29.3,4.14,-0.425,-0.35200000000000004,-4.02,1.13,-20.4,2.6,,,,,150,7800000000.0,1.1610061243379466,-21.407664846030855,2.733505970261215,-0.57804242693769,0.36965524400902666,-2.871477847455604,5.312187743658501,-12.77880956046592,0.29145179822032397
156,7.85,-9.89,-23.7,-4.79,-3.24,-0.835,-2.68,-7.85,-14.3,-6.33,,,,,150,7850000000.0,-3.2581946858189683,-22.69124630697255,-0.24391193552574642,-2.537156034472991,-0.03028860922681431,-2.7378892110606805,-0.45334056133702827,-13.627857043930906,-2.6328566458245137
157,7.9,-10.4,-13.7,10.2,-1.75,1.72,-0.9790000000000001,-9.25,-3.93,10.2,,,,,150,7900000000.0,-6.114140000571948,-17.65664503842106,3.889252857056614,-1.9578349707301657,0.5508047766540716,-1.5107618957507132,-4.30660495311178,-8.215030473984879,3.034666439568635
158,7.95,-6.79,-4.11,3.48,-0.845,1.06,-1.2,-6.32,5.66,4.26,,,,,150,7950000000.0,-6.384410486539568,-10.07127234952306,3.7272915668283666,-1.1388248962272973,0.7198568614140352,-1.2939521365430589,-5.188547030817801,-0.47072851539360094,3.57582479839143
159,8.0,-5.65,0.685,4.68,0.502,-0.161,0.74,-5.39,10.4,5.71,,,,,150,8000000000.0,-6.090726195868569,-4.048354121043217,4.104324649862657,0.06876847503798644,0.42741361284932905,0.12507879590390747,-5.276790874257846,5.596732184064084,4.518365337352403
160,8.05,-1.16,2.56,3.92,0.782,-0.00672,2.02,-0.239,12.3,4.64,,,,,150,8050000000.0,-4.1189719117030315,-0.3480409596542229,4.031378434258916,0.5936835245061723,0.28328185907409464,1.4471117558625626,-3.0700508779194844,9.338138894575406,4.572084203783725
161,8.1,1.48,0.153,-1.72,2.19,-0.0434,1.59,3.34,9.78,-1.66,,,,,150,8100000000.0,-1.879992017433631,-0.06748570657440872,1.755277720998515,1.7685202167274912,0.1748239373660799,1.5468008690357147,-0.26220994252259633,9.584762049764931,1.8197366629619962
162,8.15,-16.4,-17.4,12.7,2.66,-1.52,2.53,-13.8,-8.04,11.7,,,,,150,8150000000.0,-7.686416033384263,-9.772735868559117,6.086637570183822,2.424620206381956,-0.3878552390065687,2.232751097355273,-6.192266172445312,-0.2524401620235075,6.18327175488795
163,8.2,-16.3,-52.6,0.883,1.61,1.99,2.98,-11.8,-44.1,-1.15,,,,,150,8200000000.0,-11.130912603306001,-33.75363670333529,4.027304625115503,1.825086422033469,0.40158938609149664,2.754085552642002,-8.648662485373773,-24.725808785381847,2.944593992644224
164,8.25,-2.22,-6.74,-4.8,0.305,-0.831,2.24,3.44,0.882,-7.25,,,,,150,8250000000.0,-7.567516619006225,-18.627492536138043,0.5339099689931981,0.7063526001687732,-0.007628560652693905,2.395422597372287,-3.3533781510924934,-10.4328955907132,-1.5577626729760814
165,8.3,7.87,-2.01,-8.1,-1.34,-1.85,-0.7509999999999999,13.8,5.27,-10.9,,,,,150,8300000000.0,-1.3941888190970628,-9.322614834038404,-2.8829490733713268,-0.7996959245729549,-0.619293316082928,0.2002524786664739,4.16044029602131,-1.6683767309980304,-5.6836830199726895
166,8.35,6.07,2.19,2.82,-1.21,0.684,-3.6,11.2,10.3,0.64,,,,,150,8350000000.0,1.5906750601932473,-2.8761865717662456,-0.62601425584123,-1.101666315605907,-0.1866017483417179,-2.451076213309087,7.244029492045078,5.011732983299348,-2.8908816242152446
167,8.4,-5.08,6.43,9.59,1.18,-6.96,-2.29,-1.85,15.3,6.85,,,,,150,8400000000.0,-1.0768695095622571,2.3347636415652584,3.416960455668917,0.5775653345222129,-2.435360530782712,-2.3386978647135708,3.260505933397251,10.754095056712911,1.4110967490353281
168,8.45,-4.02,-3.75,-2.42,0.23399999999999999,6.78,2.31,-0.934,4.89,-5.87,,,,,150,8450000000.0,-2.2538016380078956,-1.0723678119514002,1.1069907473903484,0.3247124973929725,0.6241263784629449,0.9045672224937955,1.4231561387688156,7.481069858561797,-1.804538320830643
169,8.5,2.74,-4.28,-8.79,2.0,-0.665,0.557,7.51,3.98,-11.1,,,,,150,8500000000.0,-0.2568240458606952,-2.8684647317072045,-2.809730740835757,1.5576692373297294,0.19613821218882233,0.6620793807010603,4.089420503583416,5.526959389101987,-5.909800933440466
170,8.55,9.84,-32.6,-19.2,-3.03,0.11900000000000001,-1.19,14.5,-24.4,-21.9,,,,,150,8550000000.0,3.78080762220231,-19.516480947668512,-9.296159260309379,-1.818705064208804,0.17052843427028197,-0.6300641030210545,8.649641977540977,-11.176673099547784,-12.971737650719561
171,8.6,1.91,-32.5,-0.812,0.46399999999999997,-1.68,-4.46,5.24,-23.4,-2.21,,,,,150,8600000000.0,3.032688006908935,-26.786534272065495,-5.93856401220381,-0.13870890034888883,-0.4438444067648246,-3.3021021702434297,7.156091727663593,-17.999082082357557,-8.218906776965913
172,8.65,-13.6,-18.5,4.28,-3.43,0.24,-2.45,-12.0,-8.84,3.63,,,,,150,8650000000.0,-3.618578573751188,-22.146532914225517,-1.894580215210504,-2.5609914162767415,-0.21680901955205184,-2.7076145999009027,-1.2349897566727073,-12.886971010554749,-2.985936738008748
173,8.7,-7.92,-9.74,7.47,-1.79,0.336,-1.49,-7.18,0.0161,8.16,,,,,150,8700000000.0,-5.338679402982461,-15.199559820278989,1.8114404139808533,-1.9935669540957308,-0.03327719780541685,-1.858119310222788,-3.8391255399916466,-5.6851649035544405,1.9365723796824224
174,8.75,-7.55,-3.54,4.51,-0.196,0.39799999999999996,-0.324,-7.5,6.18,5.78,,,,,150,8750000000.0,-6.222967240958983,-8.670850495164725,2.8793920292546415,-0.6706165384738834,0.10990623081125828,-0.7878076226479942,-5.442724871973046,0.9373372707655676,3.633989944549045
175,8.8,-5.35,-0.0431,0.469,0.6970000000000001,-0.0116,1.52,-5.12,9.69,1.61,,,,,150,8800000000.0,-5.873875240042722,-3.8397869044091486,1.925482453341218,0.3359044670608804,0.06956633174794255,0.8222845232859273,-5.301359310744279,5.822606585293163,2.7401118205004265
176,8.85,1.2,2.91,5.67,1.46,0.511,2.36,2.42,12.6,6.44,,,,,150,8850000000.0,-3.045094396058018,-0.06027911845548051,3.4073705411174986,1.1632019957220014,0.2161216863095281,1.8951050820700177,-1.9191163820931418,9.605386358317114,4.374136331595828
177,8.9,-0.29,-1.13,-1.55,1.47,-0.657,2.0,1.95,8.42,-1.61,,,,,150,8900000000.0,-1.9433562458158211,-0.6592637069200976,1.4454974721051352,1.388995300966761,-0.07375349716796725,1.9682873019595168,-0.22429931313135398,8.943766953320024,1.731292861381319
178,8.95,-18.1,-38.3,-2.91,3.57,-0.11199999999999999,4.01,-14.8,-29.2,-4.17,,,,,150,8950000000.0,-8.404256894335004,-21.73599593727063,-0.27818514802210403,2.9941432872159046,-0.08645128389708281,3.3927327118791704,-6.608999046984655,-12.346049947298999,-0.8749635145853256
179,9.0,-11.3,-27.4,0.843,1.59,1.68,2.42,-6.15,-19.3,-0.927,,,,,150,9000000000.0,-9.562239306064203,-24.907525060181577,0.16552244653921688,1.960739834995721,0.5000080605127162,2.7140846416398916,-6.407940414618479,-16.227373580991976,-0.8979449844576346
180,9.05,0.596,-3.96,-4.7,-0.657,-2.11,1.02,6.56,3.53,-6.81,,,,,150,9050000000.0,-5.500048267443961,-13.178068407442687,-1.7600017992249952,0.034169037802164404,-0.36651093944768953,1.5321696490135663,-0.7274996561417071,-5.1998613410818475,-3.5089543162976486
181,9.1,7.36,-0.718,-5.75,-1.19,-0.136,-1.75,13.1,6.88,-8.08,,,,,150,9100000000.0,-0.3574274139967111,-6.201118520377298,-3.3390385135227394,-0.8667793272883807,-0.289981631597686,-0.757707360367222,5.32946024934379,1.5424730944148868,-5.52771815075925
182,9.15,5.25,2.85,2.67,-0.757,-0.5920000000000001,-3.02,10.1,11.2,0.892,,,,,150,9150000000.0,1.8849337540423043,-1.132992280485694,-0.9609691326619982,-0.7859853588428422,-0.39025131108517386,-2.336044988913468,7.419134465883341,6.93278946277812,-2.6925036325202396
183,9.2,-9.65,4.14,7.67,1.01,-5.61,-1.48,-6.44,13.1,5.15,,,,,150,9200000000.0,-2.727785191906273,1.8195919867761088,2.4547259566910773,0.5358010436753476,-2.1232006379010424,-1.738806605449109,1.3483174777916789,10.374997695146163,0.7710721567543932
184,9.25,-1.39,-2.55,-0.6920000000000001,-0.696,6.12,3.05,2.6,6.04,-3.22,,,,,150,9250000000.0,-2.1928165911362156,-0.6271380773163684,1.209413171823124,-0.37076417095473113,0.6135304355474855,1.6022083973234067,1.896600989138945,7.955433149426981,-0.9915512954118895
185,9.3,2.68,-5.01,-10.9,0.972,-1.35,0.846,8.03,2.96,-12.9,,,,,150,9300000000.0,-0.2442198379513396,-3.081298727208926,-3.5828715416989674,0.6174662883994997,-0.03835893758860076,1.0746231800817139,4.583258025819329,5.167248797279027,-6.250817306738382
186,9.35,7.86,-36.0,-13.9,-3.32,3.17,-3.84,13.0,-27.8,-15.7,,,,,150,9350000000.0,2.9965868314137256,-21.51395266782994,-7.665861858903715,-2.2803799073683444,1.0268117789409805,-2.3541704645976744,8.270104421318269,-13.233310884957046,-10.423969259195818
187,9.4,-9.79,-35.3,-16.5,0.0889,-3.18,-4.13,-6.74,-26.0,-17.4,,,,,150,9400000000.0,-2.11665736777346,-29.233377061706335,-11.161960794802877,-0.5366674843578145,-0.3698438847794221,-3.5931166260110303,1.6951198598680683,-20.358995890912304,-13.504874375238845
188,9.45,-14.6,-15.2,13.8,-2.5,1.66,-1.48,-12.9,-5.55,14.1,,,,,150,9450000000.0,-7.10863703234341,-21.375461150356667,-1.2832964762635903,-1.9816159210476367,0.3040614419886408,-2.118854886426276,-4.698085944215933,-12.093404267029854,-1.3134136898836264
189,9.5,-8.03,-8.32,7.82,-1.36,0.397,-1.84,-7.06,1.35,9.08,,,,,150,9500000000.0,-7.4770819160721365,-14.065124055015293,2.319321596452598,-1.5241269702392501,0.3349169184945852,-1.92430573594588,-5.732692225220575,-4.59001293970553,3.2767499885775795
190,9.55,-6.73,-3.22,1.19,0.243,0.618,0.14300000000000002,-6.31,6.46,2.69,,,,,150,9550000000.0,-7.178330401073804,-7.992453797909198,1.8723940333403097,-0.2235793891393969,0.4289000969596844,-0.4820049417706571,-5.985574502484776,1.5775149982244976,3.017616817957532
191,9.6,-4.48,2.81,2.93,0.545,0.239,1.62,-3.71,12.5,4.27,,,,,150,9600000000.0,-6.099291686808078,-1.9436765432529448,2.2909402762192426,0.3420698842649693,0.3658535272506873,0.9845045063716804,-4.988788152461261,7.673863621080505,3.5707213050781124
192,9.65,0.816,1.52,1.19,1.34,0.00428,2.12,2.53,11.1,2.16,,,,,150,9650000000.0,-3.3339270436136377,-0.004209059302603846,1.8552445844997796,1.076513793994511,0.24581162064362688,1.7767075431162336,-1.6952789801500967,9.586150442030124,2.9476881475640875
193,9.7,-0.45,-1.78,-1.95,1.64,-1.99,1.74,2.21,7.66,-1.82,,,,,150,9700000000.0,-2.180669843235796,-0.9985538568738723,0.34932386004054083,1.4912211781522262,-0.496474721327322,1.751097734299675,0.015378649155188384,8.511075903314437,0.8420787665107086
194,9.75,-20.6,-47.7,-7.93,3.28,3.03,3.64,-17.0,-38.7,-9.2,,,,,150,9750000000.0,-9.546398989745112,-27.148783849613974,-2.9272079616947133,2.807703791402825,0.6743099567624518,3.068931537531653,-7.43799079392961,-17.839629286125565,-3.5929207484233934
195,9.8,-9.15,-20.6,-1.87,1.29,0.6629999999999999,2.61,-3.95,-12.4,-3.24,,,,,150,9800000000.0,-9.387882348971747,-23.481826930504386,-2.508819257080724,1.6907234743173984,0.670555062780142,2.7487479000993202,-5.910120966176911,-14.803518105611184,-3.437056273358623
196,9.85,1.32,-2.35,-5.0,-0.6509999999999999,-2.31,0.8190000000000001,7.22,5.25,-6.89,,,,,150,9850000000.0,-5.105893851189785,-11.649171338380171,-3.4947008683197978,-0.03270833333046008,-0.3189850408025624,1.4024173292333162,-0.15863915390529115,-3.6107137697216967,-4.962019760256036
197,9.9,9.03,-0.335,-5.12,-1.03,0.00672,-1.44,14.7,7.38,-7.19,,,,,150,9900000000.0,0.5469263296891578,-5.313860506302554,-4.13791088767128,-0.7666823198338544,-0.21085142167484971,-0.5806569540417419,6.349997997077078,2.5237165765802176,-5.94598851351353
198,9.95,5.46,3.71,6.51,-0.9640000000000001,-1.21,-3.16,10.2,12.2,5.03,,,,,150,9950000000.0,2.511621525218568,-0.26099717351533247,0.07598639688154574,-0.9119016608897599,-0.542567368400914,-2.3801917643654162,8.036442151771707,7.924501832898197,-1.0985354392784652
199,10.0,-11.9,4.87,16.8,1.74,-6.94,-0.856,-8.82,13.8,14.3,,,,,150,10000000000.0,-3.2514596946235725,2.6120776898127698,6.694493212223005,1.0398111245955568,-2.666506095835719,-1.3168062486404182,0.652692946473131,11.203891671068515,5.7020982676260195
200,10.0,-1.51,-2.86,1.4,-0.853,7.18,2.56,2.47,5.67,-1.36,,,,,150,10000000000.0,-2.5550651935433497,-0.4519834231394335,4.599204246497749,-0.3532358668254054,0.6025201338297088,1.3879318718359883,1.4487411187760588,8.115168509868994,2.5831819776923153
201,10.1,4.06,-7.66,-11.8,-0.397,-1.18,0.568,9.26,0.385,-13.9,,,,,150,10100000000.0,0.09024148465164039,-4.488074374781819,-1.8907600564021907,-0.38544484654180855,0.010725953660420284,0.8158885892603822,4.8703634736903165,3.8006006986004497,-4.696476494624509
202,10.1,5.86,-36.6,-7.27,-3.16,2.63,-4.72,10.5,-28.0,-8.57,,,,,150,10100000000.0,2.397517493409746,-22.46897767304924,-4.019587416321872,-2.42742664207515,0.8803213208103504,-3.046344287829111,7.336353900706405,-13.948798659090821,-6.407185426479731
203,10.2,-9.68,-31.4,-14.0,-1.62,-1.3,-3.54,-7.29,-22.0,-15.0,,,,,150,10200000000.0,-2.4321762178719033,-27.46985651978589,-7.96932300527675,-1.833187078464328,0.15645769996495373,-3.390753900792743,0.9294662732977486,-18.4425498703774,-10.202129688060236
204,10.2,-16.4,-13.8,13.5,-2.02,2.8,-0.779,-15.2,-4.1,14.0,,,,,150,10200000000.0,-8.017786602677388,-19.81549224085024,0.5271342737927922,-1.9706752569647135,1.0341100396592462,-1.568607001891289,-6.135840477252627,-10.437303379519445,0.48653726639312644
205,10.3,-8.78,-4.75,5.57,-0.87,0.735,-0.888,-7.85,4.93,6.8,,,,,150,10300000000.0,-8.322588965499607,-11.379648960780326,2.5228420403947593,-1.1606143160425026,0.9348059285391853,-1.0937667387387475,-6.886706135904527,-1.8600942798495996,3.2748250492186814
206,10.3,-6.57,-1.92,1.69,-0.029,-0.541,0.408,-5.97,7.74,3.22,,,,,150,10300000000.0,-7.621744038816534,-6.082768168311606,2.1932458845906475,-0.3277832367016894,0.4448404163564299,-0.046026530656031905,-6.485154621459826,3.498166238465772,3.2506120401319696
207,10.4,-2.51,2.62,3.11,0.331,0.76,1.44,-1.51,12.3,4.6,,,,,150,10400000000.0,-5.577602312368024,-1.2096988897528806,2.5560501185088986,0.15705965198378152,0.5494729552711712,0.9907322243125452,-4.305851635267818,8.410880541557091,3.84655783754431
208,10.4,1.98,1.95,2.35,1.77,-1.07,1.53,3.78,11.5,3.46,,,,,150,10400000000.0,-2.5553832553358378,0.5595579405114497,2.474506008379618,1.3441309138364628,0.011810176083190349,1.3669640916396468,-0.763947541974423,10.135062277970997,3.6758378377071517
209,10.5,-1.53,-2.73,1.95,1.52,-1.38,1.55,0.953,6.75,2.04,,,,,150,10500000000.0,-2.145341450329544,-1.282412767390157,2.2669334413930042,1.4735647878895015,-0.45026885903654884,1.4946630390056441,-0.011860581341671117,8.2457010425712,2.953383802800005
210,10.5,-19.9,-63.4,-3.93,2.38,3.03,3.96,-16.2,-54.4,-5.12,,,,,150,10500000000.0,-9.245273930740138,-36.064830449141944,-0.18549511447212108,2.140671504467509,0.7051755372358945,3.2146589924159787,-7.102868772092964,-26.719789184143373,-0.6121581785306014
211,10.6,-6.2,-14.7,-3.4,1.17,0.444,2.48,-1.07,-6.44,-4.71,,,,,150,10600000000.0,-8.027495450186867,-24.101705706722974,-1.4576313731152333,1.426289032952551,0.6184656251472392,2.7021081883166644,-4.460247629404145,-15.400692431377893,-2.4219355590338365
212,10.6,2.13,-2.32,-4.46,-1.06,-2.46,0.429,7.92,5.43,-6.1,,,,,150,10600000000.0,-3.9656018335531993,-11.90515392201323,-2.645814954506667,-0.4035382326892738,-0.40358068020518656,1.1162248369762386,0.9627618639551017,-3.774110930005536,-4.046321732228714
213,10.7,8.25,-0.5870000000000001,-5.1,-1.08,0.363,-1.9,13.7,7.4,-6.88,,,,,150,10700000000.0,0.9193104753271948,-5.567613065410048,-3.617055527791402,-0.9013919723788104,-0.1490769620365739,-0.9881099760630783,6.54214637536517,2.4626819197991727,-5.297791948853605
214,10.7,3.08,3.04,6.54,0.273,-2.5,-3.12,7.4,11.7,5.12,,,,,150,10700000000.0,1.783351283620614,-0.7478253443961957,0.4025862665815283,-0.03707793805905102,-0.9295801307960647,-2.475469318305784,6.917918248277263,7.618460131916185,-0.6968618342697228
215,10.8,-12.5,1.66,6.68,1.34,-2.34,0.0685,-9.68,10.7,4.1,,,,,150,10800000000.0,-3.9284359412848495,0.6004237964087575,2.886864701323603,0.9764063526434753,-1.397837531156365,-0.7006138198915284,-0.3525881280976977,9.338411238759422,1.4216317947839605
216,10.8,1.24,-5.06,20.0,0.629,6.18,2.99,5.4,3.53,17.7,,,,,150,10800000000.0,-1.8616236189905706,-2.569100756735546,9.659366234809507,0.7207266598579554,1.117993900124162,1.8742231514546959,2.167259720574965,6.0964658366779165,8.610836493086198
217,10.9,6.36,-13.0,-13.0,-1.33,-1.28,0.66,6.49,2.98,18.0,,,,,150,10900000000.0,1.4261317953419637,-8.409828021377034,0.6919508609045621,-0.7885410365929044,0.3218632802958573,1.0270939911581776,4.060780826831228,4.3570208209839425,12.75748156109519
218,10.9,0.7020000000000001,-29.8,-5.5,-1.34,1.31,-5.01,5.24,-21.2,-6.57,,,,,150,10900000000.0,1.1365578339957998,-20.38714208617025,-1.7585058186490055,-1.1943967991576043,0.6499232736608724,-3.1848160367375593,4.577322634526547,-9.907545650119095,4.2216618637223675
219,11.0,-8.63,-26.6,-9.03,-2.38,-1.7,-3.32,-6.27,-17.2,-10.1,,,,,150,11000000000.0,-2.76900324991806,-23.865999468494376,-4.636190288851806,-2.066962013304504,-0.13024799057589942,-3.279130021006743,-0.17420858839541076,-13.977805181448723,-2.103379772945938
220,11.0,-12.1,-14.0,12.0,-1.76,1.79,-1.4,-10.9,-4.26,12.3,,,,,150,11000000000.0,-6.5003873735266495,-18.341584866773104,1.947560863476573,-1.8410480168246326,0.5072716506340729,-1.968114093286879,-4.8725044515256375,-8.553844715480203,4.2577518065687805
221,11.1,-8.63,-4.71,5.25,-0.43200000000000005,1.63,-1.08,-8.19,5.03,6.3,,,,,150,11100000000.0,-7.352000878369798,-10.70865051355884,3.254496952392941,-0.8040348279129865,0.8800158946879364,-1.3485020186139458,-6.325690850186125,-0.9720669158392816,5.159693623176381
222,11.1,-5.8,-1.7,2.38,0.287,-0.35,0.8270000000000001,-5.55,8.05,3.49,,,,,150,11100000000.0,-6.73136938057535,-5.664303984410022,2.9084159407786214,-0.0010689232096912082,0.4716523356630626,0.1692842749769703,-5.985909457267938,4.063569788769329,4.422287486518239
223,11.2,-2.49,3.15,4.92,0.7240000000000001,0.174,2.17,-1.54,12.9,5.77,,,,,150,11200000000.0,-5.035282873385368,-0.7287806937560237,3.7044978044898924,0.532558043014766,0.3728321738245219,1.565127148948311,-4.038435547747194,8.995593665649917,5.0174933708248695
224,11.2,1.33,0.809,-1.69,2.01,-0.136,2.12,3.33,10.4,-1.45,,,,,150,11200000000.0,-2.4898619198359144,0.13229154025892254,1.5696321353307465,1.6199069333617402,0.2039005995482575,1.9522461764730075,-0.8107864358070063,9.779458170419774,2.161179316171198
225,11.3,-3.64,-4.82,4.79,1.64,-1.89,2.28,-0.649,4.49,4.07,,,,,150,11300000000.0,-2.949792118421888,-2.6407182022087463,2.8440886076755714,1.6346947618756524,-0.491271473487955,2.180910736802107,-0.7399179477435678,6.827164583109313,3.004193987318699
226,11.3,-24.4,-72.8,-2.87,0.94,3.26,2.88,-19.9,-64.2,-4.67,,,,,150,11300000000.0,-11.527542447309248,-41.92604138785047,0.5827453524803077,1.1234221651064158,0.7541454190307206,2.6686456391824747,-9.132747175739686,-32.816409046576474,-0.38504925478595764
227,11.4,-3.61,-9.65,-3.3,0.262,-0.632,2.25,1.97,-1.74,-4.88,,,,,150,11400000000.0,-8.361386444814391,-23.853241261964282,-0.9538461646161505,0.48944365723409833,0.29394706410936794,2.3765684077299234,-4.2693304717390665,-15.4712148526297,-2.370206484118053
228,11.4,2.5,-0.927,-3.73,-1.31,-2.99,-0.45799999999999996,8.42,6.65,-5.65,,,,,150,11400000000.0,-4.018013022962477,-11.015812832029274,-2.0525055223762276,-0.8348879045547346,-0.7963187828065112,0.39897013210278875,1.28906881575534,-3.124332411298619,-3.81869973829986
229,11.5,6.31,-0.218,-1.75,-1.09,0.5529999999999999,-2.48,11.5,7.88,-3.74,,,,,150,11500000000.0,0.11206901065882402,-4.969634226873132,-1.9327893465601331,-1.022642077007833,-0.34834683825581847,-1.6096059821311026,5.761836894758359,3.0176991344381436,-3.783942665224189
230,11.5,1.04,3.22,6.45,0.606,-5.1,-3.25,4.9,12.0,4.46,,,,,150,11500000000.0,0.483140480328785,-0.383891524552328,1.3846888023508193,0.17598516178521417,-1.925889027116916,-2.75406253055257,5.3843202847577185,8.031140444080133,-0.14307472989528502
231,11.6,-5.74,-3.67,1.0,0.83,2.62,1.42,-3.27,5.34,-1.98,,,,,150,11600000000.0,-2.0054388650361266,-2.2239307546429155,1.2324486979885705,0.6573186528806426,-0.416660250216627,0.1580629072753874,1.5934057509737185,6.529089454100824,-0.954337329067498
232,11.6,6.71,-1.99,27.1,1.5,4.46,1.93,10.8,6.65,24.9,,,,,150,11600000000.0,1.4797889080657778,-2.09294246215588,11.469499383694995,1.2775045283992958,1.2023841619427202,1.3942933049971369,5.626236937812872,6.596575325791607,10.464013060874564
233,11.7,4.98,-14.3,-11.5,-1.1,-2.42,0.397,9.55,-5.91,-13.8,,,,,150,11700000000.0,2.8794927108597532,-8.928220345067384,2.3793492104821627,-0.47226096400386797,-0.000242351453222156,0.6985099601112872,7.344991350173822,-0.38392794992007495,-0.25198424876892034
234,11.7,-1.03,-32.6,2.32,-1.2,1.06,-4.64,2.7,-23.7,0.6459999999999999,,,,,150,11700000000.0,1.316120788197507,-22.183108221602765,2.3558618094828865,-1.0078530977374298,0.35175661105572326,-3.026017478606459,5.310312196025622,-13.397716328750997,0.144602951810492
235,11.8,-6.07,-22.6,-4.83,-2.91,-2.95,-3.08,-4.17,-13.0,-6.01,,,,,150,11800000000.0,-1.6375243684897294,-22.41654479766044,-0.4879338339258257,-2.4077709898427315,-0.7444219932644462,-3.063679504998323,1.1575824062059432,-13.175732284582079,-2.573525761783397
236,11.8,-11.9,-14.1,13.5,-2.3,1.48,-1.89,-11.4,-4.31,13.8,,,,,150,11800000000.0,-5.741398442938141,-17.759739417183475,5.047773193873406,-2.3284550354877736,-0.0059169885271836975,-2.2448364727858436,-4.34310612221813,-8.227353308207014,4.657704218068568
237,11.9,-8.34,-6.36,5.32,-0.695,1.01,-0.767,-8.67,3.38,6.37,,,,,150,11900000000.0,-6.780556533575854,-11.376515258736632,5.155506674170723,-1.1262856161654244,0.33136603116090857,-1.2137917433015155,-6.2384467928989,-1.748747657417848,5.413925193381688
238,11.9,-5.78,-0.122,5.02,0.875,0.452,1.4,-6.01,9.63,6.05,,,,,150,11900000000.0,-6.380442812754101,-5.0746085313309015,5.101880072628866,0.3465950596289127,0.3714163379032581,0.6097768731164015,-6.138378691287359,4.602262510828739,5.694842364407219
239,12.0,-0.32799999999999996,2.63,4.99,1.4,-0.111,2.51,0.38799999999999996,12.4,5.5,,,,,150,12000000000.0,-3.9601238834524852,-0.7604533725788709,5.057603585572359,1.1218665814996818,0.21125478627818162,1.9355088414240735,-3.279581799373752,8.954543504595446,5.608791873454168
240,12.0,2.61,0.0359,-1.09,2.11,-0.0293,1.89,4.47,9.66,-1.44,,,,,150,12000000000.0,-1.3327888610761902,-0.31453948252437963,2.624697270630229,1.8491003411131737,0.1313909326669764,1.903758598870702,0.11502350488299973,9.348291612587015,2.4957522216012005
241,12.1,-14.7,-19.2,5.62,2.9,-1.78,2.36,-12.0,-9.89,4.13,,,,,150,12100000000.0,-6.67821958040863,-10.889354369848558,3.8100844716785947,2.6225281455881198,-0.5031881808401703,2.22206525778152,-5.191807912473223,-1.3894969632221859,3.217504053887203
242,12.1,-13.7,-46.0,4.24,1.34,2.29,3.89,-8.99,-37.7,2.07,,,,,150,12100000000.0,-9.486168066088515,-30.5493760447403,3.9802229047539606,1.6786294549775103,0.42414638567208063,3.385736264464283,-6.8555573782897365,-21.656083715104273,2.710718513419588
243,12.2,-3.08,-6.88,-3.7,-0.281,-1.18,1.54,2.74,0.604,-6.21,,,,,150,12200000000.0,-6.924397468300535,-17.295833266784847,0.9407844374544698,0.2364063582677398,-0.10842795896352675,2.098018206989934,-2.652345936542397,-9.231692149396302,-1.2290417812766417
244,12.2,4.08,-1.54,-4.53,-0.9279999999999999,-2.32,-0.6609999999999999,9.92,5.82,-7.33,,,,,150,12200000000.0,-2.5238352197528338,-8.473437132464468,-1.224271630081224,-0.6205585700169849,-0.8426667689927934,0.1731291650352662,2.8548097684301688,-0.8306402149494954,-3.9234786150590577
245,12.3,7.23,1.23,-1.93,-1.21,1.7,-2.98,12.3,9.21,-4.48,,,,,150,12300000000.0,1.3766381638884586,-3.040048446602153,-1.503562714318561,-1.0543681876486641,0.0014950667918526284,-2.0267199586894145,6.992154880125247,4.773509698701754,-4.169261610902998
246,12.3,-2.64,5.24,8.24,0.5,-5.67,-2.48,1.13,14.0,5.86,,,,,150,12300000000.0,-0.22958034150285167,1.596321079161764,2.3524397494345166,0.08959589632041953,-1.8814334082369388,-2.3429606470390163,4.424312753857564,9.923244528547755,0.2600774582948189
247,12.4,-6.67,-4.98,-0.797,0.575,5.28,2.39,-3.56,3.76,-3.96,,,,,150,12400000000.0,-2.8050478514557415,-2.0860553913330975,1.1060529769908827,0.4468374119381096,0.49615256181983636,0.9590923152243991,0.9268864841163587,6.483250118304251,-1.6036842627946493
248,12.4,4.27,-4.14,-12.2,0.172,0.555,1.42,9.34,3.94,-14.5,,,,,150,12400000000.0,0.024201882879184566,-3.2361508161191694,-4.159800493269075,0.24456608137154998,0.5156898315704356,1.2806545516130379,4.612143546608948,5.063743567830957,-7.299233606225662
249,12.5,7.33,-37.3,-15.0,-2.19,-0.0342,-1.97,12.5,-29.3,-17.1,,,,,150,12500000000.0,2.945726606925358,-22.310023889840995,-8.449795663721948,-1.5471948699443596,0.33312717415645793,-0.9872352848945727,8.067318390106367,-14.116265019109118,-11.627659794708407
250,12.5,-2.22,-24.9,-2.16,-0.392,-1.21,-3.78,1.44,-15.9,-3.54,,,,,150,12500000000.0,0.8799977161123582,-23.76026720065462,-5.960617061839679,-0.6970092682120734,-0.17918890746448563,-2.9356682826032374,5.164306181537032,-15.111850544468421,-8.055812874271975
251,12.6,-13.3,-18.0,3.77,-3.08,0.153,-2.85,-11.2,-8.44,3.11,,,,,150,12600000000.0,-4.790459397575994,-20.534835825482574,-2.1097377405621134,-2.4508123529515,-0.06890265458299914,-2.87589987629769,-2.0038691934605826,-11.387979151631615,-3.12452560716699
252,12.6,-9.22,-10.6,6.95,-1.48,0.309,-1.72,-8.24,-0.894,7.62,,,,,150,12600000000.0,-6.561794040822541,-14.971876880687663,1.4756418744714046,-1.736326267186552,0.0565604946866151,-2.0694612185147907,-4.735526598740101,-5.530799638295578,1.620703678668952
253,12.7,-8.61,-5.59,2.42,-0.162,0.738,-0.483,-8.39,4.15,3.57,,,,,150,12700000000.0,-7.380853548519045,-9.718544265601587,1.8493704320021696,-0.5776736906117395,0.2827974516798677,-0.9626320672040876,-6.336322179024199,-0.12749351200035264,2.481593969285897
254,12.7,-5.8,1.74,3.4,0.465,0.659,1.39,-5.45,11.5,4.47,,,,,150,12700000000.0,-6.74868412034044,-3.30239256093256,2.4630301495071327,0.18970000303983348,0.4076961660632143,0.6787328302760847,-5.948079977443061,6.362353262577756,3.359756670828774
255,12.8,0.7490000000000001,1.91,1.56,1.29,-0.6809999999999999,2.24,2.03,11.6,2.28,,,,,150,12800000000.0,-3.7504258266034722,-0.3837407323899078,2.1056570934827508,0.9994847403220805,0.046250559703133964,1.7679848195400312,-2.4533838833264294,9.28572855630188,2.8828912089501455
256,12.8,0.29,-1.29,0.0742,1.64,-1.48,1.71,2.55,8.25,-0.0375,,,,,150,12800000000.0,-2.134694888278542,-0.8911958296842486,1.3017105306948926,1.4708829854505716,-0.4604625031320143,1.7275304762229997,-0.2617154543399631,8.707640112432449,1.5931250012883302
257,12.9,-17.9,-30.7,-1.94,3.95,1.21,3.56,-14.7,-21.6,-3.33,,,,,150,12900000000.0,-8.439102332087323,-17.58247964325078,0.018807687668094042,3.2954319576215685,0.09412873005941647,3.0059926371052743,-6.586221634336823,-8.208468479795501,-0.5811317015998163
258,12.9,-11.7,-27.8,1.57,1.09,0.987,2.54,-6.66,-19.6,-0.244,,,,,150,12900000000.0,-9.743106706272917,-23.303726093513355,0.6326900935439921,1.6723062844248637,0.3905607422083518,2.6808827166230507,-6.6185392389132005,-14.566614067516888,-0.4322403232241363
259,13.0,-0.326,-3.88,-4.83,-0.922,-2.1,0.826,5.47,3.72,-7.03,,,,,150,13000000000.0,-5.977288119038051,-12.427512714292881,-1.5291625344572324,-0.23701817641770062,-0.436301917885784,1.3867834472729224,-1.323309008139491,-4.360001319273064,-3.3460854675190728
260,13.0,8.12,-0.5720000000000001,-7.91,-1.02,0.33,-2.11,13.6,7.19,-10.2,,,,,150,13000000000.0,-0.33990597169789716,-5.789080631323288,-4.054370787222776,-0.8132671436037439,-0.1818907458853548,-1.0528234709381505,5.213656197729513,2.086593477984642,-6.373059071805495
261,13.1,5.1,3.62,5.1,-0.115,-2.26,-3.32,9.51,12.2,3.19,,,,,150,13100000000.0,1.835464798937965,-0.5205153975397732,-0.4315402265666042,-0.2993653941603086,-0.8718201158516878,-2.6345684178518383,7.095614864594701,7.73135753580324,-2.1496144653446754
262,13.1,-7.34,4.81,8.25,0.88,-4.17,-1.11,-4.89,13.9,5.36,,,,,150,13100000000.0,-1.83372336650275,2.464278679816207,3.0041682787000727,0.5686089108088945,-1.9668112613271538,-1.5709201272891513,1.845469308906095,11.174364567610699,1.1669436408249858
263,13.2,-1.99,-3.02,1.2,-0.642,6.54,2.71,1.32,5.74,-1.7,,,,,150,13200000000.0,-1.8962170289148956,-0.6066143614885164,2.290170995445386,-0.3223596171549603,0.8574381966571127,1.4157568925208817,1.615294207893621,8.141191957365958,-0.09921791845131489
264,13.2,1.39,-5.47,-9.42,-0.0443,-0.541,1.52,6.22,2.77,-11.7,,,,,150,13200000000.0,-0.5820875932102829,-3.3298414974642525,-2.344114315608682,-0.1177168455902759,0.3931586635211252,1.4884843493720674,3.6323267164946644,5.143279046216248,-5.222605638472283
265,13.3,6.86,-32.4,-9.36,-2.92,2.02,-2.69,6.36,2.79,-11.2,,,,,150,13300000000.0,2.393938183938899,-19.60752497476289,-5.120642017976766,-2.180105534774153,0.9332677112438199,-1.4267261363467356,4.827149242418237,3.829804163639482,-7.862471483774943
266,13.3,-11.9,-36.2,-14.2,-1.21,-1.76,-4.06,-8.72,-27.0,-15.4,,,,,150,13300000000.0,-3.322082497241266,-28.898394674849936,-8.713786318619535,-1.4661396580784527,0.03910659173690911,-3.2638868542783497,-1.1070066924323267,-13.377748341616597,-11.191357368225347
267,13.4,-14.3,-14.3,11.1,-2.88,2.2,-1.83,-12.6,-4.63,11.1,,,,,150,13400000000.0,-7.712055746002951,-20.72410033120347,-0.8725054271574146,-2.506694653140139,0.7565202043829428,-2.2635045479032714,-6.141365888176165,-8.495221805836085,-1.346566764255975
268,13.4,-9.31,-7.16,7.64,-1.62,0.556,-1.99,-8.51,2.55,8.74,,,,,150,13400000000.0,-8.35105984186379,-13.128953482558138,2.4963077183486067,-1.8541164292385495,0.6899477743799418,-2.072688160775005,-7.178915929281685,-2.3303680712229733,3.108080483739566
269,13.5,-7.16,-2.62,3.36,0.0522,0.175,0.233,-6.9,7.07,4.85,,,,,150,13500000000.0,-7.8747653696969895,-7.244520092361268,2.8381127990302706,-0.45112996445077824,0.5189858307156995,-0.46407469343003105,-7.056740408151438,2.916416152562336,3.877384540506309
270,13.5,-4.48,1.57,2.12,0.73,0.20800000000000002,1.68,-3.84,11.3,3.42,,,,,150,13500000000.0,-6.517228404021528,-2.30887581722485,2.5539205266723344,0.4181430240132401,0.41573897020867934,1.031785591624804,-5.647688291325918,7.595685659217885,3.675384540046892
271,13.6,1.99,2.06,2.85,1.72,-0.32,1.92,3.63,11.7,3.65,,,,,150,13600000000.0,-3.115262184256492,0.13745322614754318,2.671093564007248,1.3762671464423035,0.17147466092589334,1.6514676532999326,-1.5837153000790885,9.886494931315,3.6641737136237795
272,13.6,-1.04,-2.11,-0.376,1.94,-0.622,1.61,1.41,7.39,-0.5529999999999999,,,,,150,13600000000.0,-2.2853829762973668,-1.1209963490150296,1.4652101658132912,1.7911561077617584,-0.09195781253521743,1.6225368534565807,-0.2723565375028749,8.493084526268387,1.8016944355782931
273,13.7,-23.9,-51.4,-4.04,2.65,2.04,4.56,-20.4,-42.3,-5.51,,,,,150,13700000000.0,-10.92887908283856,-29.27446131179744,-0.7134697418168423,2.4232371573874034,0.6158491942024248,3.6719218376139033,-9.089013691876291,-19.856905993365626,-1.4274539967443063
274,13.7,-7.69,-20.4,-3.46,1.14,1.46,2.44,-2.26,-12.4,-5.05,,,,,150,13700000000.0,-9.633679694810185,-24.305253081322746,-1.800405614117225,1.4788166222174453,0.8961060966914497,2.812444825776257,-6.097651401443427,-15.694858537900688,-3.0273210453780344
275,13.8,0.345,-2.27,-3.29,-1.04,-2.06,0.521,6.42,5.23,-5.02,,,,,150,13800000000.0,-5.643292980678785,-11.96672880213686,-2.389910683073989,-0.37494989795377776,-0.08531698425930634,1.2137685467921724,-0.6144539394824333,-4.015718431365418,-3.907370932051434
276,13.8,7.02,-1.07,-6.4,-1.18,-1.01,-1.78,12.7,6.65,-8.39,,,,,150,13800000000.0,-0.5793529061756368,-5.865162751176873,-3.9768984687822844,-0.9674403708361159,-0.3923104522655794,-0.8748991438779776,5.21777258738408,1.9373168386897008,-5.88708649737021
277,13.9,4.21,2.58,6.07,0.29100000000000004,-1.29,-2.82,8.94,11.0,4.53,,,,,150,13900000000.0,1.3358674381083673,-1.1363382520453555,-0.0008511074057366841,-0.04126946273890841,-0.6903421170546233,-2.2319409957010716,6.848246613374871,6.995623258964331,-1.2864677962967601
278,13.9,-8.67,2.06,3.21,0.249,-2.87,-0.14800000000000002,-5.32,10.9,0.7170000000000001,,,,,150,13900000000.0,-2.6653914477105283,0.6534345380219848,1.2698391505467372,0.17235935465880034,-1.4139854552911333,-0.7780342568984076,1.5181014174578245,9.174837919262073,-0.40165309667546123
279,14.0,-0.424,-3.89,10.8,0.9159999999999999,5.19,2.56,4.09,4.54,8.65,,,,,150,14000000000.0,-1.769078613878308,-1.890637835334627,5.041388263702744,0.7196545233507954,0.7785285214412931,1.5508178707381368,2.644688832195059,6.5879185511678795,3.595933169790082
280,14.0,2.71,-8.59,-7.62,-0.34600000000000003,0.136,0.23600000000000002,8.17,-0.6709999999999999,-9.55,,,,,150,14000000000.0,0.02206575525322929,-5.641910590400283,0.030660003781361134,-0.06463229764033007,0.5652099511876967,0.6335066003242409,5.06498090088459,2.5363773378910084,-2.209857696846287
281,14.1,-0.11,-34.5,-8.28,-1.51,1.24,-4.27,4.8,-26.2,-9.78,,,,,150,14100000000.0,-0.03074618469838579,-21.80084623815377,-3.258273019250921,-1.1283755869442014,0.7892393091394078,-2.7875313673896214,4.948909482859759,-13.502736383243864,-5.5531472364426575
282,14.1,-6.21,-26.8,-9.69,-1.93,-2.79,-3.39,-3.2,-17.6,-10.9,,,,,150,14100000000.0,-2.501775743430126,-24.600095712227976,-5.803620627272234,-1.7183448649133695,-0.3990631353243087,-3.207856779672886,1.3793836708420053,-15.78961063658469,-7.914539605766032
283,14.2,-15.0,-16.0,14.5,-3.25,2.87,-2.53,-13.5,-6.32,14.5,,,,,150,14200000000.0,-7.49970628684135,-19.78451727229895,2.23151141800252,-2.8455928859993254,0.686261226839543,-2.734935240895555,-5.138340434562782,-10.504179097202051,1.9846532285584413
284,14.2,-8.49,-6.85,7.48,-1.42,0.384,-1.95,-8.16,2.89,8.57,,,,,150,14200000000.0,-7.895715987932006,-12.541902183950661,4.308594107928172,-1.7964031753518948,0.5859109223308276,-2.1873081390088944,-6.461939773697026,-3.0282625892120327,4.893016090208853
285,14.3,-7.8,-2.1,4.16,0.16,0.16399999999999998,0.332,-7.95,7.6,5.59,,,,,150,14300000000.0,-7.85744007797247,-6.695013827041522,4.249788118280555,-0.3565545088270925,0.445837086241715,-0.42965805536350343,-7.113765479563977,2.903866720845998,5.200833237350525
286,14.3,-4.16,1.19,2.2,0.6,-0.6,2.09,-3.79,10.9,3.4,,,,,150,14300000000.0,-6.378866075666421,-2.279841702200585,3.43858709584068,0.3474383021596238,0.09862062477318939,1.3282361039680588,-5.657832417097824,7.366881663969935,4.40551043132924
287,14.4,2.24,1.48,0.8,1.96,-0.0446,2.12,3.77,11.1,1.45,,,,,150,14400000000.0,-2.9322569276377135,-0.17453807112942687,2.3943696125917313,1.5342309319952299,0.051071577577488994,1.8806273189896752,-1.5280907663912533,9.450509441777672,3.100234136293089
288,14.4,-0.512,-2.82,1.44,2.06,-0.623,1.68,1.91,6.68,1.11,,,,,150,14400000000.0,-1.9644173648581127,-1.6558505510282482,2.016679074624436,1.9211797061534635,-0.1727192543091401,1.7406552717022765,-0.02207900254127182,7.904158729119067,2.221263980959484
289,14.5,-26.1,-48.3,-2.56,2.63,2.07,5.48,-22.6,-39.3,-4.4,,,,,150,14500000000.0,-11.616025870630486,-27.77399670630055,0.2054641731657576,2.4428483143432436,0.5718603870722256,4.3494904273523165,-9.912049291414714,-18.442684810919452,-0.702961590985089
290,14.5,-9.88,-20.2,-3.69,0.995,0.96,2.64,-4.1,-12.5,-5.68,,,,,150,14500000000.0,-10.921804357806577,-23.53297744449158,-1.336160842559481,1.3772793723446846,0.7007221899349283,3.1568273399005653,-7.366155239077972,-15.125795077747288,-2.901028654682212
291,14.6,0.0192,-3.34,-3.74,-1.42,-2.53,0.7120000000000001,6.4,3.76,-5.99,,,,,150,14600000000.0,-6.546592428696722,-12.226025698044147,-2.2874771361825528,-0.6814266093680508,-0.37187306034593925,1.451140404785227,-1.3360665978470312,-4.5847514657019985,-4.265246759496282
292,14.6,7.98,-2.3,-4.65,-0.982,-0.867,-1.44,14.1,5.0,-7.1,,,,,150,14600000000.0,-0.7375351901667946,-6.667999697549278,-3.222442593109243,-0.9026387768424247,-0.5362545081618914,-0.5659265913790554,5.425505525660314,0.764945639750751,-5.51719163612418
293,14.7,6.11,1.72,6.04,-0.395,0.49700000000000005,-3.55,11.3,9.84,4.16,,,,,150,14700000000.0,2.000734282260334,-1.9711832914258283,0.44315726994793003,-0.5290332690361954,-0.19321545004827118,-2.6478302448265483,7.998752935138635,5.830157088673281,-1.2433414355354024
294,14.7,-7.5,4.33,3.95,0.281,-5.07,-1.83,-4.1,13.2,1.34,,,,,150,14700000000.0,-1.7985262430244782,1.5571311660153389,1.8309858399555845,0.06712468156807483,-1.812301173872854,-2.0772532249895175,2.699048674965537,9.943610255515999,-0.1024304104832423
295,14.8,-3.56,-4.28,1.41,-0.245,6.72,3.21,0.387,4.33,-1.15,,,,,150,14800000000.0,-2.5029241658568835,-1.7113399004732606,1.664381215906817,-0.16258886617838555,1.0204108425234937,1.6115139579221047,1.6862852601096516,6.810392346769338,-0.5650806955382925
296,14.8,3.59,-7.69,-5.67,-0.5379999999999999,0.0336,1.78,9.34,0.109,-7.19,,,,,150,14800000000.0,-0.06641712828783763,-5.059059264754133,-1.2381908541241984,-0.4388791576575817,0.6927910191378178,1.7290618880718407,5.038897381292902,3.0700325281207124,-3.4909205935066216
297,14.9,4.36,-37.2,-7.98,-0.69,1.59,-3.46,10.1,-29.4,-9.4,,,,,150,14900000000.0,1.7036684115851457,-23.056210703151805,-3.9062532583067817,-0.6236958722115076,0.9906631601421227,-1.891199973978099,7.255848953610433,-15.053007762541032,-6.100615629443189
298,14.9,-8.27,-24.7,-6.34,-1.65,-1.64,-3.98,-4.28,-15.8,-7.21,,,,,150,14900000000.0,-2.284714517756594,-23.976642316538157,-4.869405496979855,-1.3790220835135085,0.11728666584255132,-3.348496735556224,2.2027174642956284,-15.469939098236441,-6.590565919848739
299,15.0,-18.1,-17.7,6.86,-2.72,2.7,-2.41,-15.7,-8.25,6.85,,,,,150,15000000000.0,-8.609108979592335,-20.46206983361841,-0.22750813375707946,-2.3659379370255937,0.9747439053916795,-2.6937341451358057,-5.6393393377473435,-11.44015413890868,-0.654653104367795
300,15.0,-8.63,-6.97,5.24,-1.64,0.00916,-2.2,-7.31,2.69,6.34,,,,,150,15000000000.0,-8.61746316165875,-12.907256051865016,1.936251167145418,-1.8316713777178744,0.6541713958838273,-2.3492698183625977,-6.371150892462923,-3.5534556394086065,2.4344766577276995
301,15.1,-7.87,-3.24,3.1,-0.111,0.136,-0.17800000000000002,-7.3,6.42,4.7,,,,,150,15100000000.0,-8.318559136494295,-7.494126788138565,2.396803250189698,-0.5653135929744615,0.48213921782089425,-0.8344362287497464,-6.7780214722906935,2.013195448476159,3.435025896844188
302,15.1,-5.73,1.97,3.03,0.5429999999999999,-0.191,1.41,-4.92,11.6,4.53,,,,,150,15100000000.0,-7.2834169906344695,-2.1947386677611567,2.647390047435286,0.25036890398786527,0.2586579367401237,0.7314434765686884,-5.9641389144548445,7.364038689857958,3.918612089704282
303,15.2,1.86,1.74,1.39,1.81,-0.0446,2.12,3.61,11.3,2.42,,,,,150,15200000000.0,-3.6270445186722053,0.00849759555269225,2.149779529391556,1.3982062740514025,0.15797672524433165,1.7002000422541532,-1.7703096075472233,9.560882491573839,3.2567627024089063
304,15.2,-1.18,-3.42,3.67,1.86,-0.99,1.86,1.48,6.01,3.77,,,,,150,15200000000.0,-2.648492801880777,-1.9112716747377112,2.7514048777243962,1.7380713441485536,-0.22314994912566183,1.8116879667766304,-0.3465529606258242,7.578969384019347,3.483429628393981
305,15.3,-27.4,-57.2,-4.29,2.25,2.56,5.72,-23.5,-48.3,-5.6,,,,,150,15300000000.0,-12.546403847072305,-32.869905238508366,-0.035222133728119775,2.1148340703173902,0.7008519321296445,4.538406676340863,-10.488624919390126,-23.60969082877645,-0.5281906023109406
306,15.3,-7.87,-17.4,-5.32,1.08,-0.0226,2.68,-1.94,-9.77,-6.76,,,,,150,15300000000.0,-10.676350812915059,-24.207612810136776,-2.1266663221465834,1.3532301146884436,0.46066689973200553,3.2418489037571416,-6.744008908082385,-15.885113745780934,-3.2804168931581303
307,15.4,0.32299999999999995,-4.21,-3.44,-1.35,-2.33,0.758,6.91,2.84,-5.25,,,,,150,15400000000.0,-6.277806641667841,-13.010054534370154,-2.6464164777743795,-0.6362587424268016,-0.4658305923051091,1.5089377289572625,-0.7630446443886267,-5.4337539265544965,-4.150266701397778
308,15.4,9.68,-2.44,-6.09,-1.25,-0.7070000000000001,-1.86,16.0,4.8,-8.16,,,,,150,15400000000.0,0.1035807545108316,-7.091408027138347,-4.009210338240458,-1.087952209324011,-0.5458985048961571,-0.8414749276981426,6.579793108549407,0.27818184716754857,-5.921131609832816
309,15.5,5.1,2.84,8.26,0.20800000000000002,-0.971,-4.18,10.2,11.1,6.83,,,,,150,15500000000.0,2.101605063040214,-1.5303682944873707,0.846314142239982,-0.1341738196883694,-0.6870316134227896,-3.1706694035289433,8.165578447631775,6.318343816505696,-0.2897016484578421
310,15.5,-12.0,3.15,5.69,0.713,-4.87,-1.13,-8.93,12.1,3.01,,,,,150,15500000000.0,-3.537503438204898,1.0903794115019565,2.7631966838901114,0.48931836817154184,-2.0757712439855407,-1.7469520270639207,0.6770783727685021,9.545356170554733,1.167583818650914
311,15.6,-0.764,-3.43,2.32,-0.675,6.82,3.13,3.34,5.12,-0.168,,,,,150,15600000000.0,-2.4284036758187932,-1.4407833434487154,2.5878021333878984,-0.3675818307097225,0.877612455247466,1.6555596584727135,1.8435371660316484,7.075358300171306,0.5777344629493891
312,15.6,2.06,-7.06,-6.25,-0.361,-0.621,1.06,7.57,0.893,-7.86,,,,,150,15600000000.0,-0.6335303341312344,-4.587234174984706,-0.9097468228015559,-0.3627378199006597,0.3800752135564663,1.240054475463961,4.351941196478263,3.6246956110096757,-3.148720031514518
313,15.7,4.48,-39.7,-2.88,-0.982,1.52,-3.69,9.79,-31.6,-4.38,,,,,150,15700000000.0,1.4113257200004405,-24.248443469062487,-1.6894720576049806,-0.8184945000659251,0.7585286459795437,-2.1995052477150336,6.73401343050146,-16.035851129898276,-3.6925045208830163
314,15.7,-5.78,-24.2,-7.69,-1.87,-1.64,-3.6,-2.25,-15.1,-8.75,,,,,150,15700000000.0,-1.4644226082729273,-24.22131823011355,-4.064173383215612,-1.5923681170337427,-0.03777951347598574,-3.176590791602117,2.7986810138768305,-15.513509151817855,-5.926104848485741
315,15.8,-18.9,-16.9,8.84,-2.8,3.24,-2.2,-16.9,-7.33,8.78,,,,,150,15800000000.0,-8.436757325003297,-20.121784313570906,1.042636884705126,-2.4811456005144814,1.0504387152341486,-2.495251028209654,-5.830074614900148,-10.945910733983542,0.5687225115254995
316,15.8,-10.4,-4.99,7.95,-1.63,0.183,-2.04,-9.4,4.7,9.0,,,,,150,15800000000.0,-9.221840743375893,-11.64882100728124,3.7762169787364357,-1.8547303081733386,0.7624502714125126,-2.1776352246940025,-7.393834698339857,-2.2131978780576773,4.292325278572189
317,15.9,-8.15,-2.66,2.67,0.22899999999999998,-0.485,0.175,-7.79,7.02,4.16,,,,,150,15900000000.0,-8.793220854215704,-6.615577927419482,3.3384330462539262,-0.3211730373643429,0.3482985169101657,-0.5362681164212975,-7.567369835603894,2.9402807527690342,4.233884865207563
318,15.9,-3.11,2.56,2.88,0.68,-0.267,1.66,-2.31,12.3,4.11,,,,,150,15900000000.0,-6.5205505105379675,-1.477761274658838,3.1570087964296305,0.41565753718431064,0.14402027112135007,0.9960060581655565,-5.264446055996052,8.164376981483123,4.179172215747493
319,16.0,2.54,1.84,2.02,1.74,-0.044,1.73,4.23,11.5,2.75,,,,,150,16000000000.0,-2.8973156400100404,0.3800017501292623,2.7070390035081995,1.390330227531753,0.081597803501026,1.5080929018826537,-1.1055251342772046,10.026143858892118,3.547990330864888
320,16.0,-1.08,-2.14,0.0934,1.6,-1.83,1.61,1.35,7.36,-0.11599999999999999,,,,,150,16000000000.0,-2.170587030946823,-1.0310600575231503,1.6726946919621501,1.544640331391192,-0.553050014580804,1.5791906143055048,-0.029913679626486056,8.538044619030448,1.929819829340988
321,16.1,-28.7,-53.9,-5.03,2.54,2.5,5.78,-25.1,-44.9,-6.63,,,,,150,16100000000.0,-12.779467498123598,-30.634746248467565,-0.9798882923049015,2.2771924235718455,0.4605583308569162,4.509976753412969,-11.011545179686133,-21.28822284397612,-1.8505526316126968
322,16.1,-7.8,-20.3,-4.96,1.08,0.304,2.66,-2.13,-12.5,-6.75,,,,,150,16100000000.0,-10.78822208320527,-24.84785892121484,-2.5550124546344968,1.3960980368266882,0.4085811801863779,3.2193003131318534,-7.121097722616703,-16.383105535642304,-4.01435234083416
323,16.2,0.807,-4.03,-2.95,-1.51,-2.73,0.6629999999999999,7.14,3.18,-5.0,,,,,150,16200000000.0,-6.151394216728174,-13.191008238309292,-2.7113282923197537,-0.7426949429383725,-0.6334233992376284,1.4358418175412417,-0.8742059438820107,-5.464023304942238,-4.449655336853458
324,16.2,8.64,-1.86,-5.94,-1.21,-0.43799999999999994,-1.72,14.6,5.55,-8.24,,,,,150,16200000000.0,-0.23644493003533107,-6.846269675854726,-3.989071037718599,-1.086616189797565,-0.5685431011946998,-0.7658998538303003,5.904072633368018,0.6834172233862521,-6.1236290665499915
325,16.3,4.8,2.0,9.37,-0.153,0.21,-3.77,9.78,10.3,7.85,,,,,150,16300000000.0,1.7775854140017318,-1.8928474175101329,1.297764292850121,-0.39950524587827796,-0.3100678799440158,-2.861775616066712,7.601873029319883,6.0508809754579005,0.04770660279630867
326,16.3,-7.82,3.7,3.64,0.37,-5.94,-1.77,-4.77,12.7,1.11,,,,,150,16300000000.0,-2.060405100240628,1.238838155814944,2.2247011370968077,0.16682541899271908,-2.1791975083098616,-2.1000746092156444,2.1825319644136156,9.76206450549685,0.5168595504862501
327,16.4,-1.81,-3.47,-3.76,-0.483,7.05,2.89,1.66,5.31,-6.38,,,,,150,16400000000.0,-1.9602702683628443,-1.3978510621656226,-0.14373672402325433,-0.31142481657745,0.884883251838049,1.381359498369132,1.9536434920685157,7.277159498863676,-2.5290804944667826
328,16.4,0.632,-4.07,-6.9,-0.207,-0.0275,0.937,5.59,4.23,-8.56,,,,,150,16400000000.0,-0.9236440540754742,-2.894106926116895,-2.8175193620067285,-0.23457157292652442,0.5819732851709647,1.0713424177394666,3.546503114914385,5.576397584773444,-5.19258553884748
329,16.5,5.35,-40.1,-10.3,-1.84,0.22399999999999998,-2.82,10.3,-31.8,-11.9,,,,,150,16500000000.0,1.5851312820073211,-23.72735055178471,-5.778701635295926,-1.4161143455672591,0.463126656209127,-1.6435371704689379,6.504786311355746,-15.285113807100076,-8.154858534959452
330,16.5,-2.15,-26.1,-7.46,-0.843,-0.691,-4.5,1.05,-16.9,-8.53,,,,,150,16500000000.0,0.09148491981936124,-25.055903366503614,-6.444073340294764,-0.9943209516040832,0.07995822157085969,-3.6364105624521375,4.115386768428789,-16.186456943847972,-8.320536488847132
331,16.6,-16.6,-18.7,5.52,-2.92,1.77,-2.61,-0.758,-16.4,-7.66,,,,,150,16600000000.0,-6.583294031947308,-21.49694907480968,-1.7093065368688691,-2.4115577256187555,0.6410497278481802,-2.9203128463975165,1.9806618884284353,-16.30564507644864,-8.028816038518531
332,16.6,-8.61,-8.63,5.61,-1.26,0.29100000000000004,-1.79,-8.2,1.12,6.55,,,,,150,16600000000.0,-7.39375588127894,-14.292168561365031,1.1872997707466784,-1.5640489435280396,0.5248337094171931,-2.1317254897070432,-2.478847028332611,-6.579579316139862,-1.5902045083297383
333,16.7,-9.47,-5.07,0.654,0.0754,-0.24600000000000002,0.00252,-8.93,1.08,6.93,,,,,150,16700000000.0,-8.224027847768145,-9.128263791827663,0.9762470583872743,-0.35746820774614263,0.2689179910483744,-0.6427227256529757,-5.304692382568472,-2.3044106096008337,2.1726720530443293
334,16.7,-4.86,2.6,4.53,0.568,0.966,1.73,-4.8,12.3,5.74,,,,,150,16700000000.0,-6.878782593978389,-2.5610841133302626,2.382640349129918,0.3236460997926992,0.5003482523072609,1.0126588797484792,-5.083618409526863,5.846992633871424,3.748152326364746
335,16.8,1.82,1.82,2.47,1.64,-0.531,2.18,2.86,11.5,3.24,,,,,150,16800000000.0,-3.4002155122398254,-0.10791903724178553,2.417212831198181,1.292439452121401,0.15794206539087158,1.8270798366414072,-1.604017798808545,9.002199866098406,3.5237311309280517
336,16.8,-0.742,-2.1,-0.584,1.66,-1.67,1.79,1.25,7.5,-0.78,,,,,150,16800000000.0,-2.337218376975754,-1.2233742596717414,1.2294866729733651,1.5629519539947576,-0.4489321358533877,1.8012102558858396,-0.35385172902696516,8.163752014400297,1.6230244986149605
337,16.9,-25.3,-49.0,-7.25,2.27,2.66,5.13,2.33,7.08,-2.13,,,,,150,16900000000.0,-11.519833560244514,-27.975644995514454,-2.1262593953889346,2.083316147548336,0.583229024379649,4.123612867967789,0.8217752323657574,7.558859394767752,-0.034467246031402166
338,16.9,-8.37,-21.5,-4.54,0.991,0.11699999999999999,2.57,-3.26,-13.3,-6.21,,,,,150,16900000000.0,-10.260242629068816,-24.349641580146063,-3.0814941552683566,1.279407231448205,0.4284416383005737,3.039701028805977,-0.9661943066421164,-4.083443605671687,-2.761839346421104
339,17.0,1.56,-3.74,-3.67,-1.14,-2.1,0.583,7.35,3.92,-5.64,,,,,150,17000000000.0,-5.533431030267812,-12.809380992002003,-3.3143946251734593,-0.5011972501026458,-0.41099742644738724,1.325730150838542,2.676608424647728,0.383651827347947,-4.032954724982291
340,17.0,9.53,-1.47,-4.99,-1.08,-0.405,-1.68,15.0,6.38,-7.08,,,,,150,17000000000.0,0.4903031542566243,-6.459954158087769,-3.977513230991126,-0.927177151094024,-0.4090062896298202,-0.7712827963037732,8.074712815786837,3.7304936510027185,-5.378656600978429
341,17.1,5.99,3.13,6.97,0.179,-1.98,-3.39,10.4,11.7,5.3,,,,,150,17100000000.0,2.689583718970341,-1.090109614493672,0.3549511263468146,-0.1130669889856426,-0.9305740160638948,-2.5982878570671053,9.093275021150205,8.178646968207353,-0.6625176727648334
342,17.1,-9.28,4.37,7.9,0.84,-4.73,-0.8290000000000001,-6.73,13.4,5.07,,,,,150,17100000000.0,-2.09694799131812,1.967250032181001,3.340894661595471,0.5883590847580369,-2.191978148368088,-1.3639057169399518,2.1620913486560767,11.092927558573683,1.8692006032412976
343,17.2,-1.53,-3.03,0.251,-0.833,7.11,2.81,2.06,5.69,-2.43,,,,,150,17200000000.0,-1.8702304379155312,-0.8309338696463393,2.118072773266391,-0.4577146583976275,0.8962656637435527,1.54811030648179,2.1173715113458726,8.077301569898824,-0.029505201754319144
344,17.2,-0.19899999999999998,-6.62,-5.85,-0.0699,-0.507,1.76,4.9,1.56,-7.64,,,,,150,17200000000.0,-1.2019200064092765,-4.072490990216236,-1.035281856856333,-0.17229576886780307,0.43038341146251485,1.6959397509530547,3.3362664467595105,4.439691374712721,-3.390616140271754
345,17.3,5.42,-38.3,-7.94,-1.19,1.35,-3.29,10.7,-30.3,-9.8,,,,,150,17300000000.0,1.4461279048748619,-23.238004524169227,-3.7678153046501377,-0.9212927975176868,0.7356948437872987,-1.7826094830710477,6.561855859890116,-14.950151228422099,-6.221266681425691
346,17.3,-7.37,-26.8,-8.51,-1.53,-1.39,-4.64,-4.05,-17.6,-9.69,,,,,150,17300000000.0,-2.079364473393537,-25.23252476167678,-5.644528958279519,-1.369281343666048,0.029967126020843393,-3.776130003185907,1.9134677603358483,-16.429155707012097,-7.753203382401407
347,17.4,-16.7,-17.3,8.42,-2.99,2.66,-2.33,-15.1,-7.6,8.13,,,,,150,17400000000.0,-7.926029021536545,-20.79074874327565,-0.07850947722200541,-2.562077206774279,0.9031343994385884,-2.7672059146427803,-5.539064809389032,-11.501191804285936,-0.7385201898181393
348,17.4,-11.1,-6.69,8.46,-1.58,0.721,-2.15,-10.6,3.07,9.28,,,,,150,17400000000.0,-9.195272401881855,-12.895108551402295,3.3005948059652486,-1.8393005750417855,0.8426660381504336,-2.336598856887731,-7.755943041966006,-3.3683296700725016,3.686074844232918
349,17.5,-8.66,-3.19,1.53,0.17800000000000002,-0.055,0.257,-8.93,6.54,2.71,,,,,150,17500000000.0,-8.981221590013297,-7.460784006001792,2.5998841516603,-0.3546334116880483,0.5446421659446761,-0.5271182305311397,-8.270223841146104,2.1619715110756994,3.254999618236081
350,17.5,-4.43,1.76,2.13,0.465,-0.0983,2.0,-8.45,6.56,2.55,,,,,150,17500000000.0,-7.161227822454313,-2.297654420189734,2.4139281414325926,0.2485899407543921,0.33118626300416937,1.2359807420705649,-8.348972409427065,4.616716431168597,2.943642447229138
351,17.6,1.33,1.37,-0.201,1.81,-0.622,2.13,2.67,11.1,0.413,,,,,150,17600000000.0,-3.765660081934131,-0.2439705816684783,1.3790736526069296,1.3977365695006316,0.01472976047159369,1.8597127930165556,-3.5222521516711316,8.235339773345572,1.8260054962506052
352,17.6,-1.3,-3.56,3.91,1.48,-1.85,1.98,1.01,5.97,3.64,,,,,150,17600000000.0,-2.7796641661534998,-2.1007638118686067,2.3806845702436092,1.4582797744391636,-0.6043579263791289,1.9436337912966835,-1.5369569477811333,6.970947807199028,2.6271409532941785
353,17.7,-26.6,-57.9,-4.9,2.27,3.44,5.38,-23.0,-49.0,-6.63,,,,,150,17700000000.0,-12.305208233925518,-33.34525400027496,-0.5006371280948483,2.0556792643619364,0.7383632817688736,4.341089462591221,-10.93856901528362,-24.2690502819626,-1.4611975152095686
354,17.7,-6.57,-16.6,-4.18,0.6779999999999999,0.10800000000000001,2.37,-1.08,-8.6,-5.84,,,,,150,17700000000.0,-10.011748702493241,-23.968837156075494,-1.9567402380596894,1.0417524221057122,0.5290835525906971,2.965915968060701,-6.620148705851255,-15.523422270864035,-3.395058859375027
355,17.8,1.81,-2.93,-3.87,-1.34,-2.6,0.619,7.86,4.53,-5.81,,,,,150,17800000000.0,-5.284334838105219,-12.188250790688004,-2.713910310667514,-0.7111393879749259,-0.5097677897277478,1.3285390337435559,-0.27730432277863226,-4.330671307715628,-4.461597270987284
356,17.8,9.46,-1.4,-4.09,-1.13,0.49200000000000005,-2.41,15.1,6.39,-6.05,,,,,150,17800000000.0,0.6117956927233781,-6.147426389963056,-3.2584961157795056,-1.0194070781519802,-0.17718227662309027,-1.2797340581597358,6.458527736141747,1.6530355994863175,-5.163102056619393
357,17.9,3.59,2.81,5.27,0.91,-1.81,-3.44,8.02,11.4,3.68,,,,,150,17900000000.0,1.802753506994988,-1.1317625452134736,0.11664536970488815,0.4005733668300413,-0.7192754637933513,-2.78689059617808,7.1425109321386895,7.09327110128527,-1.2576204044149462
358,17.9,-12.6,0.637,3.93,0.0492,-0.32799999999999996,0.755,-9.71,9.65,1.42,,,,,150,17900000000.0,-3.956781775031428,-0.14135323115411091,1.6257756420232494,0.14197407435509535,-0.5893725587021571,-0.3158136250505308,-0.23951640296354437,8.520300607170567,-0.0750718996587052
359,18.0,-1.81,-3.38,11.1,0.102,5.2,3.16,2.63,5.15,9.2,,,,,150,18000000000.0,-3.098302500760772,-1.954816549187223,5.375188035289029,0.11255446328903743,1.3326909905331825,2.1091633738774513,1.0174386826825466,6.639178602388505,4.021185485668335
360,18.0,1.52,-10.8,-6.5,-0.727,-1.27,0.993,7.07,-2.89,-8.16,,,,,150,18000000000.0,-1.251483740103363,-6.907630688323702,0.6755974707447985,-0.5053301267253242,0.4686012191020458,1.3304477106182941,3.6686859916330556,1.3204992469387893,-1.3585325314614343
361,18.1,4.83,-31.2,0.318,-1.02,2.48,-4.49,10.0,-23.0,-1.05,,,,,150,18100000000.0,1.180448375103483,-20.51001576640685,0.5340787219818186,-0.884110285111353,1.1363828145288077,-2.730314010440913,6.442037283870086,-12.253906400415678,-1.2222717136910066
362,18.1,-6.51,-23.2,-7.62,-1.76,-1.92,-3.7,-3.52,-13.9,-8.62,,,,,150,18100000000.0,-1.894894744155064,-22.01625874165847,-2.6928875182726237,-1.5287364247884483,0.12166799840587528,-3.40683655511413,2.0782940095472666,-13.172667847258065,-4.4894161207257275
363,18.2,-20.0,-18.2,8.1,-2.59,3.05,-1.92,-18.4,-8.5,8.03,,,,,150,18200000000.0,-9.134967949138254,-19.87936512344018,1.5783841438756907,-2.309791598927039,1.0938701216989912,-2.369512678952857,-6.89196114146634,-10.564633852149381,1.0396785601645204
364,18.2,-9.38,-5.29,6.26,-1.02,0.691,-1.96,-8.74,4.46,7.1,,,,,150,18200000000.0,-9.23295416845582,-11.710126701535469,3.4311277564005502,-1.3605472059180919,0.9601177982854123,-2.0838072823673888,-7.70147087591889,-2.1786844907051126,3.716168494021071
365,18.3,-7.55,-1.52,3.42,0.254,-0.777,0.23199999999999998,-7.5,8.23,4.45,,,,,150,18300000000.0,-8.559955595559718,-6.004218746797541,3.426723991148256,-0.17229332926731233,0.3833971094361338,-0.46813399126957367,-7.613219130177108,3.6308878327772227,4.040258920379784
366,18.3,-2.73,2.58,3.18,0.868,0.13,1.74,-2.17,12.3,3.9,,,,,150,18300000000.0,-6.228607362058909,-1.1975305730209103,3.329083311803232,0.5933284723472098,0.29926962104227345,1.072418698807875,-5.228886497635662,8.469524020075998,3.9783147903671434
367,18.4,2.91,1.39,1.06,1.79,-0.491,1.66,4.36,11.1,1.17,,,,,150,18400000000.0,-2.5741581898860346,0.2513435777042372,2.4310964538655817,1.4740395002635034,0.03690121049363265,1.482357544203445,-1.0285970957088528,9.93771563953175,2.738046171733295
368,18.4,-1.45,-2.6,1.8,1.65,-1.33,1.52,0.669,6.93,0.9790000000000001,,,,,150,18400000000.0,-2.124617183163903,-1.345251234473277,2.1813408158761605,1.6035406482032815,-0.4169080986325574,1.5086196085227381,-0.28498634210362683,8.258969077689015,1.9611782173379142
369,18.5,-28.5,-59.5,-2.96,1.49,2.43,5.53,-25.1,-50.5,-4.93,,,,,150,18500000000.0,-12.671902034860684,-33.908697468748855,0.14666171059622357,1.5199784563509675,0.5282614404685115,4.314223209062202,-11.154886517960989,-24.537153797185937,-1.0822525882748315
370,18.5,-6.64,-15.9,-3.75,0.557,-0.191,2.0,-1.37,-7.83,-5.71,,,,,150,18500000000.0,-10.259797125929879,-23.824821660785066,-1.3954372063994165,0.8112578342171372,0.2894676458152503,2.699655076485743,-6.868741869331416,-15.212111511307233,-3.126058314405071
371,18.6,1.1,-4.11,-2.6,-1.34,-2.21,0.16399999999999998,6.78,3.6,-4.73,,,,,150,18600000000.0,-5.717113623355098,-12.78561085772551,-1.8721413625101269,-0.7719975073684416,-0.5403521381766792,0.9306001908748156,-0.8900846059941196,-4.712194184349515,-3.834425673663402
372,18.6,9.3,-2.47,-5.9,-0.983,-0.0116,-1.94,14.5,5.55,-8.14,,,,,150,18600000000.0,0.2880988183939248,-7.009438735274008,-3.4661613342362045,-0.9272884176891985,-0.3648071659312646,-1.0721364785145084,5.85134552577092,1.0156154245313003,-5.735946501982204
373,18.7,3.94,3.13,6.87,0.18,-1.16,-3.35,8.03,11.9,5.1,,,,,150,18700000000.0,1.748462176289189,-1.3319131877104713,0.6243613250941022,-0.11236039826682576,-0.6288100663626821,-2.6613374180651928,6.805677194187883,7.090698208433957,-0.9503419386883394
374,18.7,-12.8,2.77,-0.7040000000000001,0.507,-2.26,0.72,-10.3,11.8,-3.53,,,,,150,18700000000.0,-4.069340651628227,0.964931554292046,0.0986640213344605,0.3434685935735199,-1.1703628454413049,-0.3022738387564732,-0.6872464575805131,9.719179423994914,-2.0896262051274515
375,18.8,-1.2,-3.32,12.4,-0.214,5.77,3.05,2.78,5.33,10.1,,,,,150,18800000000.0,-2.9219164456362563,-1.4343933344538917,4.9669019416164915,-0.06681003656648116,1.1338279302011482,2.0365128493826794,0.8315365867577382,7.269373505497048,3.2938198205983125
376,18.8,0.21100000000000002,-9.23,-6.08,-0.6609999999999999,-0.409,0.7440000000000001,5.29,-1.06,-8.02,,,,,150,18800000000.0,-1.6690905681737458,-5.799502100278152,0.5951045755925248,-0.5041144010650023,0.621611206733594,1.1347631733353352,2.784509563042215,2.6203614590259345,-1.7028337176070854
377,18.9,4.57,-31.7,-3.06,-0.5920000000000001,1.73,-3.64,9.39,-23.3,-4.78,,,,,150,18900000000.0,0.8258672379597563,-20.302350337883446,-0.8513983897431534,-0.5687953294360267,0.9895947460834319,-2.196454230177711,5.677960490786673,-11.84700152731197,-3.06183840944497
378,18.9,-5.59,-25.6,-8.61,-1.9,-3.07,-3.6,-2.66,-16.4,-10.0,,,,,150,18900000000.0,-1.739782004318655,-23.268741664890445,-3.9218549753391834,-1.5485183553984343,-0.3581850237886369,-3.175668382778251,2.0256232809714163,-14.388242246686065,-6.12601910236179
379,19.0,-16.7,-16.7,4.7,-3.79,2.97,-2.85,-15.5,-6.99,4.26,,,,,150,19000000000.0,-7.72224261111409,-19.590609685505722,-0.5097669078334124,-3.1981754141550707,0.7467677703554051,-2.9484586890288873,-5.651252310621335,-10.258937851198079,-1.5391210464876393
380,19.0,-8.2,-7.57,6.49,-1.69,-0.626,-2.31,-8.16,2.21,7.32,,,,,150,19000000000.0,-7.913293535145838,-12.859732501503043,2.260381854498273,-2.0882077408778947,0.2910107900619078,-2.503024064735822,-6.750177148950396,-3.2994417001089085,2.373435304147942
381,19.1,-8.7,-4.73,1.73,0.262,0.47100000000000003,0.245,-9.37,4.97,2.99,,,,,150,19100000000.0,-8.227890491913294,-8.30753148249412,2.050483917559432,-0.35853181176330895,0.35076695198279956,-0.5858053311234701,-7.897757060861875,1.316119523640742,2.6457359188753626
382,19.1,-5.4,2.33,4.62,0.461,0.19,2.0,-5.56,12.1,5.61,,,,,150,19100000000.0,-7.097041861245916,-2.3511016231228608,3.067366594513438,0.2446167604957763,0.2973925474238373,1.2182379730529245,-6.8737323930279945,7.335106705219134,3.9548782697202896
383,19.2,1.06,1.39,0.426,1.68,-0.44299999999999995,2.61,2.09,11.1,0.9670000000000001,,,,,150,19200000000.0,-3.8351122031354405,-0.2562914196281203,2.022049123104032,1.3010117805229557,0.05158325834359506,2.1892309346067176,-2.9472838636105485,9.436469570416808,2.635306973492757
384,19.2,-0.948,-2.96,2.75,1.75,-1.09,2.09,1.21,6.6,2.38,,,,,150,19200000000.0,-2.68058129562608,-1.7702188649561308,2.310134756977426,1.6314524066811273,-0.32742080185053796,2.120000255934973,-1.126238711545931,7.853303474243119,2.5225528471920895
385,19.3,-29.2,-54.5,-2.69,2.64,2.41,5.74,-25.8,-45.5,-4.48,,,,,150,19300000000.0,-13.285465143789308,-31.295982957913054,0.3313377624015359,2.373710484853812,0.5813991138003354,4.6455716158063005,-11.934264588536527,-21.92566514939409,-0.5700657108925191
386,19.3,-8.67,-18.2,-5.63,0.8640000000000001,0.304,2.56,-3.11,-10.4,-7.61,,,,,150,19300000000.0,-11.439781040245022,-23.962956487272592,-2.027854121955608,1.2626130241941853,0.4893029917812404,3.190527198186051,-8.068908067243452,-15.492653323316164,-3.6791935188357807
387,19.4,-0.91,-3.0,-2.49,-1.36,-2.38,0.846,5.3,4.27,-4.64,,,,,150,19400000000.0,-7.229013729222189,-12.224859066595398,-2.2107477693037665,-0.6675442873310042,-0.46330163643232053,1.5548168397726567,-2.2128284376333944,-4.462194207490786,-4.103525558624
388,19.4,9.31,-3.15,-5.91,-0.996,-0.93,-1.63,15.2,4.3,-8.33,,,,,150,19400000000.0,-0.6152066574743458,-7.143439432496859,-3.674722075267291,-0.9092769296870968,-0.6182448444063211,-0.6671398624828202,5.414638728932489,0.4283954105436001,-5.970112402929004
389,19.5,6.51,2.43,9.14,-0.308,0.8690000000000001,-3.88,11.4,10.8,7.43,,,,,150,19500000000.0,2.2341012437440173,-1.7828422494883567,1.3966880267617512,-0.4667567987064491,-0.12448162510658056,-2.908661664234698,8.036449673032632,6.217272072607922,-0.05206557653848698
390,19.5,-12.6,3.18,-4.95,-0.0455,-3.76,0.10099999999999999,-9.44,12.1,-7.51,,,,,150,19500000000.0,-3.6979262246980835,0.9960752484761142,-1.1150056139338216,-0.1567255894124429,-1.3314686503825457,-0.8089057722533748,0.3811141365825055,9.500697283861221,-3.3457996691337097
391,19.6,-2.55,-4.38,26.2,1.43,6.83,3.44,1.76,4.2,24.1,,,,,150,19600000000.0,-3.2388805506452023,-2.0142299243241064,9.694873426107398,1.0110524440180044,1.378127529901369,2.1554357500869674,0.9851174855956614,6.542130644110541,8.775407010629838
392,19.6,2.73,-9.42,-4.86,-0.987,-0.8170000000000001,0.28,8.25,-1.45,-6.38,,,,,150,19600000000.0,-0.8519774276924221,-6.1610520374999656,3.934800722781307,-0.45944871453263314,0.6493482618036676,0.8469972282525149,4.167406546388957,2.0813495188734707,2.0821489623950677
393,19.7,3.17,-34.3,-0.467,-1.72,0.516,-4.43,8.11,-25.9,-1.6,,,,,150,19700000000.0,0.7563761911442395,-21.91730778054223,2.192793681025985,-1.3871732014099631,0.6050768158994448,-2.8346144891947542,5.894409137436108,-13.536347301194048,0.45595884202806114
394,19.7,-7.38,-25.8,-7.35,-2.12,-1.6,-3.35,-4.55,-16.4,-8.26,,,,,150,19700000000.0,-2.4972895149255856,-24.09140047585043,-1.5837547459364703,-1.92650964248118,-0.12700561852477643,-3.1941843286562546,1.3193689374623983,-15.134685303790825,-3.393371150760249
395,19.8,-18.6,-16.1,13.6,-2.56,3.08,-2.36,-17.2,-6.4,13.9,,,,,150,19800000000.0,-8.936622720946046,-19.61665795122603,4.425197038158078,-2.392737758086385,0.937715747304705,-2.612197423571243,-6.792804589573329,-10.259449848416274,4.244100553393744
396,19.8,-9.74,-3.82,6.66,-1.06,0.721,-1.8,-9.39,5.93,7.72,,,,,150,19800000000.0,-9.257886175217974,-10.77140223317949,5.30961740815785,-1.4118863702535172,0.8657664267704916,-2.0455502007310393,-7.930473040440667,-1.2233624355575916,5.779202207183336
397,19.9,-7.63,-0.6509999999999999,3.51,0.0785,-0.14,0.389,-7.83,9.07,4.76,,,,,150,19900000000.0,-8.606908780563355,-5.104536151910816,4.597421103488463,-0.3150108066932771,0.5318533760601911,-0.3470333275288362,-7.886462074034202,4.52184335212815,5.329080228423794
398,19.9,-3.25,3.36,3.09,0.504,-0.66,2.26,-2.86,13.1,4.18,,,,,150,19900000000.0,-6.464727822450725,-0.36486363477700756,4.000861084643599,0.28775433219585334,0.1361597092921603,1.4718201431788667,-5.684684471325324,9.30971312571614,4.821598537403039
399,20.0,2.79,1.29,0.0814,1.95,-0.439,1.94,4.34,11.0,0.662,,,,,150,20000000000.0,-2.7638431435881365,0.5617685474234957,2.4497393441857094,1.511112743902756,-0.0547925152528044,1.798456038352634,-1.2934993209351209,10.253141114548072,2.9845468399497523
400,20.0,-3.05,-4.51,4.83,2.06,-0.98,1.7,-0.705,5.0,4.46,,,,,150,20000000000.0,-2.878274748045521,-2.2781417499415464,3.3917244418051036,1.9150757474272235,-0.36196011573608966,1.7297660760478752,-1.0357146973444324,7.321117898756281,3.6361683313507083
401,20.1,-27.2,-67.4,-0.821,1.74,2.32,6.67,-23.2,-58.6,-2.56,,,,,150,20100000000.0,-12.604320210417413,-38.742785214222586,1.7245441087628397,1.7862257376852817,0.5284468788407132,5.176427726070951,-10.744497316607404,-29.472533633069528,0.8996827439438566
402,20.1,-4.9,-13.5,-5.31,0.33299999999999996,-0.29100000000000004,2.69,0.987,-5.85,-7.17,,,,,150,20100000000.0,-9.523429995234666,-24.608220168797295,-1.059367754548947,0.7166991878548363,0.25639165545134,3.4417174084308537,-5.605664655937979,-16.28769511506593,-2.66422478011788
403,20.2,0.912,-3.59,-2.82,-1.54,-2.39,0.47,7.33,3.53,-4.89,,,,,150,20200000000.0,-5.350392831032732,-12.839178091747558,-1.756135700457198,-0.9441574843951266,-0.6222067169249064,1.3684341530338107,0.06063811004249864,-5.22651461183289,-3.6472196206686647
404,20.2,9.85,-3.28,-6.16,-1.06,0.22699999999999998,-2.3,15.9,4.15,-8.31,,,,,150,20200000000.0,0.7281114387791723,-7.486566492973764,-3.4989593366860623,-1.029413740180263,-0.340271272293242,-1.190928651626273,6.998868254641591,0.006955840462328666,-5.706497530668576
405,20.3,4.11,2.47,7.08,0.62,-1.18,-4.22,8.88,10.9,5.57,,,,,150,20300000000.0,2.080499142412296,-1.91143934539022,0.6876503384698358,0.18450076142858762,-0.61906002094673,-3.304225982879206,7.822874056177939,6.086871942369524,-0.7263271941578395
406,20.3,-12.3,3.83,0.871,-0.0449,-2.24,-0.284,-9.34,12.9,-1.53,,,,,150,20300000000.0,-3.670136737629621,1.3034494283603215,0.7602107306659831,0.015669313317480227,-1.1572098357358436,-1.1970996732699177,0.304896065751338,9.88959646148335,-1.081262514599104
407,20.4,-4.43,-5.03,6.68,-0.522,5.75,3.48,-0.305,3.69,4.88,,,,,150,20400000000.0,-3.973999340180462,-2.242932443247953,3.1029597384998637,-0.3800377046754573,1.1359741932695409,2.065980606354852,0.03773887536668502,6.429312378214076,1.5514789710095847
408,20.4,1.21,-11.5,-3.05,-0.598,-2.11,1.89,6.96,-3.69,-4.21,,,,,150,20400000000.0,-1.900963339378356,-7.426378818138707,0.6679337649278363,-0.5404508088787466,0.05831532448959997,1.9432039005660666,3.0699470260963126,0.7812518480340982,-0.9930297597377447
409,20.5,5.18,-29.4,-8.31,-0.449,2.31,-3.92,10.9,-21.6,-9.58,,,,,150,20500000000.0,0.930651885808472,-19.730392414532574,-2.88507227231574,-0.4731460090587669,0.805871476368037,-2.1473878188341926,6.499801626075595,-11.710769535831293,-4.785392887011001
410,20.5,-8.17,-24.5,-8.08,-1.79,-2.85,-4.05,-4.4,-15.5,-8.75,,,,,150,20500000000.0,-2.7086192196397607,-22.40110913956174,-4.940958284513073,-1.4423073942439444,-0.40787272170660027,-3.474786702523275,1.7252826005868434,-13.825715898143883,-6.536328262623917
411,20.6,-17.9,-16.9,10.7,-3.39,3.78,-3.06,-15.7,-7.29,10.9,,,,,150,20600000000.0,-8.783519344134017,-19.320791746407455,1.2489309921465148,-2.8757454466362713,0.9824951697725897,-3.185401702202469,-5.907639953103267,-10.177827817628508,1.1642792472288237
412,20.6,-9.79,-5.92,9.31,-1.39,0.54,-2.04,-9.08,3.76,10.8,,,,,150,20600000000.0,-9.186002138280152,-11.817088810540822,4.439088967657915,-1.7822854422803351,0.835587397870502,-2.3862872772308035,-7.297251748109085,-2.398475651005973,5.4198143327216215
413,20.7,-8.81,-3.35,1.07,0.716,0.547,0.237,-8.68,6.32,2.68,,,,,150,20700000000.0,-9.035642340319626,-7.075986833468642,3.105776313579465,0.05637084497336642,0.7397767813866917,-0.5560938760903196,-7.902947104951597,2.4677125896994685,4.209798413320897
414,20.7,-5.32,3.39,4.85,0.505,0.115,1.95,-4.74,13.1,6.15,,,,,150,20700000000.0,-7.549789542202172,-1.2156123981764377,3.7960505817939567,0.3865472079452416,0.5323517623040388,1.1923370318378446,-6.517458395345295,8.402088606387142,5.066672162497462
415,20.8,1.49,2.87,1.2,1.73,-0.597,2.33,3.18,12.5,2.0,,,,,150,20800000000.0,-3.934856782222615,1.072104748912031,2.7686668840428874,1.3752844818101078,0.15740855186229902,1.9860522809254788,-2.2696104886160793,10.68932420130686,3.712302203080233
416,20.8,-1.94,-3.56,3.7,1.68,-1.26,1.99,0.758,5.87,3.54,,,,,150,20800000000.0,-3.1371310292720227,-1.521617952695585,3.137240799275804,1.599545085831651,-0.3131691067199374,1.9888064996139996,-0.9434043495965403,7.99943438679766,3.636206367890487
417,20.9,-29.4,-56.3,-1.31,2.21,1.91,6.84,-25.2,-47.6,-2.8,,,,,150,20900000000.0,-13.63942242565582,-32.19448494324925,1.377250930693374,2.048819939678334,0.4249199240184686,5.373347215642356,-11.56869681168505,-23.033203872548867,0.7937099969708346
418,20.9,-8.1,-18.4,-5.7,0.375,-0.748,2.38,-1.92,-11.0,-7.44,,,,,150,20900000000.0,-11.424256010080443,-24.470335312544172,-1.4235620502535147,0.8169432779976367,0.0355121370719631,3.2849735356901806,-7.342208304757961,-16.316911211580774,-2.842638774939186
419,21.0,-0.364,-5.89,-2.65,-1.68,-2.34,0.966,6.35,0.98,-4.6,,,,,150,21000000000.0,-7.001356385871004,-14.066374034128474,-1.9089233470757214,-1.0207251666036383,-0.7531545497908919,1.667091248775571,-1.344511257840165,-6.66269782117368,-3.618762532480293
420,21.0,10.2,-4.0,-4.93,-1.08,-0.18,-1.87,16.7,2.99,-7.02,,,,,150,21000000000.0,-0.12268452410033692,-8.429760746431445,-3.104510522951885,-1.064349534447191,-0.5628680412603322,-0.8006373599532308,6.559656923438167,-1.2750766784089222,-5.120890435604101
421,21.1,4.96,1.73,9.56,0.0211,0.618,-4.78,10.3,9.84,8.3,,,,,150,21100000000.0,1.9098365680721874,-2.740856048819931,1.9074535784497213,-0.2654942235129676,-0.17082150868375473,-3.576926362749255,8.198066552159613,4.9287664324373,0.8063329941526538
422,21.1,-13.3,4.39,-0.32799999999999996,0.223,-3.96,-1.14,-10.1,13.4,-2.58,,,,,150,21100000000.0,-4.172444093293024,1.2520292809515445,1.0227756637828231,0.09402153147797832,-1.4288234940671145,-1.8767516974794298,0.18283187753163155,9.656957019060682,-0.6892124484350071
423,21.2,-1.67,-3.97,-3.01,-0.873,6.05,3.47,2.56,4.69,-4.8,,,,,150,21200000000.0,-3.171738575070176,-1.6720186130792105,-0.5731901733305331,-0.6176746668115596,1.054135535352328,1.8535258815967852,1.2241200077534924,6.884666534873476,-2.5047072691064707
424,21.2,2.36,-4.78,-6.38,-0.48100000000000004,-1.42,0.633,8.0,3.18,-7.31,,,,,150,21200000000.0,-0.959644753528099,-3.412316589952271,-2.871227823618553,-0.5170865923952386,0.23272600360506568,1.001999477610287,4.192207755053037,4.816919285289687,-4.626924349568814
425,21.3,3.77,-40.4,-10.7,-0.932,0.868,-1.98,9.31,-32.3,-11.7,,,,,150,21300000000.0,0.9316987999682218,-24.12337656886409,-5.969454381916366,-0.8224492592040488,0.4436360744612081,-1.078457299355367,6.433991511302047,-15.899765158003754,-7.750688617707089
426,21.3,-2.87,-23.4,-6.09,-1.32,-1.68,-4.57,1.18,-14.5,-6.36,,,,,150,21300000000.0,-0.5885672464067468,-23.71832544355903,-6.0171602173743075,-1.1886303493401627,-0.2614081220964951,-3.5144080897003445,4.132547565624431,-15.118490897436597,-7.13650274908651
427,21.4,-19.0,-18.6,2.91,-2.29,1.86,-2.63,-16.7,-9.04,3.28,,,,,150,21400000000.0,-7.951138137929546,-20.852346198409407,-2.484247879107076,-1.9992023167165607,0.44289641954770553,-2.8973816388987443,-4.992884335440823,-11.725801428129577,-2.5361419608268063
428,21.4,-10.3,-7.05,5.34,-1.4,0.612,-2.25,-9.14,2.57,6.84,,,,,150,21400000000.0,-8.890427524564153,-13.123795019555262,0.6121883301670179,-1.5582090166246658,0.49903856853688683,-2.44572176456683,-6.809475571370191,-3.746647515090694,1.6047523182975425
429,21.5,-8.84,-3.06,2.72,-0.0809,0.509,-0.36200000000000004,-8.51,6.54,4.67,,,,,150,21500000000.0,-8.870262059658877,-7.488625805487292,1.4463521295445803,-0.47095795794047857,0.5023457509933087,-0.9919679678160904,-7.554368693107381,1.9948105111439132,2.9584932014509686
430,21.5,-6.36,2.2,2.55,0.42100000000000004,-0.39799999999999996,1.68,-5.84,11.8,4.44,,,,,150,21500000000.0,-7.866430275632062,-2.0635306283799792,1.8831193520142029,0.1854938922493593,0.2034322171300853,0.8721885364139725,-6.803411435113697,7.46754447143769,3.6127882397868545
431,21.6,1.89,2.61,1.76,1.77,-0.345,2.42,3.53,12.2,3.23,,,,,150,21600000000.0,-3.9649191651945084,0.5533882502321132,1.8343950212382942,1.3516384844254214,0.02135348657316788,1.9520529063409322,-2.276992458014952,10.108948655266012,3.4437330426604853
432,21.6,-1.45,-5.08,5.35,1.72,-1.41,2.03,1.22,4.34,5.88,,,,,150,21600000000.0,-2.9592250110822786,-2.6009978800985096,3.2256911834184514,1.6227405179148375,-0.45385386296261016,2.006434370826684,-0.745179532781969,6.889029263853525,4.5196898976148265
433,21.7,-28.7,-59.5,-2.53,2.27,2.45,6.86,2.79,3.71,4.4,,,,,150,21700000000.0,-13.25273604915466,-34.46129537335624,0.9478837278071555,2.09910228636724,0.5102215841168944,5.39263004076611,0.803360723913445,5.1146646903151085,4.466829903450845
434,21.7,-9.44,-15.8,-6.46,0.8079999999999999,-0.623,2.42,-3.22,-8.28,-7.68,,,,,150,21700000000.0,-11.728056089820974,-24.012001115524995,-1.9837768527464283,1.1488933050671535,0.13399359063334787,3.3187101216397403,-0.959021101944747,-2.3615226422603826,-0.8977152514162947
435,21.8,-0.292,-3.6,-3.42,-1.14,-2.41,0.9940000000000001,6.58,3.22,-5.0,,,,,150,21800000000.0,-7.154877302531751,-12.582408209109087,-2.552160367172095,-0.5356572007113527,-0.7106087607496145,1.6968255788290734,2.343350834759076,0.7537856454113703,-2.709454796452136
436,21.8,11.1,-3.2,-5.79,-1.07,-0.106,-1.97,17.8,3.72,-7.73,,,,,150,21800000000.0,0.14508858623417353,-7.328778020722591,-3.833531269548705,-0.9289160410390753,-0.5098794952732861,-0.861415022295106,9.113938387915827,2.409368323453094,-4.926736354150975
437,21.9,6.84,3.21,10.4,-0.297,-0.0183,-4.65,12.4,11.2,9.3,,,,,150,21900000000.0,2.8223251532870663,-1.4276445796923447,1.799370480131822,-0.4638465220273813,-0.3466757888520382,-3.5046037616458836,10.553355568654464,7.315830007204866,1.3563821456252754
438,21.9,-16.1,1.42,3.39,0.317,-2.76,0.519,-12.7,10.3,0.972,,,,,150,21900000000.0,-4.744547292037932,0.16687902733998228,2.4288601314999183,0.11083094840641217,-1.1478960568848313,-0.6974491292747755,0.3675200373609755,8.981434655393787,1.1866230062354421
439,22.0,0.304,-3.63,22.2,0.397,7.17,3.26,5.27,4.69,20.7,,,,,150,22000000000.0,-2.725677399491949,-1.9591635128818818,10.253263895522409,0.3214420098511266,1.613633854780168,2.0635512833047214,2.5149888043003275,6.586184728440551,9.804542118566426
440,22.0,2.98,-13.1,-8.4,-0.9740000000000001,-1.65,0.20800000000000002,8.91,-5.37,-9.51,,,,,150,22000000000.0,-0.44402691413522,-8.19741662335097,2.8712585792195977,-0.6319608696770006,0.5301119761036548,0.768985594167837,5.31624176961625,-0.08711988990594932,1.2744369918507488
441,22.1,2.31,-28.3,-4.23,-0.474,2.04,-4.19,7.69,-20.2,-4.94,,,,,150,22100000000.0,0.6572843332056668,-19.4537522108526,0.06094451886505725,-0.5157068475544586,1.0313926808817089,-2.6907585529319578,6.356036290261662,-11.313057356705222,-1.4701168463062055
442,22.1,-8.1,-23.1,-7.92,-1.91,-2.09,-3.75,-4.61,-13.9,-8.24,,,,,150,22100000000.0,-2.8446772138370617,-21.495449729647497,-3.097504156145472,-1.5418609231539095,-0.004905305925306802,-3.4297613761873995,1.5525039987962872,-12.75695056349118,-4.459978682293883
443,22.2,-18.1,-15.1,11.6,-2.55,3.95,-1.99,-16.0,-5.48,12.4,,,,,150,22200000000.0,-8.945147492168068,-17.914351445944277,2.7190145753527672,-2.283818234280952,1.3081177538639177,-2.425280558604172,-6.136146348150146,-8.695344855372497,2.9860888844675744
444,22.2,-9.14,-4.15,9.51,-1.41,0.363,-1.84,-8.12,5.44,11.3,,,,,150,22200000000.0,-9.023067442735833,-10.207075175843999,5.4065385123582566,-1.6407166049103972,0.9943399799642313,-2.0169468762927956,-7.005148069484957,-0.8057491747675121,6.657857864591477
445,22.3,-7.84,-1.96,1.94,0.302,-0.34299999999999997,0.71,-7.27,7.63,3.91,,,,,150,22300000000.0,-8.549969183098433,-5.5891687531165335,4.034660326768009,-0.21094081357058525,0.5503449741212654,-0.11443311970897518,-7.121163068879585,3.9026361930004096,5.444289595437553
446,22.3,-3.49,4.21,4.86,0.384,0.0055,2.18,-2.25,13.8,6.67,,,,,150,22300000000.0,-6.526531776142842,-0.10217563822141695,4.361287505790502,0.22691614467045856,0.3694572028329366,1.4863280733720248,-4.987412259186444,9.426816941949468,5.985614316911141
447,22.4,2.36,1.03,-0.833,1.81,-0.8440000000000001,2.21,4.76,10.5,0.43200000000000005,,,,,150,22400000000.0,-2.9728855018468816,0.5317801499804679,2.30565482870192,1.3920139775653086,-0.03340888956072641,1.9912135520887064,-0.7176826289664078,10.025810491215523,3.532907283593398
448,22.4,-9.42,-8.0,6.23,2.03,-1.38,2.29,-6.05,1.2,6.51,,,,,150,22400000000.0,-5.551030219610491,-4.245545349553608,3.858709447616497,1.8615507763816461,-0.4804752579731816,2.199668386420738,-3.0534362783677227,5.099713789387413,4.847715335396345
449,22.5,-26.8,-75.2,0.16,1.65,3.47,4.7,-21.4,-67.1,-0.563,,,,,150,22500000000.0,-14.048307039754471,-43.97611798141489,2.394949885564807,1.7058563152406874,0.8310770257440615,3.944078960299662,-11.089914184898275,-35.19831512589064,2.4581184197299892
450,22.5,-4.61,-9.97,-6.38,-0.0638,-1.45,2.45,2.06,-2.83,-7.22,,,,,150,22500000000.0,-10.274010676013864,-24.934570913718122,-1.0777254187610668,0.4034472198310972,0.0737626197661726,2.9017023259205894,-5.329762138955461,-17.132047808981486,-1.8161410617699554
451,22.6,1.24,-4.28,-3.75,-1.58,-2.73,-0.05,8.32,2.39,-4.98,,,,,150,22600000000.0,-5.669658529569815,-13.36915249327939,-2.1352746862372527,-1.056305012013719,-0.8570826647139016,0.8423830282728186,0.6493418148863075,-6.235881790369451,-3.213432751441582
452,22.6,12.5,-3.1,-7.64,-1.13,1.19,-2.97,19.1,4.05,-9.03,,,,,150,22600000000.0,1.596228964851906,-7.618994418652827,-4.313762676543379,-1.1105421063134437,-0.17745405697917704,-1.8174088918471698,8.731417306740935,-0.4948510230878762,-5.78227062171014
453,22.7,2.59,3.48,8.34,1.18,-4.51,-4.88,7.52,11.9,7.36,,,,,150,22700000000.0,1.9936292737907824,-1.4041707576542288,0.6939478726326502,0.5752218351127942,-1.615853341583676,-3.9540922384427732,8.2007714089785,6.423293577454173,0.021902686110282232
454,22.7,-12.7,-1.34,1.75,-0.0932,-0.161,0.674,-9.76,7.71,-0.688,,,,,150,22700000000.0,-3.882224453922338,-1.3682386975194833,1.1118791591684145,0.08328525518377511,-1.132844061373619,-0.7252030571454018,0.3332846336254942,7.141464502695944,-0.2916198728316675
455,22.8,1.47,-5.05,19.7,-0.0785,4.93,2.87,5.96,3.58,18.5,,,,,150,22800000000.0,-1.741916705613109,-3.429821714843336,8.468104647311346,-0.0357833964502675,0.8800116515525906,1.7830684348633667,2.797995500525722,5.153644910547629,8.00754094252728
456,22.8,0.546,-14.2,-6.95,-0.375,-1.71,0.971,5.89,-6.07,-8.15,,,,,150,22800000000.0,-0.8269988286339662,-9.460526390833186,2.3664094141949272,-0.2854357080649886,0.020131383976565664,1.2165112480452855,4.152408548528879,-1.1107952080908445,0.8716990936417259
457,22.9,4.15,-28.1,-4.91,-0.887,2.6,-3.49,9.33,-19.8,-5.76,,,,,150,22900000000.0,1.163259501361644,-19.89760198678299,-0.5132202984455252,-0.7281673449191051,0.8766441335811727,-2.067088649470068,6.420386366726946,-11.542112186394185,-2.057135116989661
458,22.9,-7.89,-24.4,-6.96,-1.72,-2.7,-4.02,-4.51,-15.2,-7.24,,,,,150,22900000000.0,-2.4570597202431745,-22.418695901191622,-3.0645251827440108,-1.4581237197762666,-0.31079674471348706,-3.42957969578309,1.6324700274770372,-13.583749979316439,-4.346103685954789
459,23.0,-16.2,-15.9,14.4,-2.91,3.89,-2.4,-14.4,-6.24,15.2,,,,,150,23000000000.0,-7.952741617412325,-18.76858614362276,3.8470382995701193,-2.5266571794337818,1.0838619486998868,-2.711271104687612,-5.390348672045022,-9.484860261356609,4.2862684734569125
460,23.0,-10.5,-5.48,8.58,-1.35,0.691,-1.91,-9.95,4.14,10.4,,,,,150,23000000000.0,-8.971367960718894,-11.327712113868339,5.7201018439148985,-1.6606760458526866,0.9534323247593035,-2.1522468757329505,-7.387645656027837,-1.8801899630248249,6.986346396392605
