,Time (s),Acceleration x (m/s^2),Acceleration y (m/s^2),Acceleration z (m/s^2),Gyroscope x (rad/s),Gyroscope y (rad/s),Gyroscope z (rad/s),Linear Acceleration x (m/s^2),Linear Acceleration y (m/s^2),Linear Acceleration z (m/s^2),SPM/RPM,Timestamps,Acceleration x (m/s^2)_kalman,Acceleration y (m/s^2)_kalman,Acceleration z (m/s^2)_kalman,Gyroscope x (rad/s)_kalman,Gyroscope y (rad/s)_kalman,Gyroscope z (rad/s)_kalman,Linear Acceleration x (m/s^2)_kalman,Linear Acceleration y (m/s^2)_kalman,Linear Acceleration z (m/s^2)_kalman
0,0.0475,0.7609999999999999,5.1,8.1,-1.69,0.293,-0.159,-0.895,-1.29,0.841,60.0,47500000.0,0.15569595618919446,3.6164599156798403,6.968846578206014,-1.4722217519091978,0.3481324942154178,-0.20616906195603638,-0.9729975312687079,-0.9284585301235893,0.6013225656211468
1,0.0975,-0.637,4.29,8.83,-1.29,0.8959999999999999,-0.516,-1.92,-1.5,1.02,60.0,97500000.0,-0.0057344429474410485,3.7382095572658205,7.640378146326755,-1.3475886171394338,0.6654276994528026,-0.40390422608305165,-1.1975436935354924,-1.0303702897136517,0.7537500053307553
2,0.147,-0.7709999999999999,4.47,8.72,-0.373,-0.29600000000000004,-0.0799,-1.79,-0.9440000000000001,0.612,60.0,147000000.0,-0.2326631351075054,3.937693801946255,8.141432220061567,-0.6423804516056203,0.050514105800319786,-0.1830164987193895,-1.397634942493093,-1.007128907577685,0.6873816050360027
3,0.19699999999999998,-0.397,4.74,7.22,0.231,0.26,-0.0977,-1.42,-0.6579999999999999,-0.9059999999999999,60.0,197000000.0,-0.2884856516239351,4.192944978433979,7.687895622183231,-0.007790278109640392,0.18610747358396543,-0.12448143689523444,-1.4061136558680476,-0.8973035809132477,-0.10311518814235843
4,0.247,1.4,4.2,6.13,-0.591,-0.0953,-0.0531,0.499,-1.16,-2.02,60.0,247000000.0,0.315950665579903,4.1953343507979755,6.909954827111522,-0.4316755559607067,0.0036933195109139227,-0.07547657237599015,-0.6542475299058244,-0.9853832027143038,-1.06749923537474
5,0.297,-0.244,4.93,8.97,-0.162,0.34299999999999997,-0.11699999999999999,-1.05,-0.213,0.66,60.0,297000000.0,0.1113291554063908,4.450665938202409,7.9423223719298175,-0.23566695896610002,0.22367895704364524,-0.10398502856876077,-0.8126680587182225,-0.7194350340073286,-0.19542508729266828
6,0.34700000000000003,-0.512,5.48,7.22,0.0473,-0.245,-0.0555,-1.15,0.331,-1.1,60.0,347000000.0,-0.11831438109570658,4.812269917998833,7.580018392158671,-0.02999740343940155,-0.08019057192044823,-0.07069679266235535,-0.948385294630129,-0.35369328571944986,-0.6524525453055439
7,0.397,-0.6679999999999999,5.05,7.44,-0.9059999999999999,-0.46399999999999997,0.203,-1.31,0.442,-1.16,60.0,397000000.0,-0.321480233942685,4.896158637246439,7.509772289732337,-0.6667045732979131,-0.3290353462447455,0.11721458939103685,-1.094133148118859,-0.07534628165453788,-0.9089381327258994
8,0.447,0.22699999999999998,3.98,9.12,-0.9209999999999999,-0.207,0.315,-0.76,-0.618,0.515,60.0,447000000.0,-0.11850088131823366,4.572267025970766,8.31765493002787,-0.8515347583956516,-0.24991308683095287,0.25300767633135546,-0.9593757177220583,-0.26555058422424327,-0.18932491590166756
9,0.49700000000000005,-0.0215,3.9,10.5,-0.564,-0.583,0.161,-1.14,-0.353,1.71,60.0,497000000.0,-0.08258501566145074,4.334413999145847,9.412594909934661,-0.6425451567846439,-0.4658717570989761,0.18983816961643463,-1.0322388455733134,-0.2962277438979222,0.7705454680088568
10,0.547,0.7809999999999999,2.74,11.1,-0.263,-0.8420000000000001,-0.0861,-1.51,-0.151,1.67,60.0,547000000.0,0.23723297087051123,3.770115331595292,10.25921350844065,-0.3666794073397393,-0.7097365053192353,0.00038791621947839583,-1.2249814010096407,-0.24526417479159113,1.225108181419172
11,0.597,-0.151,3.5,7.42,-0.34700000000000003,0.014,-0.363,-1.85,-0.48700000000000004,-1.38,60.0,597000000.0,0.09344428389893461,3.6745025398187563,8.83469939866212,-0.35237577644939844,-0.24049809895450713,-0.24910252091498203,-1.4771390959670994,-0.33010701573482587,-0.09145193509266725
12,0.647,1.52,1.29,12.3,-0.9179999999999999,0.49200000000000005,0.307,0.0922,-2.37,3.35,60.0,647000000.0,0.6218101241125931,2.8304118453430003,10.57333969952834,-0.763489836304093,0.23442094173460443,0.1326995576485095,-0.8439979973054335,-1.046099581316162,1.6477768177849788
13,0.6970000000000001,0.584,1.68,9.97,-0.154,0.65,0.293,-0.6990000000000001,-1.66,0.84,60.0,697000000.0,0.6078058814505615,2.4231676276979117,10.270627072441197,-0.32049281008435887,0.5038638153487561,0.24275668448015172,-0.7854991522112087,-1.2615812890556468,1.2395453968913732
14,0.747,0.156,1.57,10.1,0.6829999999999999,0.539,0.40299999999999997,-0.892,-1.86,0.98,60.0,747000000.0,0.44046368919596735,2.1211445149154904,10.18501878670236,0.40887840511148216,0.5266445308484027,0.3527745792301804,-0.8284665446454104,-1.4716311787796772,1.108377265132658
15,0.797,-0.479,2.39,7.96,1.02,1.24,0.33399999999999996,-1.25,-1.36,-1.07,60.0,797000000.0,0.09990731457567903,2.2163203492309784,9.06866330726258,0.8530614320439429,0.9891523432385756,0.33988455223472636,-0.9985327816875209,-1.432447541125312,0.007476581932047477
16,0.847,-0.773,2.45,8.18,0.78,2.15,0.985,-0.927,-1.7,-0.7040000000000001,60.0,847000000.0,-0.22340548751377287,2.299043934763046,8.622795687863766,0.799957987443421,1.7417941472132037,0.7828000401264928,-0.9696731142049804,-1.5263612881597188,-0.3520869542421119
17,0.897,-1.8,1.67,9.66,-0.0596,0.223,1.31,-1.32,-2.71,0.904,60.0,897000000.0,-0.807354461050815,2.0763595900537246,9.143190650242992,0.1752033011381282,0.7570759005269055,1.1447585046634798,-1.1110113558516552,-1.9418312943960208,0.2827098546949367
18,0.9470000000000001,-1.49,2.8,9.69,-0.303,0.542,0.961,-1.1,-1.48,0.877,60.0,947000000.0,-1.0601970435826678,2.3325315489422125,9.417540314215334,-0.17237040525910485,0.6176302956255162,1.018595854193815,-1.106568870370589,-1.779723464362203,0.5830501097571392
19,0.997,-0.6559999999999999,3.0,6.98,-0.47100000000000003,0.198,0.703,-0.431,-1.11,-1.92,60.0,997000000.0,-0.910487981608014,2.5688184268240835,8.194556701406253,-0.38942409199652955,0.34556076460364354,0.801917916766161,-0.8340128396357778,-1.544643172375637,-0.6819325490116339
20,1.05,-0.22699999999999998,2.82,10.6,-0.441,1.3,0.466,0.251,-1.06,1.63,60.0,1050000000.0,-0.6573333555129266,2.6577378310675233,9.401436525352059,-0.4269111490738536,0.9643764798486039,0.5712874934355103,-0.39626799880326546,-1.3745280615577085,0.48646380688213475
21,1.1,-0.079,2.89,8.48,0.223,-0.0745,0.47600000000000003,0.484,-1.04,-0.48700000000000004,60.0,1100000000.0,-0.4431265690010735,2.7399597420687414,8.939125263118994,0.04546540418194778,0.2908153966259647,0.5058661785410291,-0.04112678320201835,-1.25710501146515,-0.005501909858642295
22,1.15,-0.433,3.31,7.48,0.0699,0.6970000000000001,0.302,0.19399999999999998,-0.682,-1.46,60.0,1150000000.0,-0.4393758253147234,2.941756591381118,8.20704043725282,0.0632252617002086,0.5541673582998531,0.36589822029662405,0.05373434321521545,-1.0552368050298464,-0.7405710696311367
23,1.2,-0.41700000000000004,2.2,8.51,-0.193,1.66,-0.109,0.687,-1.78,-0.391,60.0,1200000000.0,-0.43108812314407574,2.679171366946166,8.359044021046806,-0.12300759026259102,1.2711398016670112,0.039848407283355036,0.3092232715059311,-1.3096366685460585,-0.5639060705436941
24,1.25,-1.28,1.21,9.14,-0.49700000000000005,1.76,-0.31,0.61,-2.6,0.3,60.0,1250000000.0,-0.7455134961709643,2.1590779656915164,8.750872121845997,-0.39483743738218013,1.5880949008281482,-0.20034623718968433,0.43057065500564773,-1.7625683944093848,-0.12730824631207727
25,1.3,1.06,-0.29,6.44,-0.6679999999999999,2.34,-0.7759999999999999,3.9,-3.82,-2.26,60.0,1300000000.0,-0.0767759378166335,1.292093114677848,7.591441579516397,-0.5933808550670899,2.0755965087012225,-0.5955715764353494,1.830300504172214,-2.4847495542777738,-1.2051205156698046
26,1.35,-2.29,-1.99,7.42,-1.3,2.13,-1.94,1.73,-4.85,-1.05,60.0,1350000000.0,-0.8965239375301992,0.13021706636527974,7.505424478828818,-1.1069745849003638,2.110869375355405,-1.5186128481349446,1.7898346047231433,-3.314978511958121,-1.12672622973016
27,1.4,-7.51,-2.19,8.67,-1.41,1.47,-1.96,-2.42,-4.01,0.49,60.0,1400000000.0,-3.346065376747716,-0.6911504576695536,8.089725330971236,-1.3272232827322217,1.6953583314982166,-1.8216550694234224,0.09139070655167036,-3.5589387995461146,-0.30967079654191043
28,1.45,-7.59,-4.49,6.17,-1.54,0.852,-1.57,-1.94,-5.25,-1.81,60.0,1450000000.0,-4.917960948895299,-2.0359605718608473,7.1265443192543465,-1.481876289814273,1.1485624779615642,-1.6488768441665798,-0.7281671879876546,-4.152519930568552,-1.0679018753298695
29,1.5,-14.5,-3.89,8.16,-2.45,1.13,-2.61,-8.49,-3.23,0.442,60.0,1500000000.0,-8.467017556077689,-2.6922990866237493,7.64505848619056,-2.1855401076759966,1.1365273937203397,-2.3087529594594143,-3.8596529085322997,-3.8287052677266504,-0.30483296346362265
30,1.55,-11.6,-2.41,5.96,-1.98,0.405,-0.586,-5.44,-0.341,-1.34,60.0,1550000000.0,-9.627431674342542,-2.5923639430634733,6.799616516390801,-2.0361468898213184,0.66223772450263,-1.125966309278066,-4.497238746234673,-2.6044822517121107,-0.8279820645230034
31,1.6,-8.67,-3.33,6.5,-2.14,0.831,-1.27,-5.38,0.581,-0.965,60.0,1600000000.0,-9.272812065628198,-2.8534904699513057,6.649290349309724,-2.1116307824831826,0.7716556227491823,-1.2248551868539908,-4.853385904728487,-1.486342860988362,-0.8972276946603291
32,1.65,-10.6,-2.2,7.92,-1.38,1.18,-0.983,-4.23,1.84,1.67,60.0,1650000000.0,-9.764384520739732,-2.622151857411293,7.286841726754565,-1.579857743305237,1.0364078339635292,-1.0588051957408608,-4.601882928026736,-0.31875982084674725,0.4001888067508702
33,1.7,-8.5,-3.87,4.37,-0.546,0.8959999999999999,-1.1,-2.01,0.727,-1.37,60.0,1700000000.0,-9.296073734963244,-3.0638957937508353,5.823378833418251,-0.8284163307974051,0.9453736872055217,-1.0870882372423212,-3.556196317116755,0.04831340865221079,-0.49442300265273276
34,1.75,-10.3,-3.99,4.96,-0.787,1.08,-1.22,-3.8,1.2,-0.289,60.0,1750000000.0,-9.667914404990722,-3.391740941969127,5.390197022897094,-0.7983135956064739,1.0326593997704574,-1.1783411902119443,-3.6545580885241433,0.45256812020633425,-0.3906070487568252
35,1.8,-8.49,-4.38,4.63,-0.265,1.45,-0.517,-1.98,1.25,-0.0682,60.0,1800000000.0,-9.231630886236644,-3.741589230481869,5.0087845131606645,-0.4106839275835823,1.3032444248448818,-0.724285653662824,-2.978963165991908,0.7324755044069409,-0.22767010569938878
36,1.85,-7.0,-4.88,3.01,-0.0516,1.22,-0.4,-0.29,0.907,-1.2,60.0,1850000000.0,-8.405065235713494,-4.144591914870045,4.005937207753216,-0.14969005760643744,1.249272478534154,-0.501641577814094,-1.8941098541841557,0.7937355289261501,-0.7190627995608728
37,1.9,-8.25,-4.79,3.53,-0.449,0.71,-0.0903,-0.138,1.01,-0.79,60.0,1900000000.0,-8.34763118682058,-4.373069329417702,3.7671458975293244,-0.3672382540510653,0.8996322897295299,-0.21922770648985734,-1.1856131320487289,0.8696467399753904,-0.7549128038215458
38,1.95,-8.78,-5.44,3.83,-0.2,-0.00672,0.467,-1.79,0.45,0.29100000000000004,60.0,1950000000.0,-8.507774600688366,-4.750767710045816,3.798681558361978,-0.24568405678603997,0.311993970158835,0.25191412884692643,-1.429451002415977,0.7223461020300098,-0.22633305713301988
39,2.0,-9.9,-4.42,3.95,-0.402,0.493,0.524,-2.73,1.31,0.509,60.0,2000000000.0,-9.023435763403192,-4.633674447684203,3.874602368009754,-0.359299572929193,0.4293501911778593,0.4387195126861128,-1.9541532078440316,0.9286190810112601,0.14528698444749505
40,2.05,0.0,-4.67,12.0,0.483,0.235,0.893,7.46,0.7559999999999999,8.65,60.0,2050000000.0,-5.68127819705539,-4.64653388714327,7.951346523307116,0.2529111446230401,0.3033422123785078,0.7506138610084693,1.8439558269882759,0.86802787367217,4.443368809687737
41,2.1,-9.82,-3.83,2.49,0.972,1.12,0.48200000000000004,-2.14,1.33,-0.755,60.0,2100000000.0,-7.214204205668938,-4.357477111776775,5.211232932753703,0.7755683020954667,0.8328266283728102,0.5661922353385267,0.23664196413627736,1.0301851998876819,1.8162354258059872
42,2.15,-9.81,-4.76,1.58,0.58,-0.21100000000000002,0.632,-1.88,-0.0402,-1.73,60.0,2150000000.0,-8.175651727945143,-4.499972144991404,3.389339638339499,0.6334228906950308,0.1560560942824537,0.6113737459190854,-0.6173102437060892,0.6544681905303376,0.024051401553762952
43,2.2,-7.15,-5.87,0.953,0.852,0.833,0.0606,0.9,-1.44,-2.47,60.0,2200000000.0,-7.795764348665596,-4.984968260993858,2.1669584338947283,0.7922918376022537,0.5949562727808992,0.23323024118232438,-0.005156446744705168,-0.08071326305151294,-1.2363835577937359
44,2.25,-6.09,-7.13,2.8,0.8340000000000001,0.9590000000000001,-0.036,2.11,-2.74,-0.313,60.0,2250000000.0,-7.163972549642895,-5.744319394418573,2.4845734512970843,0.8226066795949628,0.8309859507618252,0.04838543439472809,0.8481963936128127,-1.0141522387301634,-0.7697272125526242
45,2.3,-7.19,-3.72,2.6,0.292,-0.0342,0.607,1.12,0.515,-0.42,60.0,2300000000.0,-7.173612783547627,-5.027701036341541,2.542486200963574,0.43694449340071356,0.27003804463400594,0.43191218961723826,0.9578546628437279,-0.4774029438635615,-0.5929832945510586
46,2.35,-7.83,-5.13,4.04,0.12,-0.457,-0.0158,0.524,-1.04,0.934,60.0,2350000000.0,-7.416729629996647,-5.0639153800951,3.2938316425882057,0.20657893078423942,-0.20134092384614755,0.12452742794203886,0.7828174275929165,-0.6748807017195126,0.17871817188499295
47,2.4,-10.1,-2.5,4.19,0.518,-1.41,0.21899999999999997,-1.94,1.5,0.625,60.0,2400000000.0,-8.410576528200005,-4.156277553294723,3.743464942025794,0.43292989205664806,-0.9849814319802737,0.18938924939887153,-0.31569429396557713,0.08852641002559214,0.404258516031256
48,2.45,-2.17,-2.31,0.716,-0.7090000000000001,-2.47,-1.09,5.7,1.61,-3.62,60.0,2450000000.0,-6.099152104733666,-3.5026867947666336,2.2244992885063057,-0.3970618677817395,-1.9478011242730304,-0.6889982047884431,2.111317623861222,0.6225804245382651,-1.6295070725471752
49,2.5,-8.86,-10.6,1.52,-1.61,0.16699999999999998,-2.59,-1.66,-5.64,-2.96,60.0,2500000000.0,-7.121732392021156,-6.015168419537357,1.8710318565520287,-1.2786647414588264,-0.576658588939283,-1.9941647200837176,0.5897919975672332,-1.5756543238148057,-2.3019069383741786
50,2.55,-3.7,-13.8,2.2,-1.36,-1.73,-2.99,2.66,-7.68,-2.07,60.0,2550000000.0,-5.854369389225056,-8.771034641048205,2.0360845975027946,-1.3377818617160513,-1.3244336291915308,-2.677873139770921,1.4250106134703402,-3.7183469170307712,-2.1847065899571647
51,2.6,-4.38,-8.4,6.14,-1.5,-1.5,-0.8809999999999999,0.335,-1.17,1.49,60.0,2600000000.0,-5.308283113829209,-8.639686538018177,4.0951361472745464,-1.4556872778195757,-1.438263017929407,-1.4441979327910606,0.9852494348264813,-2.8238490299150403,-0.327596264432507
52,2.65,-5.61,-6.33,4.56,-0.295,-0.21,-0.00176,-1.13,1.16,0.0744,60.0,2650000000.0,-5.420034983812763,-7.822046862590817,4.328371595823313,-0.612062024495967,-0.6419121641597372,-0.4538665296352835,0.13185903833502488,-1.4254740966738773,-0.1244368029092518
53,2.7,-3.98,-9.17,4.48,-0.318,-0.396,0.204,0.498,-1.66,0.045,60.0,2700000000.0,-4.886665668686879,-8.299228494641682,4.404447908178588,-0.39832817792104275,-0.48247370538849643,-0.0021965722661729248,0.279577398424389,-1.507795263469184,-0.03880742515953804
54,2.75,-4.17,-9.03,4.68,-0.0486,-0.456,0.386,0.319,-1.53,0.239,60.0,2750000000.0,-4.6212225054661085,-8.557924871205019,4.542700179743817,-0.14413436921322836,-0.465309338084079,0.26432668998048664,0.2954823191370022,-1.5155893608315802,0.1015899127167411
55,2.8,-3.43,-4.8,5.43,-0.254,-0.38799999999999996,0.276,1.1,2.65,0.9440000000000001,60.0,2800000000.0,-4.180009957261219,-7.227602265107575,4.987883765857159,-0.2239882869451943,-0.41518542565914873,0.27234120372912984,0.6200623300076881,-0.053421521943436634,0.5273241692317508
56,2.85,-5.57,-9.07,3.0,-0.597,0.243,-0.713,-1.12,-1.54,-1.43,60.0,2850000000.0,-4.69484337925422,-7.879819421801954,3.99050568161888,-0.4951053275042598,0.011552590370756233,-0.4041623145367701,-0.08196007202817812,-0.5752269489246377,-0.4618614240263784
57,2.9,-6.28,-9.75,4.06,0.132,-0.0727,-0.7759999999999999,-2.13,-1.95,-0.19399999999999998,60.0,2900000000.0,-5.281963854646877,-8.541871940733754,4.025372938071416,-0.039304790782711374,-0.04307302480389531,-0.6594541028973677,-0.9082350630475459,-1.0577874681286412,-0.32649056045561997
58,2.95,-1.13,-7.08,-0.565,-0.691,-0.0892,-0.779,2.7,0.893,-4.81,60.0,2950000000.0,-3.74413305584771,-8.024362528802191,1.7222516775781829,-0.512978042301879,-0.07297969246698058,-0.741530452766876,0.5474954754056679,-0.3730395504191819,-2.592350798017761
59,3.0,-2.98,-8.72,-0.00958,-0.9179999999999999,0.11199999999999999,-1.41,2.3,1.27,-4.4,60.0,3000000000.0,-3.461108598477593,-8.270621484876209,0.853342241938122,-0.8073611546631534,0.046952875592557244,-1.2004800800466873,1.2545376185928747,0.20368544517067377,-3.5058942562894506
60,3.05,-1.24,-8.27,0.67,-0.865,0.542,-1.63,1.6,0.446,-2.82,60.0,3050000000.0,-2.638440263394432,-8.270401638424495,0.7613542089759411,-0.8492549480421994,0.36791930452623206,-1.4953746128529886,1.3939132850267963,0.28874052968737,-3.159259390331958
61,3.1,-2.88,-11.7,0.915,-1.21,0.87,-2.18,-0.8540000000000001,-2.5,-1.95,60.0,3100000000.0,-2.727910738396337,-9.48449515131761,0.8384427031506423,-1.111456206212571,0.6934459924817282,-1.9654163879577704,0.4870001055570393,-0.6901381515625737,-2.5481281474244293
62,3.15,-5.02,-12.4,-0.306,-0.578,0.52,-0.2,-3.52,-2.99,-2.67,60.0,3150000000.0,-3.576869339701597,-10.516597130654205,0.2642431022048387,-0.7237229011478048,0.5809913499244063,-0.753338387261627,-1.1296108453564702,-1.4974150274945126,-2.609719355148702
63,3.2,-2.67,-7.7,1.49,-1.14,0.0415,0.287,-1.02,1.79,-0.345,60.0,3200000000.0,-3.240977330287764,-9.519508735458217,0.8792403656134377,-1.0262866180483954,0.2312092675798499,-0.039075574370870614,-1.0853887041156227,-0.3434961113253674,-1.4651834344699497
64,3.25,-1.84,-9.75,0.0718,-0.7509999999999999,0.363,-0.195,-0.217,-0.195,-1.41,60.0,3250000000.0,-2.7220744427494448,-9.60110370230826,0.4741244640396483,-0.8261993459956303,0.31665649228364234,-0.1461282555485163,-0.7350401465465843,-0.291372336065895,-1.4372950071451898
65,3.3,-0.182,-8.72,0.10300000000000001,-0.62,0.479,-0.00848,1.42,0.892,-0.96,60.0,3300000000.0,-1.7812655033537388,-9.289189037186308,0.28792071651856543,-0.6763269619030667,0.42191276891606666,-0.05162339911411487,0.13440366578070717,0.12400441145213337,-1.1960813205716718
66,3.35,-1.87,-9.94,0.721,-0.375,0.6809999999999999,-0.361,-0.297,-0.29100000000000004,-0.0532,60.0,3350000000.0,-1.8141315527250668,-9.519578960220421,0.5052089751155755,-0.4573127308051662,0.5898933471835837,-0.26403140483373716,-0.03964471472008077,-0.02166671681253085,-0.6184959690313784
67,3.4,-2.31,-9.92,0.146,-0.32299999999999995,0.674,-0.35,-0.888,-0.237,-0.413,60.0,3400000000.0,-1.9977944429131635,-9.661329875410328,0.3249835677071963,-0.3596898820246243,0.6444243582038324,-0.32305466790861675,-0.38191085730783314,-0.09725107520511747,-0.5146431310882221
68,3.45,-4.37,-9.54,-0.0359,-0.174,0.5920000000000001,-0.185,-3.06,0.175,-0.408,60.0,3450000000.0,-2.876426992304787,-9.61837852845014,0.1439179701825802,-0.22472443593910643,0.6104347521455148,-0.22827078326841838,-1.4623770538770753,-0.001687946362057005,-0.4607481958881928
69,3.5,-4.17,-11.4,1.33,-0.11199999999999999,0.139,0.0013,-2.87,-1.73,1.05,60.0,3500000000.0,-3.3555488239038502,-10.249080581620893,0.7390092354616062,-0.14279265409629058,0.3047775264351704,-0.07065488122156946,-2.0302778363424956,-0.6083445443904796,0.3027484015501414
70,3.55,-3.65,-12.2,2.53,0.62,0.161,0.326,-2.32,-2.54,2.2,60.0,3550000000.0,-3.4646095598193223,-10.939714953483982,1.637600460848621,0.4116298463439758,0.2115586027347009,0.20167558175424763,-2.14716525946748,-1.2863768989770934,1.2615747804067743
71,3.6,-2.71,-10.5,1.58,1.69,0.185,0.9,-1.11,-0.899,0.757,60.0,3600000000.0,-3.1851124825836155,-10.784053839279414,1.6087006853806907,1.3407908713824208,0.1943391931763025,0.6811226079679455,-1.7287243667676748,-1.150403331441389,1.0065745632999394
72,3.65,-1.02,-10.7,-0.105,1.92,-0.9329999999999999,0.762,1.0,-1.29,-1.83,60.0,3650000000.0,-2.383184334687277,-10.754298326391488,0.7488880883719501,1.761778863126753,-0.536577176917767,0.7366504358198057,-0.6278295331934651,-1.199403288242533,-0.42696355673635034
73,3.7,-1.87,-11.7,1.72,1.59,-0.305,0.516,0.387,-2.52,-0.8959999999999999,60.0,3700000000.0,-2.1931078564875,-11.08908099721641,1.2361226959336935,1.6369244256791966,-0.3864328892695453,0.5851589382213263,-0.2183999119313787,-1.6629472914354189,-0.6640035624101427
74,3.75,-2.55,-11.1,0.778,1.06,-0.858,0.345,-0.174,-2.22,-2.5,60.0,3750000000.0,-2.3252958223265825,-11.09294650942115,1.006269448214794,1.2175969575169923,-0.6921759167681987,0.42027354936320316,-0.20048691208293495,-1.858478945580912,-1.591872998937184
75,3.8,-2.22,-9.31,1.6,0.804,-0.813,0.335,0.174,-0.596,-2.2,60.0,3800000000.0,-2.2862956961106917,-10.46177540025907,1.304161042403286,0.9169812586207163,-0.7705128678333897,0.36172748397627563,-0.049401406246495194,-1.4153349180900026,-1.8992061127192639
76,3.85,-1.34,-8.05,1.31,0.42100000000000004,-1.09,0.33899999999999997,1.0,0.515,-2.86,60.0,3850000000.0,-1.9358006859916899,-9.607995892987507,1.3070905855543244,0.5564859598453742,-0.9776540680310172,0.3461235166877566,0.37397612523015256,-0.7377660783673926,-2.3847687027222704
77,3.9,-0.369,-7.49,0.831,0.10400000000000001,-0.996,0.263,1.89,0.9790000000000001,-3.56,60.0,3900000000.0,-1.3554790717433312,-8.858215532781621,1.0682223208267363,0.2276044569015515,-0.9895487451808158,0.2890535965805641,0.985610944740287,-0.135162261395259,-2.9787029425579323
78,3.95,-0.67,-8.1,1.54,-0.204,-1.14,0.222,1.44,0.355,-2.97,60.0,3950000000.0,-1.1015869767041653,-8.58980388490644,1.3049266432197326,-0.08609968969803372,-1.0870946058357287,0.24301675988489302,1.1689327314527893,0.03689009429114154,-2.974304694448367
79,4.0,-1.42,-8.48,3.5,-0.418,-0.574,0.335,0.579,0.0176,-0.9740000000000001,60.0,4000000000.0,-1.219522802868971,-8.55093264300506,2.406257665159024,-0.3273356334395294,-0.7544269943251942,0.30616949418562156,0.9309263177886669,0.030119058422713264,-1.9633977161135518
80,4.05,-3.02,-8.28,3.66,-0.273,-0.6970000000000001,0.32,-1.0,0.264,-0.701,60.0,4050000000.0,-1.8863949989438797,-8.455021147804809,3.035296060227652,-0.28784273016236567,-0.7171939149409366,0.31566506888929924,0.15190047217565583,0.1122138477454179,-1.3254115759726923
81,4.1,-0.9309999999999999,-7.49,2.64,-0.457,-0.726,0.22399999999999998,1.06,1.1,-1.66,60.0,4100000000.0,-1.532529716648032,-8.11339914578722,2.836964784828525,-0.41079172346394466,-0.7229033940583034,0.2527307911755721,0.5182702043972793,0.4589376892505307,-1.4945046826604391
82,4.15,-2.29,-9.0,6.12,-0.762,-0.504,0.0752,-0.366,-0.289,2.04,60.0,4150000000.0,-1.8130863668724042,-8.427259922474475,4.484157299548702,-0.6660613331965362,-0.5809762214407233,0.13084387000728498,0.16151431227209068,0.1964033101819121,0.29175087086996476
83,4.2,-2.44,-11.8,4.96,-0.0467,0.19899999999999998,0.22699999999999998,-0.498,-2.96,1.07,60.0,4200000000.0,-2.0452866494013233,-9.62122547656871,4.722901197543763,-0.21588938330526825,-0.07527449612517645,0.1968615689910157,-0.1045645571912226,-0.9115290751416729,0.6850597111312049
84,4.25,2.97,-12.0,2.3,-0.10300000000000001,0.485,-0.209,5.03,-3.19,-1.52,60.0,4250000000.0,-0.1876928505623432,-10.463322589311641,3.507262414346835,-0.13383770992874344,0.28798245766392755,-0.08178991002893793,1.9669586400519756,-1.711297517727322,-0.4293256177771201
85,4.3,-5.69,-7.75,-1.42,0.37799999999999995,1.08,-0.214,-3.78,1.05,-5.31,60.0,4300000000.0,-2.225672412370276,-9.502793923860972,1.0351140981505522,0.23818256946126964,0.8014912645251808,-0.17256109849528012,-0.35163283116923627,-0.7420516530652171,-2.8959036802905733
86,4.35,-2.22,-8.75,0.39299999999999996,-0.73,1.0,-0.0738,-0.0313,0.121,-3.17,60.0,4350000000.0,-2.2235714387721974,-9.23630141541619,0.7129471116208228,-0.46552400844040237,0.9301954572140997,-0.10475490910169262,-0.22239560874344522,-0.4391110049956855,-3.03442555501033
87,4.4,-2.81,-9.68,0.402,-0.7340000000000001,0.187,-0.20199999999999999,-0.581,-0.6579999999999999,-2.73,60.0,4400000000.0,-2.4407765603223703,-9.39337286137015,0.5569360661929474,-0.6606611061665993,0.4483407404757605,-0.17152025969064238,-0.3670733541004313,-0.5159434535583051,-2.880576045985704
88,4.45,-0.953,-9.54,1.91,-0.33399999999999996,0.899,-0.294,1.22,-0.38799999999999996,-0.861,60.0,4450000000.0,-1.889724412535888,-9.44527952875298,1.2358068855234743,-0.42323318924658504,0.7405280571930093,-0.2556109024048573,0.2732261605035179,-0.47103389436551074,-1.8599297919304183
89,4.5,-3.4,-10.1,0.32299999999999995,-0.604,1.65,-0.094,-1.18,-0.8079999999999999,-2.06,60.0,4500000000.0,-2.449109931865262,-9.677053719326569,0.7778255967742655,-0.5546203633579263,1.3301890049778353,-0.1446540623949425,-0.3130731131985328,-0.5893127235133675,-1.961040542656028
90,4.55,-2.9,-9.0,-0.22699999999999998,-0.59,0.965,-0.00298,-0.53,0.32,-2.15,60.0,4550000000.0,-2.6161135002457643,-9.437373591344386,0.27367588540026155,-0.5803354142875631,1.0934167575121525,-0.04738521656902235,-0.40059153768825395,-0.2701339318117032,-2.0565362582854605
91,4.6,-2.47,-9.15,-0.512,-0.716,0.22699999999999998,-0.159,-0.0651,0.24100000000000002,-2.01,60.0,4600000000.0,-2.5619950627042005,-9.335641884366476,-0.12052016726973525,-0.6789408601130517,0.5316708510334861,-0.12401632632265631,-0.2652385845618285,-0.09072028593096984,-2.033017922564209
92,4.65,-2.47,-9.69,0.105,-0.735,0.22,-0.248,-0.135,-0.22399999999999998,-0.973,60.0,4650000000.0,-2.52792135648793,-9.461086137175931,-0.00737025730911077,-0.7196864756856898,0.32959739907978686,-0.2091395186051485,-0.2126942599255095,-0.13750293785735418,-1.4973097797419683
93,4.7,-1.57,-9.57,0.297,-0.5920000000000001,0.26,-0.302,0.657,-0.0414,-0.38299999999999995,60.0,4700000000.0,-2.1731203673532002,-9.49964203708606,0.14534099287156743,-0.6268798000190356,0.2844735496541904,-0.27289452327688435,0.13818101900554114,-0.10376974696735383,-0.9341638068594564
94,4.75,-2.17,-9.46,0.34,-0.341,0.359,-0.25,-0.081,0.11199999999999999,-0.0653,60.0,4750000000.0,-2.1719646540920508,-9.485608587290319,0.24300698044638336,-0.41909306155851406,0.3327931677568646,-0.2571758813539533,0.049753160683950276,-0.02803218497453311,-0.4950604666329772
95,4.8,-2.55,-9.38,-0.124,-0.39299999999999996,0.304,-0.18600000000000003,-0.5529999999999999,0.22399999999999998,-0.317,60.0,4800000000.0,-2.3119837737970883,-9.44822270258722,0.05886909304801749,-0.4001277810669901,0.3141249582176514,-0.20830881783442112,-0.19342560049904733,0.06043389388873534,-0.40507289372089883
96,4.85,-3.0,-9.74,-0.376,-0.401,0.319,-0.353,-1.09,-0.122,-0.34,60.0,4850000000.0,-2.5668156024338207,-9.551513125682925,-0.15931714979340042,-0.40076173311516045,0.31728572115270526,-0.30764911079480906,-0.5551455943147013,-0.003602415300297951,-0.3721865848613155
97,4.9,-2.46,-10.4,0.0862,-0.281,0.33799999999999997,-0.513,-0.7290000000000001,-0.747,0.331,60.0,4900000000.0,-2.527252573921679,-9.851881243295635,-0.03613418126526399,-0.31371500392057017,0.33071593352308964,-0.4486364219006261,-0.6252865689389796,-0.26454315864694544,-0.016812616191547003
98,4.95,-3.42,-10.1,-0.16,-0.153,0.192,-0.43700000000000006,-1.9,-0.37799999999999995,0.207,60.0,4950000000.0,-2.8579140756074035,-9.939716558418851,-0.09828119989242456,-0.19690211265501012,0.24077872255009758,-0.44064723401833766,-1.1395654830667814,-0.30436775811219097,0.09629701949353443
99,5.0,-3.6,-11.2,0.172,0.018,0.27399999999999997,-0.17300000000000001,-2.25,-1.49,0.601,60.0,5000000000.0,-3.1327725478552892,-10.38586262073882,0.03732660364735246,-0.040704271952369114,0.26231790707276054,-0.2568892630454481,-1.587566621475033,-0.7205377539819662,0.3513620461593682
100,5.05,-4.2,-11.7,1.1,0.479,0.025,0.237,-2.87,-1.98,1.47,60.0,5050000000.0,-3.5280589731435135,-10.851073224478535,0.570500221848073,0.33703368840483006,0.10845158215049061,0.08219919212104942,-2.1049600863584885,-1.1626228988753362,0.9166953840698495
101,5.1,-3.16,-10.2,1.54,1.4,-0.698,0.754,-1.61,-0.48,1.5,60.0,5100000000.0,-3.3917349800052086,-10.620590243542608,1.056925942488086,1.1096321400169094,-0.41441559220770635,0.543435984095039,-1.9052700800004845,-0.9230147293697851,1.2114838238650885
102,5.15,-0.218,-11.1,1.13,2.05,-1.08,0.892,1.73,-1.49,0.195,60.0,5150000000.0,-2.216226817409619,-10.79030363545576,1.0935892826615266,1.7931220343802798,-0.8459508049514821,0.7827488186219465,-0.4386323647892594,-1.1220328156455208,0.6977767925141461
103,5.2,-0.965,-11.6,-0.012,1.99,-0.8,0.6920000000000001,1.28,-2.28,-2.06,60.0,5200000000.0,-1.7527894558189554,-11.076940004434597,0.5388835499931527,1.9362193466044522,-0.8161583643001077,0.7204435847537951,0.2547441750898075,-1.528492057829931,-0.6959387360428645
104,5.25,-2.25,-10.6,1.06,1.27,-0.7979999999999999,0.529,0.191,-1.54,-1.86,60.0,5250000000.0,-1.9369494615943892,-10.908101186171114,0.8003425338781278,1.4519894549446986,-0.8043852781672991,0.5890045777853391,0.22902679803436804,-1.532531459055739,-1.2842279397855485
105,5.3,-3.08,-9.29,1.56,0.7829999999999999,-1.3,0.6509999999999999,-0.565,-0.491,-1.95,60.0,5300000000.0,-2.360319766523899,-10.33528591692123,1.1814843612730548,0.9657461668137285,-1.1257196837719237,0.6315686526358619,-0.09132069022668987,-1.1669424293361237,-1.6206935112666256
106,5.35,-1.79,-7.93,1.98,0.397,-1.36,0.6779999999999999,0.767,0.68,-1.96,60.0,5350000000.0,-2.1490810875553605,-9.483803588283177,1.582122482419868,0.5523629753779757,-1.2776165800573382,0.6634469011871204,0.25496596534437965,-0.5186452653194787,-1.7921710530856612
107,5.4,-0.615,-8.26,1.92,-0.0211,-1.08,0.439,1.94,0.24,-2.25,60.0,5400000000.0,-1.5808783744507444,-9.050571575174837,1.751645265480137,0.13555144373444455,-1.149490848894911,0.5093488986688154,0.9347874045248381,-0.2523524124363237,-2.023547039608176
108,5.45,0.0551,-7.91,2.14,-0.132,-0.6890000000000001,0.2,2.56,0.564,-2.11,60.0,5450000000.0,-0.9749342916669976,-8.64680394215018,1.9464939847071363,-0.058913642303331015,-0.8509291686961484,0.2969599154270244,1.5904740354702795,0.03419629106722827,-2.067238280323643
109,5.5,-1.04,-7.25,2.59,-0.228,-0.451,0.0184,1.38,1.24,-1.68,60.0,5500000000.0,-0.9990337286911622,-8.152328927739852,2.269359296123476,-0.1818111036267619,-0.591632971869976,0.10570965416115943,1.5055589790717125,0.457446694328674,-1.8715371306493247
110,5.55,-2.3,-8.74,4.47,-0.319,-0.12300000000000001,-0.153,0.0465,-0.185,0.294,60.0,5550000000.0,-1.4808938784011179,-8.360367106885239,3.373483509907417,-0.28152445724703745,-0.2877922984084443,-0.071912055695496,0.9169064532657132,0.23194081862708385,-0.777125575248683
111,5.6,-3.44,-8.41,4.32,-0.235,-0.305,-0.158,-1.23,0.228,0.231,60.0,5600000000.0,-2.206520093348577,-8.377937325114626,3.84837796350376,-0.24770896892366745,-0.29894900774236705,-0.1310172691275783,0.050744127620131474,0.2305575478699202,-0.2676426067336811
112,5.65,-1.94,-7.76,3.93,-0.54,-0.397,-0.0158,0.18100000000000002,0.95,-0.0522,60.0,5650000000.0,-2.1078047061407967,-8.159184753372863,3.8893301048576157,-0.4601556073632912,-0.3625208987887742,-0.05191280441154275,0.10329542682525822,0.48308977867811387,-0.15876297857053634
113,5.7,-3.22,-10.7,6.19,-0.309,-0.621,0.168,-1.16,-1.87,2.38,60.0,5700000000.0,-2.5197466880767254,-9.05864495924994,5.043641955964663,-0.350290787770089,-0.5301071912784672,0.09907223901586829,-0.40637692735646885,-0.3428706861131484,1.124268204039205
114,5.75,-0.9890000000000001,-7.88,4.36,0.00519,0.0354,0.484,1.13,0.899,0.542,60.0,5750000000.0,-1.9527789958408672,-8.641399267829247,4.700639320251404,-0.09191579570744474,-0.1634576014208436,0.3633512338962882,0.21346926784697856,0.09303961670231953,0.8300035402794687
115,5.8,1.41,-8.73,1.7,-0.639,0.374,-0.209,3.66,0.0503,-2.04,60.0,5800000000.0,-0.7072515218236191,-8.67276417212409,3.1951328612893795,-0.489554378325162,0.1850058966058334,-0.02960668404205191,1.603960743454345,0.07803753931930005,-0.6204287578627122
116,5.85,-5.16,-18.3,6.16,-0.54,0.706,-0.217,-2.99,-9.27,2.89,60.0,5850000000.0,-2.3564887855014858,-12.08084962622016,4.682691342036534,-0.5262199115822221,0.522795170753624,-0.1582648911760431,-0.24945754979797985,-3.203226891504161,1.1536594615782683
117,5.9,-0.733,-5.48,-2.78,0.24,1.18,0.486,1.6,3.49,-5.99,60.0,5900000000.0,-1.7551706694362967,-9.744118531668786,0.9384458819719401,0.03069362364328243,0.9488973774211971,0.2840666231308233,0.49670000005620885,-0.8538304336945632,-2.4565779720435645
118,5.95,-1.04,-6.68,0.156,-0.284,0.335,-0.271,1.58,2.33,-2.7,60.0,5950000000.0,-1.4902811911652987,-8.659406429802997,0.545870428127639,-0.19803593847363996,0.5508737585015614,-0.09702423222865647,0.9337538245166992,0.26372913428906575,-2.5795977663842145
119,6.0,-4.71,-12.5,1.21,-0.444,1.34,-0.109,-2.09,-3.45,-1.41,60.0,6000000000.0,-2.6828211491262763,-10.018994202761327,0.8790832293506432,-0.3768106180638824,1.0625079689292765,-0.10524640666965952,-0.2861696347601055,-1.039830765052477,-1.9885105348350098
120,6.05,-1.36,-8.93,-0.0144,-0.429,1.64,-0.0775,1.41,0.213,-2.24,60.0,6050000000.0,-2.192866238315239,-9.633485358640757,0.43079716421553593,-0.41474355026193405,1.436927984372584,-0.08619661836680759,0.39814438895290527,-0.6000733499749823,-2.1156074030023033
121,6.1,-3.76,-8.76,-0.79,-0.6829999999999999,1.05,-0.0555,-0.89,0.46399999999999997,-2.51,60.0,6100000000.0,-2.7733112112226714,-9.324267608682321,-0.18171166512500136,-0.6097210785487928,1.1860611402742536,-0.06512130986291585,-0.12155320462532238,-0.22657187379998367,-2.3149241448028586
122,6.15,-3.25,-9.46,0.079,-0.7879999999999999,0.139,-0.18100000000000002,-0.374,-0.16,-1.14,60.0,6150000000.0,-2.949870238624054,-9.372317512459201,-0.05090517171054662,-0.7392999849324586,0.5071934893534513,-0.14467988047789626,-0.22340203565369812,-0.20320441066001416,-1.7211450964597064
123,6.2,-2.99,-9.47,0.488,-0.614,0.345,-0.2,-0.177,-0.11599999999999999,-0.332,60.0,6200000000.0,-2.9647337585745817,-9.406897656469315,0.21947895358274158,-0.6482278990665246,0.40203447854150626,-0.18266089393821386,-0.20468128805475244,-0.17259469962211318,-1.0191038161818866
124,6.25,-2.3,-9.36,0.46,-0.45899999999999996,0.445,-0.289,0.429,0.0488,-0.0289,60.0,6250000000.0,-2.7185254208143923,-9.390295549027305,0.3401552390565876,-0.510690904585851,0.42989139788051034,-0.25566990057178557,0.050975330798645246,-0.09488271875731241,-0.5186780861677452
125,6.3,-2.46,-8.9,-0.532,-0.436,0.585,-0.40399999999999997,0.113,0.556,-0.747,60.0,6300000000.0,-2.622771144236154,-9.216728536519705,-0.09742996670870724,-0.45640311954293866,0.5304568697498104,-0.35750857666985,0.07599897794458133,0.1335842917091554,-0.6340666031220249
126,6.35,-2.98,-9.55,0.0144,-0.49,0.47200000000000003,-0.361,-0.59,-0.0362,0.0914,60.0,6350000000.0,-2.7550838484278017,-9.334708233632327,-0.041321677267771785,-0.4808224313190979,0.49255604970756417,-0.3599056764019551,-0.19269609952170286,0.07398813222676232,-0.2674328384091077
127,6.4,-2.85,-9.68,-0.7759999999999999,-0.39899999999999997,0.575,-0.381,-0.617,-0.132,-0.431,60.0,6400000000.0,-2.7902394614038744,-9.456943213717931,-0.40993079489909273,-0.42135122047649637,0.5460090149124418,-0.37438836758370636,-0.36388010027405737,0.0016840263479238893,-0.3500958336323374
128,6.45,-2.14,-10.0,0.00479,-0.302,0.6,-0.46399999999999997,-0.10400000000000001,-0.467,0.581,60.0,6450000000.0,-2.549399670193018,-9.649187811631288,-0.2018535223915008,-0.33460286365254166,0.581014372233869,-0.4359128175658864,-0.25903233299403144,-0.1628292384103622,0.12045809631306698
129,6.5,-2.84,-9.83,0.0551,-0.11900000000000001,0.638,-0.365,-1.02,-0.218,0.785,60.0,6500000000.0,-2.6570340380384634,-9.713196130211848,-0.07293259769060467,-0.17789569577534112,0.6179613139987773,-0.38722636868555216,-0.5660422172933179,-0.182194782332102,0.45630196476107865
130,6.55,-4.1,-10.7,0.35700000000000004,0.0412,0.611,-0.172,-2.43,-1.07,1.14,60.0,6550000000.0,-3.191488919246622,-10.062529167365875,0.14277686749189694,-0.01864982140133198,0.6134479100318898,-0.2394588834660597,-1.3180498555384434,-0.493824223210643,0.8018268712643117
131,6.6,-5.38,-11.9,0.12,0.242,0.15,0.0844,-3.75,-2.27,0.884,60.0,6600000000.0,-4.0020836241727284,-10.713002151011265,0.1313490609322924,0.17079894074159194,0.3129690006065129,-0.017107811433861003,-2.2992121092838502,-1.117281502535207,0.8433552403796869
132,6.65,-4.54,-12.0,1.08,0.833,-0.578,0.638,-2.77,-2.34,1.62,60.0,6650000000.0,-4.2013205008103105,-11.168605303838238,0.6073143639705415,0.6521081997924216,-0.26469548768754525,0.4326681093919871,-2.489149921220036,-1.5464691496393264,1.2358532459101235
133,6.7,-0.364,-9.78,0.948,1.82,-0.971,0.97,1.84,-0.228,0.779,60.0,6700000000.0,-2.7800293089340133,-10.67703255053703,0.7782460887618381,1.500969962776785,-0.7226317787909022,0.8015828900059414,-0.7425686699846161,-1.0836719375603412,1.0049703477846545
134,6.75,-0.594,-10.1,-0.491,2.22,-0.716,0.794,2.01,-0.758,-1.72,60.0,6750000000.0,-1.97035385412525,-10.472760510986829,0.14142906210774253,2.023584388018438,-0.7183320430922062,0.796376742378474,0.3679460651239692,-0.9693575015289316,-0.3721656182401458
135,6.8,-2.06,-11.7,0.539,1.49,-1.14,0.596,0.759,-2.59,-1.71,60.0,6800000000.0,-2.0035575429800625,-10.907208862247169,0.3409017485838095,1.6357579165969631,-0.9917226926556324,0.658804538856419,0.5257154849567546,-1.538220861448969,-1.0482756824813109
136,6.85,-3.27,-10.3,2.06,1.11,-0.787,0.401,-0.35,-1.47,-0.919,60.0,6850000000.0,-2.4726305532289152,-10.692254202157985,1.2034224316304396,1.2536199824842627,-0.8589896481427566,0.4818042452900201,0.17241096719412868,-1.5142745967563394,-0.9829428066797644
137,6.9,-2.31,-7.91,1.63,0.598,-1.31,0.436,0.639,0.7559999999999999,-1.9,60.0,6900000000.0,-2.4123943926926383,-9.707323374973758,1.4174485836978026,0.7770940598039098,-1.1514045674498317,0.45035651927923315,0.36065477089204256,-0.7173831820047154,-1.4464019407421311
138,6.95,-1.15,-8.0,1.25,0.098,-1.25,0.298,1.71,0.546,-2.61,60.0,6950000000.0,-1.9448207143773684,-9.10292305437925,1.3334348448236313,0.2835064200749317,-1.2153294396668222,0.34575344811937037,0.9050436624635302,-0.273921750694396,-2.0344569914738617
139,7.0,-0.56,-8.34,1.87,-0.0699,-0.7390000000000001,0.14400000000000002,2.19,0.184,-2.13,60.0,7000000000.0,-1.4319020055863827,-8.832844841200288,1.6026449166026193,0.02663914685295571,-0.9064987327701688,0.20723602773940678,1.4234550760837779,-0.1131861659335861,-2.082742239667399
140,7.05,-0.601,-8.38,2.3,-0.0626,-0.368,0.0941,2.09,0.132,-1.75,60.0,7050000000.0,-1.1241472366686893,-8.67253572691952,1.9525278632315972,-0.038222767192628904,-0.5573602205160035,0.12956047577022498,1.6923703896019195,-0.027123117932287846,-1.9145821342838476
141,7.1,-2.38,-8.58,3.99,-0.16,-0.066,-0.0488,0.284,-0.0432,-0.0456,60.0,7100000000.0,-1.589298018224552,-8.639777627341841,2.974785854807098,-0.12673441599045604,-0.23878421228279623,0.007103921286587253,1.1241680111140595,-0.03276628123357806,-0.9700425025076025
142,7.15,-4.08,-8.08,4.42,-0.0272,-0.37,-0.039,-1.49,0.494,0.415,60.0,7150000000.0,-2.5118200416741185,-8.44161374784577,3.699891123182252,-0.05438956716155295,-0.323858668071846,-0.024549545956679547,0.06949055703376805,0.15213448859750456,-0.2700745873671958
143,7.2,-2.59,-6.85,3.17,-0.369,-0.47200000000000003,0.10800000000000001,-0.056,1.75,-0.8220000000000001,60.0,7200000000.0,-2.5407768004129174,-7.878175133227434,3.4340296446201037,-0.28305864790111734,-0.4199068890848625,0.06645470291004622,0.018861805560636137,0.7130029049904008,-0.5490047290147488
144,7.25,-2.65,-8.53,4.21,-0.575,-0.498,0.135,-0.166,0.146,0.371,60.0,7250000000.0,-2.581231619533389,-8.10892403693911,3.823356162505186,-0.4952511040323203,-0.4705389695784734,0.11351569875384797,-0.05572007679797749,0.5139786314540753,-0.08405597175452428
145,7.3,-3.23,-9.44,5.31,-0.292,-0.321,0.33399999999999996,-0.73,-0.713,1.6,60.0,7300000000.0,-2.8215265883438634,-8.580130896158467,4.5692478242721615,-0.34752159145168027,-0.37358459096641833,0.26489310915404285,-0.32775609255472204,0.08329560037713796,0.767026337405743
146,7.35,-0.639,-7.64,3.08,-0.47100000000000003,-0.29100000000000004,0.201,1.96,1.09,-0.5660000000000001,60.0,7350000000.0,-2.013148499661307,-8.247320191365146,3.822049600948458,-0.43726970245309676,-0.32004043846966945,0.22102616275428016,0.5952315625709645,0.43665995869390717,0.09334617273730095
147,7.4,-1.23,-13.5,1.21,-1.06,0.312,-0.502,1.26,-4.65,-2.13,60.0,7400000000.0,-1.7230809811905805,-10.106792981848084,2.5115097023749415,-0.8898902841134296,0.08974634000092113,-0.27538028393411157,0.8634301892636191,-1.3488138179734843,-1.0302807714394775
148,7.45,-3.32,-13.5,6.49,-0.04,0.188,-0.179,-0.983,-4.47,3.53,60.0,7450000000.0,-2.314557986001951,-11.308003859457061,4.507631845468726,-0.27216239772412143,0.15344961799600643,-0.2092086902872339,0.1184940355249422,-2.444384515891103,1.2743779068794452
149,7.5,-0.311,-5.39,-1.92,-0.23399999999999999,1.27,-0.0592,2.09,3.66,-4.82,60.0,7500000000.0,-1.5724674239178542,-9.213003250280428,1.2827053162984177,-0.24442472461315332,0.8773709744731332,-0.10621755746672527,0.9138915709424723,-0.3016781991274686,-1.8055774993203384
150,7.55,-3.46,-8.36,-0.62,-0.883,0.47,-0.159,-0.985,0.8079999999999999,-3.09,60.0,7550000000.0,-2.2715837664932095,-8.911036058242216,0.32806369157681614,-0.7085620046111206,0.6132498393377934,-0.14245627778840717,0.14779003237157629,0.08783109660993699,-2.454694391885273
151,7.6,-3.97,-11.1,1.89,-0.5,0.318,-0.0213,-1.51,-1.88,-0.184,60.0,7600000000.0,-2.9006539909707323,-9.685939487856995,1.1117317588382787,-0.5569723599684502,0.42182303101710317,-0.059274281085520325,-0.52103987713358,-0.6028993186433069,-1.3071388288921109
152,7.65,-0.965,-9.07,0.326,-0.321,0.828,0.12,1.58,0.223,-1.49,60.0,7650000000.0,-2.183714136902791,-9.467893970626466,0.717507687581416,-0.3854599851329954,0.6851700314540433,0.06380966148596207,0.3266177394746289,-0.3129995477407169,-1.3995525706475878
153,7.7,-2.71,-10.7,0.20800000000000002,-0.359,0.8740000000000001,0.0996,-0.0522,-1.33,-1.27,60.0,7700000000.0,-2.3786432584730024,-9.90406509953813,0.4618731249412676,-0.36622800590168864,0.8075989525595307,0.08838215608225565,0.173784973314743,-0.6699779374292985,-1.3340797374960645
154,7.75,-1.59,-8.55,-0.706,-0.387,0.588,-0.00603,1.13,0.8,-1.89,60.0,7750000000.0,-2.086540561561454,-9.424719899336061,-0.12408217612164302,-0.38132576245851096,0.6652208053295177,0.02356181220472535,0.5595667658016555,-0.1539994657111865,-1.6150287616277996
155,7.8,-3.4,-9.95,-0.204,-0.397,0.5429999999999999,-0.0305,-0.674,-0.573,-1.1,60.0,7800000000.0,-2.5730280630079867,-9.610671401328393,-0.1641792299034686,-0.3927183185675697,0.585978286095021,-0.013555286188671002,0.061888318254451735,-0.30107327900346914,-1.3547453455270608
156,7.85,-2.65,-9.42,0.213,-0.35,0.517,-0.158,0.0601,-0.0122,-0.376,60.0,7850000000.0,-2.6015374542301903,-9.543172876052962,0.025062366472159453,-0.3616692516629371,0.5412558607192244,-0.11272637706066277,0.06116682730287731,-0.19967557218223667,-0.8601104510303429
157,7.9,-2.76,-9.44,0.156,-0.256,0.574,-0.307,-0.14400000000000002,0.0012900000000000001,-0.201,60.0,7900000000.0,-2.6602298169111505,-9.506649055262132,0.09075752005001067,-0.28486541341887245,0.5624856979054181,-0.24610839394131742,-0.021607049064043364,-0.12913444000335822,-0.5270115268495441
158,7.95,-3.03,-9.33,0.364,-0.247,0.564,-0.301,-0.5489999999999999,0.155,0.205,60.0,7950000000.0,-2.7971876400734246,-9.444114450915796,0.22785107576700114,-0.2573435956422696,0.5634675105106157,-0.2837952011652841,-0.23438200329435374,-0.029400117597152567,-0.1570701111779335
159,8.0,-3.14,-9.15,-0.113,-0.33899999999999997,0.363,-0.251,-0.76,0.36200000000000004,-0.0923,60.0,8000000000.0,-2.9241607025757634,-9.339996448672583,0.05683635305726298,-0.3166941150167196,0.43349333918185234,-0.26127906400686834,-0.44644084425136976,0.10798563617720343,-0.12433681858146695
160,8.05,-2.37,-9.26,0.196,-0.39,0.44299999999999995,-0.332,-0.0934,0.275,0.43700000000000006,60.0,8050000000.0,-2.7189070922960283,-9.311677419251096,0.1266587284167956,-0.36997520476767687,0.43965702593661055,-0.3098337710546134,-0.3040076822469683,0.16660952187142275,0.15934961613502296
161,8.1,-2.23,-9.88,0.318,-0.32,0.5770000000000001,-0.40399999999999997,-0.0838,-0.32299999999999995,0.725,60.0,8100000000.0,-2.537822578940396,-9.51286626502505,0.22266010585587911,-0.33365159620793006,0.5287040866571663,-0.3744852790695935,-0.21516562131071568,-0.005248824766099669,0.4452160341326586
162,8.15,-3.07,-9.42,0.373,-0.21,0.5820000000000001,-0.35,-1.04,0.165,0.804,60.0,8150000000.0,-2.734933814389577,-9.47999120745587,0.2980899243085212,-0.24377759179610825,0.5632587861939632,-0.3576744713880473,-0.5479423118099703,0.054510392599347986,0.6265370258355983
163,8.2,-3.32,-9.81,0.445,-0.14300000000000002,0.637,-0.261,-1.27,-0.228,0.856,60.0,8200000000.0,-2.9516343270556704,-9.596815985088995,0.3717989032897362,-0.17052916696997134,0.6110693094841528,-0.291300899670329,-0.8392540936645272,-0.04465387088082124,0.7425022215921812
164,8.25,-4.67,-11.3,0.38799999999999996,0.0663,0.469,-0.182,-2.66,-1.7,0.8140000000000001,60.0,8250000000.0,-3.588093569538671,-10.199751020720242,0.3799274621577447,0.0016059681670060333,0.5189579258933716,-0.21625842155964387,-1.5738280507993245,-0.6256986347486903,0.7786355232368305
165,8.3,-5.89,-11.8,0.737,0.423,-0.245,0.20800000000000002,-3.91,-2.2,1.1,60.0,8300000000.0,-4.440688273937971,-10.766246580709161,0.5590809511242184,0.30788885440935776,0.023641745076789122,0.07502374221767483,-2.516348942622895,-1.1782957927053395,0.9410455867811869
166,8.35,-2.97,-11.5,0.9790000000000001,1.18,-1.21,0.88,-0.7559999999999999,-1.98,0.9470000000000001,60.0,8350000000.0,-3.8959654016595415,-11.025998663037159,0.7697663222270175,0.9417675464765285,-0.7761964554807528,0.6276944977762506,-1.806141968534102,-1.45970281767074,0.9440548207327674
167,8.4,0.244,-10.1,0.67,1.94,-1.01,0.94,2.89,-0.703,-0.245,60.0,8400000000.0,-2.3625786669907813,-10.69819101601896,0.7197107161610192,1.6673153846677833,-0.9277842188391854,0.842113390153736,0.08850104097688716,-1.1940917866315277,0.3431344657968912
168,8.45,-1.68,-10.6,-1.63,1.63,-1.38,0.431,1.22,-1.44,-3.64,60.0,8450000000.0,-2.109760816714027,-10.663431080162141,-0.45920628497080695,1.6401933466202647,-1.2209807186434216,0.5598561803687142,0.5450005705191656,-1.2804083015815695,-1.6698481054434708
169,8.5,-3.11,-11.3,1.78,1.17,-0.7809999999999999,0.517,-0.11599999999999999,-2.4,-0.983,60.0,8500000000.0,-2.480235732436116,-10.888779470602017,0.6642674736773937,1.2984415066054167,-0.935716895244681,0.530432521358702,0.2783220747861894,-1.6733973684999692,-1.3227312104051299
170,8.55,-1.98,-9.68,0.888,0.851,-1.27,0.48100000000000004,1.08,-0.997,-2.5,60.0,8550000000.0,-2.294955245245973,-10.460866091203222,0.776520480484006,0.9732264826673636,-1.1524511088264229,0.4964937493759907,0.6017564033142486,-1.4359744252152098,-1.9176951798756872
171,8.6,-1.55,-8.08,1.51,0.324,-1.07,0.4,1.47,0.428,-2.31,60.0,8600000000.0,-2.019033962694859,-9.618028526849006,1.1445281080203655,0.5013475714577533,-1.0989935286266161,0.43024425458597504,0.9520464263788861,-0.7816988442321308,-2.1159567842284233
172,8.65,-0.373,-8.28,2.05,0.037,-0.946,0.102,2.57,0.16,-1.98,60.0,8650000000.0,-1.4093654261553565,-9.144360185023098,1.5988292039429215,0.16384466239753315,-0.9997993489901489,0.20488232550459187,1.604804425084223,-0.45115216573596384,-2.047247431370446
173,8.7,-0.838,-8.79,2.53,0.0547,-0.715,-0.058,1.93,-0.36,-1.64,60.0,8700000000.0,-1.1977394630700802,-9.01891503758978,2.0660241838940587,0.08451477261910528,-0.8151481618379431,0.02439579314631246,1.7360034845941508,-0.4191567553218844,-1.8414341464372255
174,8.75,-1.39,-7.96,3.37,-0.018,-0.467,-0.155,1.2,0.485,-0.898,60.0,8750000000.0,-1.268950139053009,-8.644054261636658,2.7202660513299737,0.010003704011621678,-0.589424457456015,-0.09877157835044491,1.5197546682390917,-0.10178775778560045,-1.3646447092886227
175,8.8,-2.63,-8.28,4.25,0.0058,-0.34299999999999997,-0.158,-0.19399999999999998,0.192,-0.0504,60.0,8800000000.0,-1.7730644911348588,-8.515177285508646,3.4877772817770367,0.006948315233237804,-0.42965384859641276,-0.1394359090557718,0.8283460050723065,0.00133498579014045,-0.7004563302489377
176,8.85,-2.51,-7.46,3.89,-0.0254,-0.264,-0.0763,-0.312,0.205,-0.0885,60.0,8850000000.0,-2.046015351491158,-8.141639690968756,3.6895839646715354,-0.016563491596612655,-0.32225129534086094,-0.09608883021455163,0.36827717296634493,0.07282365124819093,-0.39118798789045767
177,8.9,-2.42,-7.9,3.81,-0.319,-0.486,-0.0189,-0.205,0.622,-0.514,60.0,8900000000.0,-2.184534194033096,-8.056098163692464,3.7500001014798436,-0.23638418131776362,-0.42841863840872757,-0.04309346643903375,0.13699039162546567,0.2655905988287902,-0.45325429086057345
178,8.95,-2.5,-8.6,4.74,-0.35200000000000004,-0.611,0.19699999999999998,-0.37799999999999995,-0.004379999999999999,0.512,60.0,8950000000.0,-2.3013784269817497,-8.248642048240225,4.246711222552175,-0.32041751525438433,-0.5467962345963873,0.12174696865671752,-0.0707807774504671,0.17082794135954268,0.03456254755682081
179,9.0,-1.64,-7.69,4.13,-0.498,-0.115,0.28800000000000003,0.525,0.943,0.0171,60.0,9000000000.0,-2.056412870654395,-8.050880216229292,4.188153924878818,-0.4494902348666342,-0.26683885449210104,0.23589093408487538,0.16958499989904488,0.44186885628776806,0.025737386935304855
180,9.05,-0.20600000000000002,-8.32,2.74,-0.83,-0.0446,0.0703,2.03,0.401,-1.14,60.0,9050000000.0,-1.371045175035573,-8.146149748366694,3.461573728101947,-0.7260570892045513,-0.12274911232047694,0.12220153336273418,0.9201632757270148,0.42752343458596787,-0.5633988754970942
181,9.1,-2.61,-17.0,4.75,-0.94,0.735,-0.319,-0.40700000000000003,-8.06,1.36,60.0,9100000000.0,-1.829937109392293,-11.280453424531837,4.108014002336918,-0.8815577496453335,0.43337708841276834,-0.18071322598155823,0.38472363326051195,-2.5516910419973873,0.4086417056057039
182,9.15,-3.38,-9.88,5.39,0.37799999999999995,0.201,0.276,-1.17,-0.882,2.19,60.0,9150000000.0,-2.404059310344852,-10.784686517100138,4.751222939985157,0.033929760624937466,0.2827141725081643,0.13285135298646847,-0.2425244644557154,-1.9656110824553055,1.3088983379852681
183,9.2,0.917,-4.15,-4.18,-0.502,1.16,-0.0402,3.31,4.79,-7.4,60.0,9200000000.0,-1.173984228186823,-8.435977034691215,0.2701732893104847,-0.3556013920638433,0.85150707534303,0.014039871324147427,1.1907297746685972,0.40568289763807885,-3.0923741899363515
184,9.25,-4.35,-11.1,0.28300000000000003,-0.8740000000000001,0.184,-0.159,-1.9,-2.02,-2.45,60.0,9250000000.0,-2.3503371277024536,-9.379053541734839,0.27660881272735827,-0.7323903611691174,0.41872531893999465,-0.10476372439918333,-0.056214935503721364,-0.445758544124903,-2.767733400222225
185,9.3,-1.52,-9.77,0.97,-0.503,0.366,0.00863,0.897,-0.557,-1.38,60.0,9300000000.0,-2.0427915707238093,-9.517450546571075,0.6245029976907878,-0.5656620051656343,0.38454057627966387,-0.026911247217452527,0.32835648799195943,-0.48480551542405165,-2.066405562011015
186,9.35,-1.31,-10.1,0.611,-0.369,0.9129999999999999,-0.0323,1.15,-0.8140000000000001,-1.42,60.0,9350000000.0,-1.7713755438238095,-9.72367586518152,0.6177281586519751,-0.42272165811348905,0.7271700416301212,-0.03061099064420716,0.65984583963854,-0.6003564136789818,-1.7397273658385415
187,9.4,-3.38,-9.36,-0.0455,-0.14800000000000002,1.1,0.18,-0.8059999999999999,-0.0554,-1.79,60.0,9400000000.0,-2.3671881501378915,-9.594932816129106,0.2849676418002716,-0.22304502805047818,0.9688963402537524,0.11398773366035411,0.06845517921558408,-0.4090707021404286,-1.7651339539896307
188,9.45,-2.17,-8.28,-0.735,-0.359,0.19899999999999998,0.0172,0.519,1.03,-2.23,60.0,9450000000.0,-2.2941523763737592,-9.129440462032342,-0.22677927434437012,-0.32186151922345224,0.46972996066467937,0.04753639504289829,0.25022599663911366,0.09605897490723436,-2.0000663345971446
189,9.5,-2.74,-10.0,0.00479,-0.364,0.124,-0.125,-0.0676,-0.674,-1.27,60.0,9500000000.0,-2.4592882602748087,-9.437622539052372,-0.11059435280501032,-0.352489131468616,0.2455741035931393,-0.07092153393660246,0.12200014922451011,-0.1742402265025858,-1.631107962816771
190,9.55,-2.51,-9.27,-0.405,-0.455,0.0855,-0.237,0.0863,0.136,-1.43,60.0,9550000000.0,-2.478071193649179,-9.3782835519837,-0.25830607852083676,-0.42699737255239845,0.1417892098019692,-0.18494565935424673,0.10759704214852597,-0.06534248295437246,-1.5294726998129153
191,9.6,-2.77,-9.31,0.271,-0.534,0.10300000000000001,-0.285,-0.29100000000000004,0.15,-0.451,60.0,9600000000.0,-2.586197635817778,-9.354111009336677,0.007261903620721322,-0.5047703455954249,0.11664001974078883,-0.25363974300958214,-0.05321562151677808,0.01024510553657515,-0.9844379540194156
192,9.65,-2.41,-9.41,0.223,-0.505,0.0965,-0.225,-0.0377,0.0911,-0.221,60.0,9650000000.0,-2.5209364658707774,-9.3738959148476,0.11550387321393024,-0.5049372624162012,0.10358213220014947,-0.23397661426134908,-0.0469558957236188,0.03862606513848353,-0.5986143603881733
193,9.7,-2.11,-9.41,-0.0742,-0.596,0.0806,-0.335,0.141,0.135,-0.239,60.0,9700000000.0,-2.368731163443208,-9.38667687288787,0.020324021260210906,-0.5711246316909342,0.08868154535254251,-0.30333602123523656,0.02887429069944754,0.07245438100758284,-0.4168737132024477
194,9.75,-2.63,-9.54,-0.455,-0.515,0.27899999999999997,-0.364,-0.512,0.0313,-0.349,60.0,9750000000.0,-2.465501620320647,-9.440953950964252,-0.2181596280044464,-0.5303314145462277,0.21207553509841726,-0.34498594912913905,-0.18933966534104524,0.0580087397042783,-0.3825719377091318
195,9.8,-2.54,-9.76,-0.484,-0.544,0.2,-0.526,-0.5329999999999999,-0.16899999999999998,-0.106,60.0,9800000000.0,-2.4930947901908898,-9.553897799496072,-0.3515393370560272,-0.5402662082645295,0.2042462997308016,-0.4692643791282571,-0.327988289269091,-0.021673831390087363,-0.24279898177701206
196,9.85,-4.12,-11.0,1.14,-0.382,0.18,-0.41100000000000003,-2.26,-1.39,1.73,60.0,9850000000.0,-3.095678253605926,-10.065824623909421,0.3968085582495679,-0.425233182843997,0.1885260871944717,-0.4292619431117299,-1.1074520292323389,-0.5019714019911942,0.7542072540864894
197,9.9,-4.41,-11.5,0.153,0.0492,0.228,-0.40299999999999997,-2.75,-1.84,0.879,60.0,9900000000.0,-3.582485050321786,-10.573529297671776,0.27448283690814934,-0.08039972440871274,0.21411920823823294,-0.41123133727850636,-1.7701325831711447,-0.9716342079152729,0.8172745781750683
198,9.95,-5.57,-10.9,-0.498,0.331,-0.142,-0.0952,-4.08,-1.19,0.163,60.0,9950000000.0,-4.318633550204333,-10.689101291521213,-0.1130938721393725,0.21861896876904657,-0.016772574362938608,-0.1942544064837349,-2.7020409328770234,-1.048283029246043,0.48661958918207765
199,10.0,-3.4,-12.0,0.599,0.838,-0.9490000000000001,0.758,-1.8,-2.3,1.01,60.0,10000000000.0,-3.978384244697509,-11.153165458441954,0.24418395836686385,0.6688052360399983,-0.6211871763442638,0.45953279444923567,-2.338115478453843,-1.4876494736712595,0.7511237396713657
200,10.0,0.965,-10.0,1.0,1.94,-0.9179999999999999,1.02,3.02,-0.41200000000000003,0.708,60.0,10000000000.0,-2.147422136435366,-10.744939586883474,0.6233984620456388,1.5927509545981433,-0.8136273354516289,0.8443315040464704,-0.17640149269378602,-1.1100846458936853,0.7293300176201665
201,10.1,0.0407,-10.6,0.297,2.39,-0.258,0.813,2.51,-1.22,-1.09,60.0,10100000000.0,-1.3369715336501815,-10.693630442111688,0.4596350230554419,2.172217553089584,-0.45338339342450307,0.8228203190442396,0.9074183132681262,-1.1486661574173533,-0.19011661893918164
202,10.1,-2.48,-11.5,0.486,1.62,-0.21,0.6970000000000001,0.331,-2.38,-1.9,60.0,10100000000.0,-1.7603336987139893,-10.979088971204243,0.47286308602086985,1.7708478881233134,-0.29558447372701635,0.7364361607879658,0.6748642486215539,-1.5808779559688035,-1.0542514694797473
203,10.2,-3.75,-10.5,1.13,0.958,-1.05,0.698,-0.7240000000000001,-1.7,-1.93,60.0,10200000000.0,-2.4972789663159523,-10.809489273786882,0.8025674494489204,1.1800436230398548,-0.7847137550737948,0.710047140861681,0.11049709679893416,-1.6226911238861144,-1.4968341620427077
204,10.2,-2.06,-8.01,1.78,0.5,-1.44,0.736,1.08,0.563,-1.79,60.0,10200000000.0,-2.335316778582019,-9.818457287085812,1.2929732734459785,0.685765811746565,-1.2095721085168434,0.7278655386166186,0.5016398584179216,-0.8554894265375561,-1.644993265137747
205,10.3,-1.16,-8.07,1.87,0.0156,-1.31,0.563,2.01,0.359,-2.02,60.0,10300000000.0,-1.8999954576411269,-9.199495264542747,1.582484071675395,0.19866751449005993,-1.2746850281138584,0.614674188513431,1.110182772008359,-0.4291902448753791,-1.8345128431438724
206,10.3,-0.833,-8.1,1.93,-0.218,-1.14,0.358,2.28,0.266,-2.12,60.0,10300000000.0,-1.5047948908975672,-8.810269023303258,1.7568427160152797,-0.104179975772343,-1.1873612657094297,0.4384499688535458,1.582141657526273,-0.18517080117154489,-1.978791282773801
207,10.4,0.0838,-7.25,2.04,-0.177,-0.455,0.147,3.13,1.11,-2.07,60.0,10400000000.0,-0.9164010037477142,-8.257926618975395,1.8989107967765637,-0.1571079373095454,-0.7125309588888886,0.2383498119152467,2.2066200398335334,0.26944843871497637,-2.024885990467327
208,10.4,-1.68,-7.5,3.47,-0.248,0.11,-0.187,1.33,0.905,-0.573,60.0,10400000000.0,-1.1992276403629574,-7.98961711287326,2.6871711544127086,-0.22317124014059364,-0.1792386445959907,-0.05368166678420136,1.8529505973026819,0.4925340357966189,-1.2911369507284332
209,10.5,-4.47,-8.5,4.3,-0.212,-0.055,-0.264,-1.55,-0.00978,0.363,60.0,10500000000.0,-2.4106770455534745,-8.170295000335612,3.496373564573368,-0.21505161784516716,-0.09868785949526317,-0.19807945603622673,0.48004143703387614,0.3162162695275016,-0.4551750206966805
210,10.5,-4.03,-8.61,4.79,-0.267,-0.618,0.0734,-1.21,-0.0599,0.915,60.0,10500000000.0,-3.010452265068701,-8.325952469304468,4.145422890293132,-0.25280938322145946,-0.43538662438194725,-0.011690410948353158,-0.20180021440293283,0.18419531072219705,0.23727923372229187
211,10.6,-4.07,-9.51,5.51,-0.00886,-0.7290000000000001,0.478,-1.28,-0.9490000000000001,1.63,60.0,10600000000.0,-3.4028943620456436,-8.745110817381773,4.830070330516942,-0.07549904177041877,-0.6257523975640988,0.3245152351508394,-0.6367963453730341,-0.21356874100055281,0.9411275646687042
212,10.6,-1.27,-7.19,5.25,-0.0809,0.007940000000000001,0.621,1.69,1.28,1.3,60.0,10600000000.0,-2.612899366681537,-8.194594461910501,5.040761044157954,-0.07942463272268163,-0.21489456686655556,0.5280721151298501,0.3019419785085168,0.3106903487128654,1.1224932325393844
213,10.7,0.201,-7.64,1.99,-0.865,-0.259,-0.0702,3.32,0.821,-1.86,60.0,10700000000.0,-1.5706694087566675,-7.998265426539597,3.510107065067139,-0.6504063531626942,-0.24349056079424708,0.11731775722643767,1.5195674925615457,0.48981465718085615,-0.3847887380226478
214,10.7,-4.42,-17.3,3.71,-1.34,0.389,-0.649,-1.49,-8.55,0.374,60.0,10700000000.0,-2.62602263553522,-11.29112194076031,3.610399081113204,-1.1516254564537007,0.16658805177440933,-0.4088113133359287,0.30536742358296465,-2.683260049078531,-0.0013147419280166162
215,10.8,-2.07,-9.38,5.93,0.359,0.293,0.096,0.722,-0.47200000000000003,2.92,60.0,10800000000.0,-2.4200794083373673,-10.614576031851662,4.774209052903883,-0.05365377095227308,0.2485479178227315,-0.06222413219552675,0.4734564616741333,-1.9070833862088807,1.475049089071544
216,10.8,2.7,-2.82,-4.41,-0.752,1.83,-0.353,5.67,6.05,-7.34,60.0,10800000000.0,-0.5236717934413571,-7.855260273657998,0.16622903134988398,-0.5612344925365734,1.2738908003380391,-0.2618614628452802,2.569984820291263,0.8859407031521547,-2.9798695618348
217,10.9,-7.66,-13.0,1.55,-0.366,0.2,-0.45899999999999996,-4.78,-3.99,-0.8859999999999999,60.0,10900000000.0,-3.166870396156642,-9.676521778980149,0.8605064402621709,-0.41933171447889533,0.5776279997141929,-0.39721042392017497,-0.3953423651984709,-0.8255682607975636,-1.9216770994104302
218,10.9,0.23,-7.59,0.141,-0.768,0.546,0.0306,3.05,1.56,-2.0,60.0,10900000000.0,-1.9087159184125009,-8.937883534811416,0.4995095023649353,-0.6727551633512564,0.5571218206340819,-0.10348957261050246,0.994669613819974,0.011792487644363914,-1.961259652050133
219,11.0,-1.92,-9.97,-0.201,-0.636,0.713,-0.28800000000000003,0.883,-0.721,-1.86,60.0,11000000000.0,-1.912895372471459,-9.30325760101767,0.14804386717381013,-0.6460402995441255,0.6581862656004492,-0.23016847783298855,0.9496168834780507,-0.24542576256655257,-1.9100854116791988
220,11.0,-2.48,-9.56,-0.254,-0.609,0.7020000000000001,-0.17800000000000002,0.256,-0.218,-1.48,60.0,11000000000.0,-2.1229432007320694,-9.394145738640676,-0.05367303247280392,-0.6191182255275389,0.686593147162392,-0.1943512841712171,0.6697794475631902,-0.2357990156024477,-1.6927303652721206
221,11.1,-3.22,-9.09,-0.0287,-0.5720000000000001,0.13,-0.0402,-0.545,0.305,-0.86,60.0,11100000000.0,-2.5292780906946124,-9.286476803503808,-0.04114334837500196,-0.5848711869581189,0.3257230217037737,-0.088515979022596,0.1796806847805747,-0.04597259447067498,-1.2718880228190976
222,11.1,-2.58,-9.59,-0.0527,-0.524,0.177,-0.21600000000000003,0.0634,-0.165,-0.568,60.0,11100000000.0,-2.5480647660168607,-9.39392546389432,-0.04694165157449351,-0.5406280215757844,0.22929766158664072,-0.17604240359468812,0.1327676266824492,-0.08775252879401568,-0.9161595734145971
223,11.2,-1.94,-9.42,-0.6990000000000001,-0.623,0.18899999999999997,-0.429,0.562,0.0545,-0.917,60.0,11200000000.0,-2.3228458892365484,-9.403155996507365,-0.3740979564276382,-0.6004986718624274,0.20317045586425597,-0.3497149312049351,0.305940000638785,-0.03782032283064473,-0.9165843030841602
224,11.2,-2.02,-9.79,-0.17,-0.669,0.37799999999999995,-0.514,0.256,-0.25,-0.0123,60.0,11200000000.0,-2.210675894299485,-9.54010053794701,-0.2716961809860444,-0.6502876854024017,0.3165221133970022,-0.4625077644933792,0.28579187722429245,-0.1122977295181938,-0.45958027521117095
225,11.3,-2.64,-9.65,0.0311,-0.363,0.342,-0.39899999999999997,-0.601,-0.0707,0.491,60.0,11300000000.0,-2.3696917277925578,-9.579005317505006,-0.11977468566583466,-0.44147766082335066,0.3330408414053707,-0.4189053723529188,-0.07198138124593989,-0.0976964667345607,0.02082064669619682
226,11.3,-2.41,-10.1,-0.6970000000000001,-0.22399999999999998,0.5720000000000001,-0.42100000000000004,-0.542,-0.457,-0.0874,60.0,11300000000.0,-2.3846213939791974,-9.763439964335324,-0.4093851320638786,-0.28340783245125967,0.487971298021065,-0.4203434788166356,-0.26160883891343617,-0.22381596501626547,-0.0338715223415076
227,11.4,-2.74,-9.96,-0.306,-0.253,0.47100000000000003,-0.484,-1.11,-0.316,0.452,60.0,11400000000.0,-2.5162487873631014,-9.83302313373911,-0.3575138544596903,-0.2613064249514553,0.4769678577145095,-0.4640479931765069,-0.6038894566311621,-0.2561735830423668,0.2116765185637639
228,11.4,-4.22,-10.4,1.3,0.0205,0.384,-0.0964,-2.74,-0.7809999999999999,2.18,60.0,11400000000.0,-3.1472949270575143,-10.033735414845548,0.47410818179547587,-0.056480354249354686,0.4166916556876953,-0.21163272835094493,-1.465696204237093,-0.4403934497473239,1.2064209658692433
229,11.5,-4.71,-12.0,0.541,0.55,0.23199999999999998,0.22899999999999998,-3.21,-2.37,1.34,60.0,11500000000.0,-3.726099591704258,-10.729802113785485,0.5076697225648582,0.3843292906422531,0.29694583571659855,0.09089150534621354,-2.1694298250900372,-1.1177065891775335,1.2739286862352035
230,11.5,-3.08,-12.6,0.8740000000000001,1.32,-0.691,0.61,-1.41,-2.9,1.24,60.0,11500000000.0,-3.4867930846670103,-11.39186089487669,0.6914680962036921,1.064405216023566,-0.34359408278257114,0.4472946797119405,-1.8630403568710585,-1.7433112656854224,1.2567819306719767
231,11.6,0.7709999999999999,-10.6,0.38799999999999996,2.11,-0.883,1.01,2.84,-0.987,-0.128,60.0,11600000000.0,-1.9097645736413127,-11.111538634205564,0.5392094872228597,1.824377417750186,-0.6933207838652717,0.8336300133138406,0.03438570767971627,-1.4778376665141166,0.556945695121714
232,11.6,-1.79,-10.3,-0.0551,1.99,-0.138,0.643,0.6579999999999999,-0.9009999999999999,-1.68,60.0,11600000000.0,-1.865405394503325,-10.824250295863685,0.2410274358459915,1.9447573013274249,-0.33327560275653945,0.7027495936662314,0.28598083121816054,-1.2753612920085335,-0.5735540436087989
233,11.7,-3.44,-9.9,1.3,1.07,-0.303,0.747,-0.7,-0.779,-1.06,60.0,11700000000.0,-2.4486137869511886,-10.49706130877529,0.772344204904019,1.3089552972526044,-0.31364625696115517,0.7331304823138125,-0.11180987391391461,-1.1011329989222027,-0.8193923650365637
234,11.7,-2.43,-9.13,1.11,0.893,-1.62,0.7070000000000001,0.527,-0.249,-1.82,60.0,11700000000.0,-2.44171951880152,-10.013115363771929,0.9417557721679519,1.0066254706700568,-1.160627645843152,0.7151901469782158,0.14591586394980854,-0.8020249179306054,-1.3250759666483605
235,11.8,-1.51,-8.12,2.26,0.319,-1.51,0.456,1.43,0.5870000000000001,-1.16,60.0,11800000000.0,-2.096623310106917,-9.342943784839582,1.6031565620851802,0.5068369302162121,-1.3871450605786322,0.5372385444362973,0.6639753465140232,-0.31446184867096433,-1.241650437059522
236,11.8,-1.35,-9.75,2.64,0.1,-1.21,0.406,1.54,-1.13,-1.04,60.0,11800000000.0,-1.8200842255685556,-9.48704355559726,2.1233705927811513,0.21113462543592937,-1.2722921446785194,0.44713438086994584,1.017404584313128,-0.6007247321898626,-1.1397410275560502
237,11.9,-0.429,-8.85,2.21,0.184,-1.1,0.245,2.36,-0.278,-1.66,60.0,11900000000.0,-1.3048455931357474,-9.261527344480463,2.166835060745319,0.19141229786815678,-1.1605856332955127,0.3083554318684752,1.559070228239074,-0.48744479105142935,-1.402667664424917
238,11.9,-0.10300000000000001,-6.79,2.15,0.14800000000000002,-0.452,0.0862,2.57,1.73,-1.91,60.0,11900000000.0,-0.859698373428931,-8.386595293344524,2.1583884775973474,0.1598588299673671,-0.7011703703916077,0.1558306703553612,1.9669264789103806,0.29090279215773496,-1.659061482916723
239,12.0,-1.18,-8.08,3.41,-0.0412,0.014,-0.069,1.47,0.426,-0.7040000000000001,60.0,12000000000.0,-0.9783337089622697,-8.27805912356056,2.7863577831829245,0.013722735984069284,-0.2374858630487039,0.0014691782771916184,1.7664431437431007,0.3383234016808732,-1.1763958603703883
240,12.0,-4.3,-8.4,4.57,-0.0327,-0.13,0.0233,-1.69,0.11699999999999999,0.465,60.0,12000000000.0,-2.208633680727483,-8.321226619146614,3.681262132693396,-0.020018816472122246,-0.1677968299198854,0.016457516670888725,0.37195254996028715,0.2606364463889021,-0.3468729788351288
241,12.1,-3.0,-7.67,3.67,-0.298,-0.271,0.136,-0.38299999999999995,0.858,-0.41,60.0,12100000000.0,-2.501744974591445,-8.090689430322701,3.6756116372121252,-0.22206458266808093,-0.2347091518394112,0.09853153863148367,0.06736944255451366,0.4703176348047241,-0.3787758894510396
242,12.1,-1.52,-8.72,4.29,-0.575,-0.28,0.20600000000000002,1.12,-0.128,0.373,60.0,12100000000.0,-2.138120015669607,-8.313468358459039,3.9838678143254205,-0.4785895081348555,-0.26407371450306166,0.1723159212795926,0.49204976634121284,0.2603015443715442,0.0011539692879425356
243,12.2,-2.08,-8.55,4.8,-0.39899999999999997,-0.18899999999999997,0.3,1.15,-0.0753,0.517,60.0,12200000000.0,-2.116593126111571,-8.397201714045828,4.393344746552943,-0.42074125844783367,-0.21539927021805538,0.2599797033891176,0.7574976054699917,0.14250170093762826,0.26185043589981183
244,12.2,-1.35,-9.49,4.3,-0.892,0.111,0.133,1.39,-0.7829999999999999,0.7240000000000001,60.0,12200000000.0,-1.8326574940265181,-8.784057248106402,4.34651111580705,-0.7632674451493515,-0.0037765693263420164,0.17279953176890878,1.012678601796786,-0.18235960021099995,0.4954099492061258
245,12.3,-2.24,-14.3,3.08,-1.02,0.9690000000000001,-0.0885,0.55,-5.41,-0.0131,60.0,12300000000.0,-1.9835316073913138,-10.73672639782556,3.71106626327597,-0.9498689977151564,0.6269282729078116,-0.006600306928938315,0.8260124528067737,-2.017318979455585,0.2384209755516256
246,12.3,-1.19,-11.4,5.36,0.317,0.41600000000000004,0.0013,1.67,-2.38,2.6,60.0,12300000000.0,-1.6896183415269397,-10.971528165968541,4.538383500219589,-0.029067427057404727,0.4901718127436969,-0.0011762107706119887,1.166516423957708,-2.1446240576259354,1.431907447190394
247,12.4,0.637,-6.16,-4.31,-0.243,0.988,-0.38,3.51,2.81,-7.05,60.0,12400000000.0,-0.827870623772693,-9.26822503024608,0.09889670599103617,-0.18456057586345706,0.8129413455576319,-0.26126441386695837,2.1119871290066357,-0.40549639193738996,-2.8546492691218273
248,12.4,-3.48,-10.7,-0.5670000000000001,-0.39799999999999996,0.58,-0.42100000000000004,-0.718,-1.57,-2.95,60.0,12400000000.0,-1.810183188282486,-9.775079881613385,-0.23520268365608188,-0.33969528895301404,0.6619125764702812,-0.3709337225645423,0.9702381705652976,-0.8142500193833782,-2.902837310974879
249,12.5,-1.02,-9.12,1.13,-0.396,1.53,-0.28300000000000003,1.67,0.0912,-0.9159999999999999,60.0,12500000000.0,-1.5175101029399118,-9.54317855264789,0.4497585076633063,-0.3806193816704737,1.2247416483461233,-0.310561257012413,1.2525547522229603,-0.49642707638035244,-1.8987364475433455
250,12.5,-3.41,-9.2,-0.821,-0.75,2.06,-0.069,-0.6729999999999999,0.095,-2.33,60.0,12500000000.0,-2.2184625872705985,-9.421691700442786,-0.1878173343938212,-0.6490972224683135,1.7662857986055098,-0.14471308089270574,0.4756960558460901,-0.28882965049839127,-2.1166868696841847
251,12.6,-3.13,-9.98,0.28300000000000003,-0.488,1.37,-0.28,-0.355,-0.621,-0.6509999999999999,60.0,12600000000.0,-2.5560836579273105,-9.619335242092083,0.048405170895370886,-0.5320065284027002,1.5093517999686286,-0.2375967208499196,0.1405544799956131,-0.4054251036336105,-1.3759631946170638
252,12.6,-3.65,-9.76,0.486,-0.107,1.0,-0.171,-0.938,-0.35700000000000004,-0.0681,60.0,12600000000.0,-2.9612553900928704,-9.66913129382918,0.2679590005749047,-0.2230979685044211,1.1791108558972996,-0.1918735609631906,-0.2945847722273701,-0.3884273558638333,-0.71499988199192
253,12.7,-3.05,-8.61,0.45299999999999996,-0.133,0.94,-0.16899999999999998,-0.36200000000000004,0.8109999999999999,0.0606,60.0,12700000000.0,-2.994125165850585,-9.294193827131489,0.3607993616252455,-0.1576118371484338,1.02408206129709,-0.17616931092565621,-0.32178321860188963,0.032584870119726106,-0.32302993477052017
254,12.7,-3.79,-9.22,0.51,-0.363,0.462,-0.315,-1.18,0.23399999999999999,0.33399999999999996,60.0,12700000000.0,-3.2889063380192978,-9.267928965905186,0.4356575801556619,-0.3068946344143786,0.6596531803439014,-0.2714859866915381,-0.6680279234501152,0.10328380107257447,0.009017543596723077
255,12.8,-2.35,-9.15,0.5479999999999999,-0.38799999999999996,0.272,-0.278,0.161,0.33399999999999996,0.583,60.0,12800000000.0,-2.9411481976928684,-9.226181435000566,0.49202297109577325,-0.3658446589189305,0.4083161920868614,-0.2759582963556098,-0.333559346402145,0.18426772831252208,0.2990947852935679
256,12.8,-3.68,-8.61,0.46399999999999997,-0.326,0.28600000000000003,-0.0488,-1.24,0.8809999999999999,0.69,60.0,12800000000.0,-3.2148088552684104,-9.008050253865163,0.47796303911048965,-0.33688426923187487,0.3290118481279891,-0.1199987294383518,-0.6992598382288525,0.42882843332004067,0.49664908968484445
257,12.9,-1.56,-10.0,0.639,-0.38799999999999996,0.34,-0.19,0.885,-0.5329999999999999,1.04,60.0,12900000000.0,-2.601890198478574,-9.359205022414354,0.5587598829076007,-0.3740368522828682,0.3361360770579137,-0.16805934443021545,-0.0600954427013215,0.09121604847966364,0.7712458466681998
258,12.9,-2.22,-9.44,-0.168,-0.19,0.6679999999999999,-0.649,0.0161,0.0921,0.402,60.0,12900000000.0,-2.46044328688024,-9.387806667219618,0.1941236854063702,-0.24027288385462287,0.5513018025022881,-0.49825769305988776,-0.02935464275721742,0.09152632586881472,0.5846376815421117
259,13.0,-4.03,-9.24,0.105,-0.27399999999999997,0.326,-0.501,-2.08,0.342,0.795,60.0,13000000000.0,-3.0417857692031083,-9.335482346766165,0.14940778430226712,-0.26478684025962834,0.4052261857861732,-0.5001404637968804,-0.856680708659614,0.17944535048925891,0.6909498602496925
260,13.0,-4.61,-10.6,-0.32799999999999996,-0.217,-0.0709,-0.37799999999999995,-2.84,-0.9990000000000001,0.48200000000000004,60.0,13000000000.0,-3.622630986120969,-9.783127542032185,-0.09012134638544886,-0.23005380607449666,0.09652724468212598,-0.41628275118295965,-1.6568442917849118,-0.23420196841137997,0.5853515097752275
261,13.1,-5.72,-12.1,0.0814,0.0846,-0.293,-0.0146,-4.05,-2.47,0.958,60.0,13100000000.0,-4.399467792160683,-10.603311174177607,-0.004064186322970703,-0.0013531902755191394,-0.15602482091622344,-0.14050031838484944,-2.6223551353049883,-1.0189917448033703,0.7736792981904342
262,13.1,-5.49,-11.4,0.95,1.01,-0.932,0.868,-3.66,-1.83,1.58,60.0,13100000000.0,-4.803385967053567,-10.885342544589841,0.47461707002059517,0.733731177379484,-0.6591324364993101,0.5519034820755679,-3.040989563549301,-1.3036646015598243,1.1811748465206309
263,13.2,0.429,-9.61,1.5,1.85,-1.69,1.22,2.8,-0.0913,1.33,60.0,13200000000.0,-2.8653815554640487,-10.433865301543166,0.9890809837960141,1.545071661358953,-1.3275009321058528,1.0105970420121568,-0.6844616344955465,-0.8781112571116417,1.2563876019991014
264,13.2,-0.919,-11.5,-1.05,2.17,-1.42,1.03,1.93,-2.17,-2.43,60.0,13200000000.0,-2.1444683784489396,-10.811281884124742,-0.03398418359296118,1.9992899477804846,-1.3874731661031778,1.0239184680778641,0.37033425595906255,-1.3315784801036954,-0.606626061316756
265,13.3,-2.57,-13.6,-0.0192,1.55,-1.55,0.782,0.546,-4.59,-2.49,60.0,13300000000.0,-2.30207946394501,-11.798501047494451,-0.026566536720103645,1.6727313740799823,-1.4928482709309236,0.8578250471394264,0.44120602175756224,-2.4753204223040814,-1.5584389779031265
266,13.3,-3.34,-11.4,1.2,1.09,-1.36,0.67,-0.11800000000000001,-2.72,-2.1,60.0,13300000000.0,-2.686511045987544,-11.657429710363006,0.5888369648100134,1.2491832929048976,-1.406715398348478,0.7288704337542236,0.21559619888888132,-2.5612056625406723,-1.8321311385421453
267,13.4,-1.73,-7.49,1.32,0.38799999999999996,-1.84,0.753,1.51,0.904,-2.59,60.0,13400000000.0,-2.3322324042686775,-10.18214036081407,0.9556823770737188,0.6232472895937193,-1.6876377921296761,0.7454370307860204,0.737819133553071,-1.3448802648585,-2.2151402007632703
268,13.4,-0.41200000000000003,-6.24,0.9359999999999999,-0.107,-1.65,0.336,2.71,2.03,-3.31,60.0,13400000000.0,-1.6210045055221933,-8.786604476302768,0.9458071608567943,0.09247982092342877,-1.6632351142948518,0.4643307561418914,1.5334890059605217,-0.16026008242598322,-2.7684565749684134
269,13.5,-0.716,-7.76,2.06,-0.46299999999999997,-1.08,0.0862,2.17,0.539,-2.3,60.0,13500000000.0,-1.2858031845963485,-8.423181855046598,1.5048295148760982,-0.3112609694697191,-1.2850915588980898,0.2047183631714199,1.7902872950720423,0.08518790935044218,-2.531709610977467
270,13.5,0.0718,-8.31,2.35,-0.43799999999999994,-0.275,0.0306,2.82,0.0774,-1.92,60.0,13500000000.0,-0.7829654764668147,-8.383115106789123,1.9288756480899045,-0.40337901206542764,-0.6301933371559829,0.08517430597129773,2.2057214580949176,0.08245426689534051,-2.2225659327790743
271,13.6,-1.79,-8.07,3.54,-0.358,0.174,-0.11,0.9470000000000001,0.40700000000000003,-0.564,60.0,13600000000.0,-1.1559573182835434,-8.272270812059322,2.7372227502344275,-0.3703960784195647,-0.10879032014264467,-0.048826082752580005,1.6978944537976353,0.1963734002744587,-1.3843657074141982
272,13.6,-3.51,-8.19,4.19,-0.332,0.154,-0.237,-0.8140000000000001,0.382,0.262,60.0,13600000000.0,-2.0278626251556755,-8.243146417975831,3.466122634701159,-0.3424885513047322,0.061591178747679,-0.17802023294369995,0.6844789282515125,0.26153038369036313,-0.5523311865993935
273,13.7,-3.41,-7.69,5.26,-0.355,-0.379,-0.061,-0.799,0.9640000000000001,1.46,60.0,13700000000.0,-2.5397874942462884,-8.047330064333176,4.3661622793583605,-0.3515822711260226,-0.22406845670487924,-0.09767791236510259,0.08597424415249855,0.5081049614403331,0.46465370584531074
274,13.7,-4.52,-8.29,5.51,-0.12300000000000001,-0.508,0.41,-1.95,0.39899999999999997,1.75,60.0,13700000000.0,-3.2732311978271804,-8.133236323223286,4.940058461000976,-0.18544124845414786,-0.40815699093447155,0.2508773802664348,-0.7354328596465024,0.469807912872633,1.1142375052915785
275,13.8,-2.23,-7.52,5.02,-0.308,0.12300000000000001,0.5589999999999999,0.544,1.12,1.28,60.0,13800000000.0,-2.886832594352598,-7.916147839976772,4.980167405680671,-0.2745209318621291,-0.06377853331623629,0.4624244524295336,-0.21924988609643603,0.6980325077026843,1.198009958694465
276,13.8,0.0407,-9.05,0.74,-0.9359999999999999,-0.0312,-0.389,2.94,-0.37200000000000005,-2.8,60.0,13800000000.0,-1.8025144402974804,-8.317536782663485,2.8527542706415043,-0.7553054135529008,-0.04265606770604888,-0.12213613910697035,1.0553390694333855,0.32243929366238006,-0.8224902598292503
277,13.9,-4.96,-22.4,6.84,-0.885,-0.247,-0.6809999999999999,-2.36,-13.5,3.82,60.0,13900000000.0,-2.9720040513707353,-13.302793341274675,4.853269455395225,-0.8495716480119556,-0.17514353729465398,-0.5058340530954618,-0.32256815591555776,-4.5293893377214305,1.5237151419539718
278,13.9,-0.158,-3.74,-0.8240000000000001,0.16699999999999998,1.03,0.317,2.35,5.27,-3.77,60.0,13900000000.0,-1.9297353242122406,-9.917520556867176,2.0048211550811526,-0.11069433182616151,0.6062176556448637,0.0590972936905908,0.7556706013826358,-1.089695615348401,-1.151604029498067
279,14.0,0.192,-5.74,-1.13,-1.03,1.58,-0.6559999999999999,2.93,3.35,-3.58,60.0,14000000000.0,-1.1438734907472967,-8.438659001284169,0.4319918141360417,-0.7788755543805392,1.2375746370318788,-0.43186547711963236,1.6328966429980127,0.4686864748769135,-2.378858224490517
280,14.0,-8.06,-14.3,0.8740000000000001,-0.47700000000000004,0.177,-0.2,-5.48,-5.02,-1.19,60.0,14000000000.0,-3.705512599310632,-10.51360071762554,0.6537599567444142,-0.5594625870506819,0.5499454403572492,-0.2726741142679031,-1.2367780234460284,-1.4579030025075588,-1.7780372560013276
281,14.1,1.57,-8.27,-0.0359,-0.595,0.863,-0.145,4.18,1.03,-1.77,60.0,14100000000.0,-1.751534648144659,-9.719355915367576,0.30773785086010247,-0.5852923547860187,0.7529160105949413,-0.1850171787503122,0.9486031107843926,-0.5846216210950526,-1.773975406129402
282,14.1,-2.91,-10.4,-0.491,-0.418,1.1,0.0111,-0.325,-1.01,-1.82,60.0,14100000000.0,-2.1806144498336932,-9.960306914125201,-0.09301174921867011,-0.46369884236644554,0.9779497735340082,-0.050369443708062706,0.4347721468956657,-0.7339341199836024,-1.7972351803726712
283,14.2,-2.28,-8.89,-0.18,-0.40299999999999997,0.8420000000000001,0.157,0.385,0.494,-1.13,60.0,14200000000.0,-2.2174254918318237,-9.581413469561808,-0.13665624370042645,-0.4195809485275896,0.8898060209422219,0.0920037376170558,0.41469173476624543,-0.30291570599598694,-1.4600302040489983
284,14.2,-2.56,-8.83,-0.6679999999999999,-0.42200000000000004,0.502,-0.0354,0.16699999999999998,0.5670000000000001,-1.31,60.0,14200000000.0,-2.3443103972373613,-9.315409621274277,-0.4032465794690774,-0.42133918718841773,0.6383699113931143,0.004532437224045671,0.3147613206985436,0.002434290706735731,-1.38420843711309
285,14.3,-2.74,-9.6,-0.0455,-0.5379999999999999,0.198,-0.22,-0.0588,-0.17600000000000002,-0.381,60.0,14300000000.0,-2.4908684341477767,-9.416156058195172,-0.22375489835397833,-0.5061320492029255,0.3528537403648844,-0.14962429796480706,0.16404923934784588,-0.06019811284026183,-0.8772104838910528
286,14.3,-2.88,-9.48,-0.091,-0.597,0.349,-0.344,-0.319,-0.0121,-0.114,60.0,14300000000.0,-2.6349975024647496,-9.438756944932834,-0.15714797177678733,-0.5721778317514845,0.35035515181949817,-0.28307639939063434,-0.03083538320173637,-0.043315144765370725,-0.4915018479234204
287,14.4,-2.55,-9.39,-0.132,-0.5579999999999999,0.33,-0.42,-0.165,0.11699999999999999,0.16899999999999998,60.0,14400000000.0,-2.6035155688866487,-9.421496883906208,-0.14453051543583487,-0.561872943206289,0.3371577895572197,-0.37708372230489595,-0.08496365738673999,0.012957238605593738,-0.15769974205383447
288,14.4,-2.4,-9.52,-0.0311,-0.457,0.391,-0.337,-0.185,0.0182,0.545,60.0,14400000000.0,-2.528136212561007,-9.456367601716225,-0.08761918450320841,-0.48564786981178737,0.3720666742901242,-0.34956353875038776,-0.12532299038444755,0.014797505936838993,0.19742819602026623
289,14.5,-2.6,-9.89,0.182,-0.251,0.5579999999999999,-0.43200000000000005,-0.565,-0.332,0.9590000000000001,60.0,14500000000.0,-2.5547535441961218,-9.609875584965907,0.047656462215474704,-0.31509816101459664,0.49261755152533016,-0.40616176428419937,-0.3027092268242064,-0.10693223883112873,0.5823086773774129
290,14.5,-3.05,-9.8,-0.012,-0.10400000000000001,0.55,-0.263,-1.19,-0.21100000000000002,0.873,60.0,14500000000.0,-2.7381860607568775,-9.677180569108954,0.01772511053240376,-0.16166515701506773,0.5298217744128223,-0.3078715180651462,-0.6606837818790634,-0.14346116911162507,0.7292172508880961
291,14.6,-4.65,-11.4,0.433,0.00519,0.309,-0.125,-2.91,-1.79,1.37,60.0,14600000000.0,-3.4462959103485535,-10.2870664296669,0.22608038720337473,-0.04038940500800457,0.3866507950210578,-0.1823178266602195,-1.5681630158582172,-0.7214144440426077,1.053053790331293
292,14.6,-5.68,-12.9,0.359,0.43,0.0702,0.262,-3.93,-3.25,1.26,60.0,14600000000.0,-4.27362938356604,-11.212056786028258,0.2927699534798518,0.3015049106227349,0.18147824416357844,0.12273647154843931,-2.5210383735693527,-1.608975860421745,1.1576395347131962
293,14.7,-4.21,-11.3,1.67,1.29,-0.586,0.809,-2.21,-1.75,2.21,60.0,14700000000.0,-4.250061941650336,-11.243189155430546,0.9837655972611393,1.0199752467054584,-0.3161203669895924,0.593902906327889,-2.3955509844140908,-1.658476888683505,1.689477792867018
294,14.7,0.309,-9.04,1.16,2.2,-1.24,0.961,2.76,0.451,0.797,60.0,14700000000.0,-2.561447569625204,-10.463250056342728,1.0721874158344629,1.8776556309315602,-0.9151226388611056,0.8459399587636527,-0.31556097091406254,-0.918027234855628,1.2384404933208972
295,14.8,-1.39,-8.88,-0.285,2.29,-1.17,0.715,1.37,0.39,-1.92,60.0,14800000000.0,-2.1275593579872942,-9.902772301224195,0.39124771279971227,2.1773608946556697,-1.0803737014816714,0.7560407845133166,0.36447303779792284,-0.4588952550026819,-0.35776105752148246
296,14.8,-4.12,-12.6,0.297,1.46,-1.23,0.603,-1.21,-3.58,-2.35,60.0,14800000000.0,-2.865532161177129,-10.857603436504565,0.3439609378450227,1.6559597050119605,-1.177384718979756,0.6509679033430713,-0.27074292465659733,-1.554437414489961,-1.3645917346674854
297,14.9,-4.16,-10.7,1.6,0.9309999999999999,-1.76,0.634,-1.22,-1.97,-1.83,60.0,14900000000.0,-3.344985341249561,-10.801811028208256,0.9741516355288731,1.1290354211025728,-1.5551264238229219,0.6393182899774459,-0.6537175681212536,-1.7003044750344678,-1.5997981522223175
298,14.9,-1.41,-7.47,2.5,0.14,-1.72,0.684,1.48,1.03,-1.43,60.0,14900000000.0,-2.628293143271658,-9.622334538906063,1.7397133573623003,0.41017232706418616,-1.6620231009344137,0.6699953227202647,0.20712374537192135,-0.7419375034660407,-1.5139861314204892
299,15.0,-1.06,-7.47,1.38,-0.15,-1.6,0.5529999999999999,1.76,0.9490000000000001,-2.79,60.0,15000000000.0,-2.047418726507404,-8.860398146996895,1.5592348856534168,0.0030208659905585633,-1.621810109570653,0.5896700858944168,0.8336265377467446,-0.14839979108947932,-2.158853523101474
300,15.0,0.10099999999999999,-7.79,2.24,-0.264,-0.9840000000000001,0.29600000000000004,2.83,0.61,-2.01,60.0,15000000000.0,-1.2516737239935014,-8.481472270535631,1.9007941995010331,-0.19105857837568474,-1.2082825560016512,0.38804567083836894,1.6390567868602042,0.11780690453598225,-2.0836264471517025
301,15.1,0.0599,-7.16,2.27,-0.21899999999999997,-0.428,-0.0256,2.69,1.27,-2.0,60.0,15100000000.0,-0.765884700531176,-8.013664960040083,2.0860352891927443,-0.21136730956008476,-0.7023822196748074,0.10404988310872187,2.063056378321211,0.5222393811884146,-2.04136360676228
302,15.1,-1.19,-8.59,3.86,-0.369,0.0874,-0.154,1.37,-0.0912,-0.306,60.0,15100000000.0,-0.922971245560094,-8.217690266699488,2.976084018666228,-0.3259398642743461,-0.19032272601815936,-0.07311885059533055,1.7834450733788239,0.30691539260022815,-1.1643516342341165
303,15.2,-4.24,-8.96,4.95,-0.239,-0.0165,-0.0922,-1.75,-0.377,0.919,60.0,15200000000.0,-2.151553381584998,-8.480471337010899,3.9664539706167754,-0.2627491394076614,-0.0776238385805371,-0.08621935534790769,0.3578883284852916,0.0668535458863612,-0.11147468153505424
304,15.2,-2.7,-7.03,4.81,-0.415,-0.22899999999999998,0.0612,-0.21899999999999997,1.61,0.8959999999999999,60.0,15200000000.0,-2.3546905482808844,-7.966997892469221,4.389685087110068,-0.3734100080150788,-0.1757693780068363,0.01499402379227939,0.12514463895404507,0.6085149747287917,0.3976793514433524
305,15.3,-3.42,-9.42,5.72,-0.24,-0.40299999999999997,0.14400000000000002,-0.961,-0.7290000000000001,1.9,60.0,15300000000.0,-2.7492666712684812,-8.481367342686395,5.057141984129098,-0.2764432735531609,-0.32309555647274646,0.10356536567895161,-0.3130568386021011,0.13903247766445076,1.1569168766353595
306,15.3,-0.594,-8.07,3.93,-0.239,-0.0348,0.331,1.92,0.608,0.113,60.0,15300000000.0,-1.9509852779824541,-8.335741304939488,4.49162267886514,-0.2492282798002924,-0.13617760195568204,0.2597146568556074,0.5878625504681092,0.30364524310051805,0.6293458279674672
307,15.4,1.41,-13.8,1.25,-0.8029999999999999,0.371,-0.49200000000000005,3.95,-5.02,-2.36,60.0,15400000000.0,-0.7061221726014522,-10.270114061030215,2.8652079594533255,-0.6517275480005451,0.19265368403365477,-0.2563884124263139,1.9443058195386496,-1.5650129417906882,-0.8813992229784752
308,15.4,-4.63,-13.7,6.01,-0.22899999999999998,0.20600000000000002,-0.204,-2.27,-4.72,2.79,60.0,15400000000.0,-2.1594730576304144,-11.484309377642441,4.443040095759095,-0.34447542613741877,0.2013068390114268,-0.220420214012969,0.24405806299089838,-2.6724481200178527,0.9740396129308783
309,15.5,0.321,-3.84,-1.03,-0.43,1.67,-0.0372,2.79,5.13,-4.13,60.0,15500000000.0,-1.2407396563273099,-8.778188698823879,1.6970595153610568,-0.40663747175292614,1.153541820596728,-0.09462711930085668,1.2712099135669679,0.06629725875145409,-1.6054220727709585
310,15.5,-2.55,-9.77,-0.532,-1.03,1.58,-0.431,0.09,-0.657,-3.0,60.0,15500000000.0,-1.7256718173457641,-9.129294619271917,0.5786766639589065,-0.8597176000328087,1.430038273449461,-0.32556989589451646,0.7946546765806143,-0.18758805771867226,-2.310208971611403
311,15.6,-4.87,-11.2,1.56,-0.521,0.718,-0.05,-2.24,-1.94,-0.43700000000000006,60.0,15600000000.0,-2.890288058853256,-9.862333772272354,1.0710345918513968,-0.6135266577924766,0.9683844746692574,-0.1363724859197296,-0.42966673393464727,-0.8027039958340012,-1.3635331984845669
312,15.6,0.429,-8.41,-0.0575,-0.285,1.07,-0.17,3.1,0.873,-1.72,60.0,15600000000.0,-1.6608690261266084,-9.34820088879953,0.5048165414854682,-0.374742800946688,1.0342674740842437,-0.15946005469330168,0.9943656139132341,-0.2145134039339065,-1.5436831541366955
313,15.7,-4.38,-10.3,-0.6509999999999999,-0.21600000000000003,1.9,-0.147,-1.72,-0.986,-2.0,60.0,15700000000.0,-2.6679981041169363,-9.685142215594277,-0.07508965348704866,-0.25936337706443646,1.5955697386796115,-0.15090538257502698,-0.10073623978741886,-0.48531370791347506,-1.7742949603364877
314,15.7,-2.41,-8.82,-0.359,-0.303,1.56,0.0599,0.344,0.544,-1.3,60.0,15700000000.0,-2.5724391561145272,-9.378877787555624,-0.21753558505925327,-0.29107989535541384,1.5725078726389157,-0.006173199470913104,0.0786911320311475,-0.12401323438133877,-1.5345974136369962
315,15.8,-2.43,-9.1,-0.263,-0.294,1.02,-0.13699999999999998,0.35700000000000004,0.28300000000000003,-0.845,60.0,15800000000.0,-2.5196816596662197,-9.280153904244724,-0.24034638681111026,-0.2932023221611775,1.2142864473348307,-0.095994661152998,0.1909739229450811,0.01885289691087283,-1.1860911072112295
316,15.8,-3.04,-9.75,0.124,-0.37200000000000005,0.9440000000000001,-0.266,-0.33799999999999997,-0.326,-0.146,60.0,15800000000.0,-2.712400463917675,-9.446481581278332,-0.05754339525950489,-0.35047504228952997,1.0390447977453254,-0.21271485031039467,-0.022438859024757007,-0.10219427483594476,-0.66045351237868
317,15.9,-3.22,-8.89,0.35700000000000004,-0.546,0.53,-0.321,-0.626,0.573,0.41,60.0,15900000000.0,-2.900408421229519,-9.24948466578167,0.1504448673545624,-0.49258894022428124,0.7090028816460046,-0.2870599513902104,-0.26594360276672113,0.13480636679392438,-0.11947147466583885
318,15.9,-2.87,-9.51,0.8809999999999999,-0.452,0.718,-0.409,-0.436,-0.0153,1.24,60.0,15900000000.0,-2.889145514257355,-9.341708372295393,0.5169852423736464,-0.46308757333258466,0.7148362077030544,-0.37078006572228595,-0.33455229035039213,0.08211737658674634,0.5675734531976958
319,16.0,-3.03,-9.51,0.192,-0.268,0.575,-0.373,-0.7809999999999999,0.0129,0.753,60.0,16000000000.0,-2.941316084537047,-9.40128446289736,0.3539308614551411,-0.3212915882064401,0.6241726522059811,-0.3723041982788953,-0.5146701516294699,0.05782131420206488,0.6612836813024625
320,16.0,-2.52,-9.18,-0.285,-0.128,0.799,-0.34,-0.425,0.377,0.405,60.0,16000000000.0,-2.7852663446788615,-9.322948854172116,0.033360994173609826,-0.18080098301854908,0.7375229075246809,-0.35012517917471686,-0.47849302991895193,0.1698565543681721,0.5317639344301612
321,16.1,-2.15,-9.87,-0.251,-0.187,0.759,-0.371,-0.226,-0.29100000000000004,0.5589999999999999,60.0,16100000000.0,-2.5499723882024834,-9.516607433207808,-0.1093110350623791,-0.1853066347499488,0.7514476966344701,-0.3644571529123098,-0.3766255493234828,0.008090818264474692,0.5455284093791639
322,16.1,-4.69,-10.0,-0.512,-0.129,0.552,-0.374,-2.94,-0.391,0.413,60.0,16100000000.0,-3.342609456137301,-9.687730623240096,-0.31135160682344104,-0.14438113732425323,0.6221347145263483,-0.37100897305085867,-1.4108105284397263,-0.1319944611977549,0.4785516606664041
323,16.2,-5.23,-11.9,-0.6559999999999999,-0.10400000000000001,0.088,-0.0427,-3.6,-2.29,0.36700000000000005,60.0,16200000000.0,-4.0416731848507155,-10.470884013859623,-0.4842715622546989,-0.11503081561350795,0.2758256358997754,-0.14560261174017558,-2.29403175199669,-0.8894781912629431,0.42217608073747437
324,16.2,-5.95,-13.8,0.35,0.4,-0.7120000000000001,0.379,-4.25,-4.17,1.34,60.0,16200000000.0,-4.74849134525885,-11.649406439132857,-0.06569368519635721,0.2593103275299645,-0.3646363683411932,0.21457264211727772,-3.0831606816484465,-2.0409775517971123,0.8860227289837426
325,16.3,-0.627,-10.1,1.49,1.6,-1.05,1.01,1.46,-0.568,1.97,60.0,16300000000.0,-3.2219471406535045,-11.100909574561399,0.7148422915866851,1.2337671803922863,-0.808995487162377,0.7606874274371704,-1.2502374940108953,-1.5239461930669747,1.4338393726439276
326,16.3,-0.156,-8.65,0.163,2.34,-0.789,0.894,2.4,0.8009999999999999,-0.408,60.0,16300000000.0,-2.0863621271313746,-10.233276187186116,0.4379672476123547,2.0378130914297543,-0.7960312905029221,0.8522155396043972,0.22243880573027153,-0.7078644392122777,0.5030170579597157
327,16.4,-2.41,-10.6,-0.728,1.71,-1.22,0.64,0.397,-1.34,-2.4,60.0,16400000000.0,-2.2062332140194942,-10.363098237211164,-0.14703182775539325,1.7995479081379937,-1.0709136730485629,0.7065151787784504,0.29286494899629245,-0.9297510042051308,-0.9640995633676959
328,16.4,-3.95,-12.1,0.429,1.4,-1.5,0.43700000000000006,-1.03,-3.14,-2.13,60.0,16400000000.0,-2.852100671813555,-10.977969578059113,0.1419797940230499,1.5091434831351183,-1.3491140714947234,0.5214747463749115,-0.24084053408798278,-1.7055728140486948,-1.5533182923489888
329,16.5,-2.98,-8.77,1.77,0.6940000000000001,-1.13,0.588,-0.0457,-0.0017699999999999999,-1.49,60.0,16500000000.0,-2.8994728460478303,-10.196338362947419,0.9588040384802574,0.9166707060142869,-1.2070502966952656,0.5671488414597168,-0.16211172959390324,-1.1075192360993462,-1.5213187207855594
330,16.5,-1.01,-8.04,1.19,0.191,-1.48,0.634,1.99,0.565,-2.42,60.0,16500000000.0,-2.1996378645308674,-9.432984659697308,1.0748016869419577,0.3892296473630472,-1.3840186985105583,0.6130466949762996,0.7061506437471765,-0.520446539864032,-1.9754911504704142
331,16.6,-1.9,-8.5,0.8759999999999999,-0.171,-1.31,0.47100000000000003,1.05,0.0264,-2.96,60.0,16600000000.0,-2.0886560764351443,-9.10270380271585,0.9750571938725361,-0.017963474407480917,-1.3360282452067676,0.5155220018968867,0.8448755116532005,-0.3284973735828012,-2.4730387971659997
332,16.6,-1.07,-8.28,2.0,-0.267,-0.7240000000000001,0.461,1.88,0.231,-1.88,60.0,16600000000.0,-1.7113597751893834,-8.81146278136234,1.4893002849359755,-0.1989713091466445,-0.9392164678331218,0.47808894921530815,1.2624930658320195,-0.13210762292181324,-2.1733309286083378
333,16.7,-1.02,-8.46,2.59,-0.132,-0.414,0.21600000000000003,1.97,0.0318,-1.29,60.0,16700000000.0,-1.4552895345349683,-8.687043355148102,2.0415527387172263,-0.1502943841134915,-0.5986895850504835,0.2981471261521838,1.547934413271208,-0.07457423898562804,-1.72691622452206
334,16.7,-2.8,-7.85,4.02,-0.18100000000000002,-0.375,0.0373,0.18,0.649,0.14,60.0,16700000000.0,-1.9533519372798334,-8.390726127106346,3.034196249415827,-0.17261221972331986,-0.45365925483363667,0.11905789619697407,0.9960457950197755,0.17940829491058713,-0.7834206542814733
335,16.8,-3.32,-7.65,3.89,-0.27,-0.39399999999999996,0.0923,-0.4,0.878,0.0366,60.0,16800000000.0,-2.4595397198500315,-8.128505707929705,3.4635774962125447,-0.24339683199527962,-0.41497885616381625,0.10068678541547448,0.43281572735535323,0.42462169510613246,-0.3690014931525885
336,16.8,-2.93,-7.44,3.1,-0.465,-0.434,0.152,-0.0409,1.14,-0.6709999999999999,60.0,16800000000.0,-2.633791817311564,-7.884771543611715,3.2811602301780574,-0.4044652207187604,-0.42731130633930314,0.13591678166339416,0.24169668192779956,0.6757273645765225,-0.5216244406610813
337,16.9,-5.3,-9.89,6.19,-0.42700000000000005,-0.623,0.405,-2.39,-1.25,2.57,60.0,16900000000.0,-3.6213190433419076,-8.594631753561291,4.740608284375823,-0.42084422078394434,-0.5541871266387821,0.3206606491852628,-0.820052694975771,-0.00022417807019292635,1.040809835917989
338,16.9,-1.55,-6.63,3.75,-0.47700000000000004,-0.265,0.583,1.49,1.98,0.2,60.0,16900000000.0,-2.8541306958092987,-7.899143125021477,4.243591803900012,-0.4616600651786713,-0.36669110827881357,0.5007743967107062,0.1119304392146675,0.6948563538201428,0.6158843132200893
339,17.0,-0.235,-13.7,0.737,-1.51,0.8390000000000001,-0.5770000000000001,2.93,-4.99,-2.42,60.0,17000000000.0,-1.8840403994116532,-9.952673048568354,2.4842344978728743,-1.223627601091684,0.4150251151088993,-0.2391907886523843,1.248871323166584,-1.3005908408670992,-0.9183802856575776
340,17.0,-5.83,-14.2,8.13,0.22899999999999998,-0.11199999999999999,-0.242,-2.89,-5.22,5.54,60.0,17000000000.0,-3.3455700014851817,-11.456246240070065,5.316876421623863,-0.16781063872845436,0.07332558108300752,-0.24111950173861396,-0.42094268497685916,-2.6763466068666513,2.345533259295448
341,17.1,1.9,-3.51,-3.09,-0.298,1.47,-0.23800000000000002,4.86,5.45,-5.79,60.0,17100000000.0,-1.402682408525192,-8.643238551436344,1.098906358064311,-0.26243650426367915,0.9788668752142933,-0.23897775613338587,1.7096362536957124,0.1760906057466891,-1.7659739698053762
342,17.1,-4.41,-8.88,-0.769,-0.688,0.892,-0.39,-1.48,0.214,-2.96,60.0,17100000000.0,-2.5165517811592473,-8.727053232756818,0.16172437048631016,-0.571749903670931,0.9225462880979934,-0.342664752371333,0.42278803390573727,0.18939722175331122,-2.3694066740022723
343,17.2,-5.59,-11.9,0.599,-0.6579999999999999,0.311,-0.0842,-2.69,-2.71,-1.19,60.0,17200000000.0,-3.6549151494684713,-9.850290834315537,0.3811180364093394,-0.6344392718555198,0.52604699821308,-0.1652111837743836,-0.8330560408079914,-0.8283231921673989,-1.773362296930301
344,17.2,0.6920000000000001,-8.77,0.596,-0.6809999999999999,0.385,-0.146,3.57,0.5,-0.8240000000000001,60.0,17200000000.0,-2.044877061541479,-9.467863076637151,0.48893046516337624,-0.6682811184540085,0.4345984218055626,-0.1520214025877801,0.9433423498848987,-0.36206710244495177,-1.29357691140733
345,17.3,-3.65,-10.1,0.0503,-0.419,0.8809999999999999,-0.0573,-0.8340000000000001,-0.733,-0.991,60.0,17300000000.0,-2.639392746373849,-9.691642587479043,0.2688570271837185,-0.48709549804739743,0.7240252438969134,-0.08698874084713547,0.22627945234143787,-0.4922686334185831,-1.1406616520731356
346,17.3,-2.45,-8.75,0.0359,-0.36200000000000004,0.644,0.0795,0.4,0.604,-0.6709999999999999,60.0,17300000000.0,-2.5692442732716776,-9.358296784276106,0.1519758307116379,-0.39617201528951485,0.6721404480783696,0.027317061719347627,0.2963664359495997,-0.1074662627138589,-0.9033056964700952
347,17.4,-2.64,-9.37,-0.457,-0.305,0.371,-0.136,0.225,0.0019100000000000002,-0.924,60.0,17400000000.0,-2.5954512685065607,-9.362439735910849,-0.15356473720865876,-0.32990523606187067,0.4768944343122485,-0.08481117516076578,0.2675738806639845,-0.069073988259651,-0.9137641234961493
348,17.4,-2.95,-9.33,-0.426,-0.486,0.268,-0.26,-0.179,0.0745,-0.652,60.0,17400000000.0,-2.7267713018105266,-9.35095589331606,-0.29025329224268126,-0.4433599856790576,0.3414566229642256,-0.20509017041823357,0.08740512134817405,-0.018677934299562417,-0.7814746944388097
349,17.5,-2.32,-9.59,-0.10800000000000001,-0.532,0.32899999999999996,-0.34,0.312,-0.146,-0.0228,60.0,17500000000.0,-2.5761087334852713,-9.435578659605072,-0.19881160948882498,-0.5077864333064973,0.33338030284978004,-0.29771491449555454,0.1780171859645433,-0.06336938276514956,-0.39805833999117674
350,17.5,-2.23,-9.38,0.00718,-0.38799999999999996,0.562,-0.337,0.24,0.106,0.366,60.0,17500000000.0,-2.447914785084625,-9.415903599210665,-0.09545973320760318,-0.4207217680190845,0.481607082275618,-0.3246867967821635,0.20302394541133756,-0.003918861981635671,-0.011921219139816697
351,17.6,-2.97,-9.07,-0.529,-0.379,0.657,-0.42200000000000004,-0.688,0.446,0.0614,60.0,17600000000.0,-2.641288040314576,-9.293452027487017,-0.31297926451316505,-0.3903970366719303,0.5953240151861819,-0.39149890004572346,-0.15645673199348192,0.15400762388764272,0.025133601284331487
352,17.6,-3.11,-9.67,-0.575,-0.32,0.659,-0.43200000000000005,-1.03,-0.124,0.244,60.0,17600000000.0,-2.814892520134495,-9.426751767157976,-0.4444425481263325,-0.3392301768349896,0.6366086647537744,-0.419305657849973,-0.508884866863775,0.056423882636778,0.13574353518030402
353,17.7,-2.53,-10.4,0.414,-0.0889,0.64,-0.35100000000000003,-1.21,-0.1,0.4,60.0,17700000000.0,-2.7093722047746853,-9.771285979018323,-0.013737391566154278,-0.15728206676482673,0.638807445693216,-0.37240920179894604,-0.791747467134565,0.0015173742039932755,0.26929254302221695
354,17.7,-4.34,-10.7,0.402,-0.0107,0.531,-0.28600000000000003,-2.62,-1.13,1.44,60.0,17700000000.0,-3.3133345619718395,-10.100054942748088,0.1948499414839767,-0.05074145604773041,0.5689099275889604,-0.313083437482693,-1.5293498671517114,-0.39565770128742067,0.8609405981584524
355,17.8,-5.42,-11.5,0.39299999999999996,0.272,0.247,0.0868,-3.79,-1.87,1.44,60.0,17800000000.0,-4.093614742721989,-10.595641926339146,0.29426749084326465,0.18383753625600802,0.36019791281407154,-0.038536354181139654,-2.4414016815765502,-0.9131681094372339,1.1535836354732898
356,17.8,-5.18,-11.5,1.05,0.8540000000000001,-0.688,0.718,-3.4,-1.86,1.86,60.0,17800000000.0,-4.495996964867011,-10.915788840312752,0.6734400599676109,0.6709333796661363,-0.31940678484032425,0.48087712417733264,-2.828145045643363,-1.2455165500812782,1.5105898659649972
357,17.9,-0.33,-10.1,1.1,1.84,-1.31,1.15,1.93,-0.58,1.18,60.0,17900000000.0,-2.952968500015918,-10.6269959769985,0.887457381749098,1.5206490262447414,-0.9616631186524254,0.9402753123613173,-0.9084871629359839,-1.0119128955658092,1.3435174931417422
358,17.9,-0.235,-10.8,-0.68,2.36,-0.9790000000000001,0.8809999999999999,2.51,-1.48,-1.74,60.0,17900000000.0,-1.946270028657899,-10.68824026368676,0.10101922348295522,2.1307165223684725,-0.9729035597984101,0.8995787808837754,0.47069018881500324,-1.1762166381662873,-0.2148197613070575
359,18.0,-3.21,-12.0,-0.622,1.59,-0.794,0.6629999999999999,-0.179,-2.91,-2.76,60.0,18000000000.0,-2.4143383923918655,-11.152609238417675,-0.2617401689144724,1.7377062011872937,-0.8569105060269779,0.7371514049922543,0.2085748258108907,-1.7847937491436823,-1.5010940136618347
360,18.0,-3.46,-10.6,1.35,1.11,-1.05,0.64,-0.26899999999999996,-1.77,-1.56,60.0,18000000000.0,-2.8016372077027727,-10.9569831635929,0.5469159373181757,1.2814689398179642,-0.9821010737970695,0.6704503711348813,0.01589884213182613,-1.7796009733479496,-1.5308636853994864
361,18.1,-1.38,-7.19,1.85,0.575,-1.48,0.5379999999999999,1.9,1.37,-1.63,60.0,18100000000.0,-2.2750821691516845,-9.62345383309885,1.200710455961962,0.7679843406223328,-1.3049164987162118,0.5795142059164242,0.7760332220061417,-0.6740562949881943,-1.580964845761252
362,18.1,-0.948,-7.08,1.4,0.0516,-1.2,0.162,2.23,1.36,-2.46,60.0,18100000000.0,-1.7835490344484022,-8.723059460955971,1.3006997024541105,0.2472929157419611,-1.2368933606027923,0.2928624065462194,1.3626313242453785,0.03991990194841066,-2.0252085664718806
363,18.2,-1.05,-8.46,2.07,-0.32899999999999996,-0.584,-0.0354,1.97,-0.009890000000000001,-1.88,60.0,18200000000.0,-1.5118524568456035,-8.62993521641524,1.6866796091098908,-0.1715755061071335,-0.8135864779509017,0.06748801658760134,1.6076722220558004,0.022436076923393614,-1.9518235683220706
364,18.2,-0.946,-7.89,1.89,-0.305,-0.425,-0.14,1.94,0.638,-2.01,60.0,18200000000.0,-1.3022684151785635,-8.367994702232588,1.7886912514241522,-0.2685527706755954,-0.5616443793797699,-0.07496656986372052,1.7417487895689396,0.23850580662183837,-1.9812245643840032
365,18.3,-1.97,-8.82,3.66,-0.37,-0.124,-0.2,0.78,-0.20199999999999999,-0.13699999999999998,60.0,18300000000.0,-1.5495870998387173,-8.528006546759052,2.7275803617106287,-0.3422879181430347,-0.2778953208861313,-0.16081049593216737,1.3537344052565592,0.08388340795714008,-1.049196823241584
366,18.3,-3.77,-9.38,4.84,-0.11599999999999999,-0.13699999999999998,-0.14,-1.13,-0.6829999999999999,1.15,60.0,18300000000.0,-2.371997754219536,-8.829616184979633,3.7874417280132606,-0.17781450090590337,-0.18654508790677815,-0.14652268043711475,0.35167996444583394,-0.1853011356034188,0.06222553755002114
367,18.4,-2.99,-8.16,3.85,-0.0626,-0.307,-0.0494,-0.42200000000000004,0.557,0.168,60.0,18400000000.0,-2.600897362726243,-8.592568924317984,3.8188289526697794,-0.09407285761873212,-0.26464267702046473,-0.07984137896641377,0.03954134168958001,0.07525474285523595,0.11568146304171027
368,18.4,-2.99,-8.12,4.61,-0.191,-0.852,0.0941,-0.505,0.611,0.897,60.0,18400000000.0,-2.745015677437136,-8.425277312948047,4.215782139877431,-0.1645226552364224,-0.645458914893841,0.03958116565279185,-0.18015206222657731,0.26330723702502046,0.5105414908220532
369,18.5,-2.85,-7.89,4.68,-0.182,-0.484,0.41100000000000003,-0.40299999999999997,0.828,0.9129999999999999,60.0,18500000000.0,-2.78390040366209,-8.235786637080105,4.448693418061397,-0.17722575485780565,-0.5407761684057559,0.29458537778667393,-0.27005932556382384,0.4615206276637155,0.7139345535684889
370,18.5,-0.532,-5.74,3.12,-0.647,-0.00611,0.254,2.06,2.98,-0.546,60.0,18500000000.0,-1.9498272022153607,-7.352266617361437,3.782049908642962,-0.5186729578464641,-0.19412251911675454,0.2667207707974224,0.6699953907281979,1.3455346688318721,0.07719324847384434
371,18.6,-1.6,-14.4,2.59,-1.34,0.591,-0.512,2.08,3.14,-0.11,60.0,18600000000.0,-1.8202559854669689,-9.84719648700983,3.1839643665077926,-1.1156401750894545,0.31491584829847,-0.2679238334310944,1.2388570627153488,1.975411826965325,-0.01740981821731219
372,18.6,-5.6,-18.5,7.81,0.0107,0.0305,-0.0903,-3.13,-9.42,5.06,60.0,18600000000.0,-3.220221593858695,-12.91032869380277,5.504978592754849,-0.2969795217496889,0.13051332308203373,-0.14597303401981204,-0.523743936319317,-2.0245034241723774,2.548593708531075
373,18.7,0.41700000000000004,-2.7,-3.77,-0.0498,1.17,0.16,2.99,6.32,-6.63,60.0,18700000000.0,-1.8730443129655503,-9.295825432413,0.8514568325524374,-0.1173214111058026,0.8044700017149491,0.0640981889294735,0.8938644537423606,0.9045093644397117,-2.0900518270841255
374,18.7,-2.47,-8.11,-0.797,-1.1,0.597,-0.431,0.223,1.02,-3.16,60.0,18700000000.0,-2.0941485701608133,-8.876037658444911,0.024378943591679803,-0.8315641706168901,0.6699557263315735,-0.27582026949017396,0.6232064075258087,0.9450478445026157,-2.630778523296832
375,18.8,-6.47,-12.4,1.2,-0.628,-0.0684,-0.0799,-3.94,-3.1,-0.745,60.0,18800000000.0,-3.7149041944821843,-10.123536386371118,0.6142216420071058,-0.6836071294345596,0.19123886867988021,-0.14130772345324735,-1.2178041697067847,-0.4748085258246705,-1.677750393406376
376,18.8,1.01,-8.95,0.536,-0.7070000000000001,0.586,-0.0262,3.58,0.373,-1.07,60.0,18800000000.0,-1.9648641115206935,-9.708099045191895,0.5749756159191843,-0.7006098406666836,0.4471843606636579,-0.062278469926033905,0.7178540460022891,-0.17721838471633322,-1.3706076588863512
377,18.9,-4.09,-9.94,-0.0192,-0.34700000000000003,1.21,0.122,-1.49,-0.561,-1.23,60.0,18900000000.0,-2.7519855235195774,-9.790192900328083,0.27686073184264787,-0.4435947158117979,0.9417599555668581,0.06424119022982187,-0.17289738079278338,-0.31192996049355975,-1.2995478633151656
378,18.9,-1.75,-8.25,-0.6779999999999999,-0.41600000000000004,0.503,0.0544,0.9590000000000001,1.13,-1.55,60.0,18900000000.0,-2.380863748332371,-9.244957535791482,-0.2022201667309489,-0.4235379855812786,0.6572876222457877,0.05748454663822272,0.2837628756910818,0.1942033561378353,-1.4261204611376026
379,19.0,-2.77,-9.95,-0.51,-0.465,0.237,-0.125,-0.0646,-0.5429999999999999,-1.11,60.0,19000000000.0,-2.5249945027595615,-9.494545740560662,-0.35664209835176497,-0.45367392805914897,0.3847919129564012,-0.0678034626548446,0.14321702472447465,-0.06456314601020385,-1.2663606190857406
380,19.0,-2.27,-9.5,-0.47600000000000003,-0.501,0.45799999999999996,-0.24100000000000002,0.35100000000000003,-0.0558,-0.7709999999999999,60.0,19000000000.0,-2.43054800888879,-9.496476573466754,-0.4165273734708491,-0.4880720462090356,0.432256767694646,-0.18671462177481335,0.22704638427619123,-0.06148718453556584,-1.0160170217689266
381,19.1,-2.86,-9.39,-0.294,-0.573,0.306,-0.391,-0.38299999999999995,0.098,-0.254,60.0,19100000000.0,-2.589611131684032,-9.458783498693666,-0.3550518891614318,-0.5498004538143902,0.35039751825035964,-0.32697038132050893,-0.0190748091680642,-0.0055054247756942745,-0.6309115375669079
382,19.1,-2.2,-9.58,0.33,-0.42200000000000004,0.392,-0.294,0.106,-0.0544,0.665,60.0,19100000000.0,-2.4453044987709025,-9.501694670187428,-0.01134177611079823,-0.45691092300840197,0.37737070154710634,-0.3043339797881632,0.03138620899938125,-0.022667960161226627,0.024011698362392142
383,19.2,-2.28,-9.24,-0.6659999999999999,-0.415,0.535,-0.28600000000000003,-0.0964,0.303,-0.11599999999999999,60.0,19200000000.0,-2.3840779558636993,-9.40905347332111,-0.33980251659703503,-0.42644869570914545,0.47957051118457983,-0.29174646923113623,-0.02016871504254506,0.09164508653792099,-0.04674692072302768
384,19.2,-2.62,-9.74,-0.18,-0.40299999999999997,0.5770000000000001,-0.39399999999999996,-0.597,-0.18,0.617,60.0,19200000000.0,-2.471460221673881,-9.526209983575754,-0.25962503164359374,-0.40940541934530006,0.5427394518115612,-0.36195044415713823,-0.2528893930037087,-0.0037053371565925614,0.28869516057711275
385,19.3,-2.38,-10.2,-0.369,-0.182,0.521,-0.32899999999999996,-0.517,-0.628,0.586,60.0,19300000000.0,-2.437584645072852,-9.764734678211438,-0.31450157228903247,-0.2441197656479961,0.5286445807284348,-0.33932772838334485,-0.3594439530018791,-0.22283965614672568,0.43894604975839135
386,19.3,-3.04,-10.1,0.129,-0.172,0.43700000000000006,-0.34299999999999997,-1.33,-0.512,1.17,60.0,19300000000.0,-2.6607110640834897,-9.883420277848805,-0.09198416491010894,-0.19170077983510433,0.46922633437143185,-0.3418489881379285,-0.7510116020075549,-0.3243381343495928,0.8084035079396055
387,19.4,-4.21,-11.3,-0.141,0.0302,0.564,-0.0897,-2.65,-1.7,0.973,60.0,19400000000.0,-3.234546574513568,-10.384896076778361,-0.11657681119792813,-0.030416079138723434,0.5306733505134615,-0.16873161716470592,-1.5171522378362943,-0.8072106372716346,0.8915867004144199
388,19.4,-5.82,-12.4,0.47600000000000003,0.401,-0.11699999999999999,0.262,-2.65,-1.69,0.9179999999999999,60.0,19400000000.0,-4.192163332555379,-11.098251990788912,0.18073591191305982,0.28315114612649805,0.11075089553532219,0.12699482740982537,-1.9741959644839056,-1.1170794594233255,0.9049353523908528
389,19.5,-2.8,-11.2,1.9,1.34,-0.8540000000000001,0.925,-0.96,-1.61,2.58,60.0,19500000000.0,-3.6765249995681657,-11.13427118610261,1.0433398167027796,1.051303272196951,-0.5147504522984165,0.6748794719718402,-1.565021943555816,-1.2901000103089857,1.7514736071016976
390,19.5,0.271,-9.68,0.8640000000000001,2.23,-1.07,0.772,2.56,-0.14400000000000002,0.616,60.0,19500000000.0,-2.214415567594272,-10.619452611281105,0.953359917711578,1.9080183835310813,-0.8747494788283511,0.7415593070280341,0.09920451271556519,-0.8878062648720337,1.1776319385999234
391,19.6,-1.42,-10.1,-0.857,2.3,-1.03,0.48,1.1,-0.6990000000000001,-2.38,60.0,19600000000.0,-1.9201748578351583,-10.435564134831028,0.0450506237463143,2.1929233298055433,-0.9754069600312835,0.5619811080105666,0.5029721563373739,-0.8215331840067976,-0.6203116634905288
392,19.6,-2.81,-11.8,0.62,1.64,-0.654,0.41200000000000003,-0.171,-2.73,-1.91,60.0,19600000000.0,-2.249753935954658,-10.918580768766388,0.3335191559748576,1.7910406695163141,-0.7670210406825889,0.45900891260750365,0.23106031426181373,-1.491426090439639,-1.2720898121956727
393,19.7,-3.48,-9.26,2.16,0.8370000000000001,-0.77,0.593,-0.743,-0.42,-1.08,60.0,19700000000.0,-2.7054203099362044,-10.331435635786853,1.2499168257007136,1.0976129070774163,-0.7689524524073464,0.5510028718469062,-0.1619210907486689,-1.115343711983308,-1.175012158701574
394,19.7,-1.69,-6.92,2.27,0.23199999999999998,-1.12,0.498,1.13,1.75,-1.33,60.0,19700000000.0,-2.3293224942460093,-9.123771770775512,1.7617216910541713,0.4684573030228325,-0.9965559969766883,0.5146128052321898,0.3593002045432585,-0.10957646893740436,-1.2533393917231854
395,19.8,-1.41,-8.27,1.25,-0.13,-1.29,0.256,1.36,0.34,-2.55,60.0,19800000000.0,-1.9888179655745737,-8.821532802538648,1.5049762974588319,0.03347908469701416,-1.1868119497361853,0.3370575951132102,0.7630292377656596,0.04822983102142711,-1.908641155436696
396,19.8,-1.12,-8.6,2.38,-0.19899999999999998,-0.9540000000000001,0.187,1.52,0.0218,-1.48,60.0,19800000000.0,-1.6670196397900527,-8.743109307447572,1.9440007481002635,-0.13549427191389424,-1.0358670834640542,0.23403289022247498,1.068426584035469,0.038952668931723985,-1.6920160021810942
397,19.9,-0.6629999999999999,-7.82,2.23,-0.24600000000000002,-0.5660000000000001,0.109,1.89,0.812,-1.66,60.0,19900000000.0,-1.295144451080797,-8.416324431312745,2.08749475407592,-0.2158134322174584,-0.7312262551017217,0.14818933508698373,1.3998876595123704,0.31030079940595406,-1.6758358504845035
398,19.9,-1.59,-8.19,3.14,-0.381,-0.15,-0.028,0.915,0.501,-0.65,60.0,19900000000.0,-1.4043549382162237,-8.336204394027856,2.615566761347925,-0.33587640821262615,-0.3543851302695952,0.027223414593110756,1.2042613433847555,0.3772383174012801,-1.157402516305531
399,20.0,-3.91,-8.42,4.68,-0.213,-0.239,-0.0409,-1.47,0.34299999999999997,1.01,60.0,20000000000.0,-2.3324117347910116,-8.36586845062571,3.6513518171736137,-0.24656584005360638,-0.27957456359411825,-0.019547926255498872,0.1253394251758515,0.3652202885586462,-0.062048243547348614
400,20.0,-2.27,-8.79,4.68,-0.187,-0.8170000000000001,0.0752,0.126,-0.0128,1.03,60.0,20000000000.0,-2.309295272184467,-8.516012954659086,4.167453915471545,-0.20327145588436923,-0.6280171806748029,0.045502945985309136,0.1256059327245721,0.2325309984313327,0.48984725096908555
401,20.1,-4.09,-9.07,4.9,-0.0602,-1.26,0.433,-1.81,-0.29600000000000004,1.17,60.0,20100000000.0,-2.9688440788164314,-8.712126806474686,4.53499326463746,-0.09928246972526607,-1.0377665911102714,0.3115459353217168,-0.6553078649934914,0.04701078779477552,0.8335804387111284
402,20.1,-0.8690000000000001,-5.91,3.55,-0.6809999999999999,-0.146,0.616,1.54,2.84,-0.179,60.0,20100000000.0,-2.1910904712975894,-7.720160986039548,4.040793976075534,-0.522093676367523,-0.45958498526086544,0.520574283032456,0.23038182727220113,1.0273807733371134,0.321846087475235
403,20.2,-1.19,-12.9,1.95,-1.26,0.00855,-0.162,1.36,-4.03,-1.38,60.0,20200000000.0,-1.8203002324424655,-9.553847665432272,2.9917829228878805,-1.058427972453353,-0.1560671816143714,0.051940775423386765,0.6861225540239845,-0.7478157265376721,-0.5382269134777887
404,20.2,-4.63,-15.1,6.54,-0.529,-0.713,0.149,-2.22,-5.99,3.69,60.0,20200000000.0,-2.8609747566489796,-11.51721121376456,4.772024792944467,-0.67362250060773,-0.517157531313406,0.11857851405728856,-0.4863430038458768,-2.58788013905715,1.5986195947650734
405,20.3,1.79,-6.32,0.40700000000000003,-0.23199999999999998,0.326,-0.0317,4.25,2.76,-2.38,60.0,20300000000.0,-1.1383171399817678,-9.677374621535652,2.581967137067962,-0.35263690656279345,0.029508134366752925,0.015402128804270485,1.424518938265853,-0.7107152350656796,-0.41208127161700947
406,20.3,-2.38,-7.96,-0.9359999999999999,-0.6990000000000001,0.9129999999999999,-0.369,0.0443,1.21,-3.43,60.0,20300000000.0,-1.598219582566316,-9.069416126972822,0.8169025123733618,-0.6043848627351027,0.6023247685865267,-0.24851597741194204,0.8676741665416215,-0.036522991763001555,-1.937266481457074
407,20.4,-6.35,-11.4,0.225,-0.65,0.0776,-0.0677,-3.98,-2.09,-1.88,60.0,20400000000.0,-3.3582142202437417,-9.894453392974782,0.5199281067611451,-0.6375394099740725,0.2621166801681968,-0.12437355303183223,-1.0881039731597686,-0.7573160380804456,-1.9083253456149805
408,20.4,0.0479,-8.7,-0.48100000000000004,-0.759,-0.0678,0.156,2.48,0.634,-2.25,60.0,20400000000.0,-2.0966359581211087,-9.471611335335606,0.017733873420822888,-0.7258209175307117,0.0482134485850538,0.06812189586051334,0.3514357980770615,-0.26894876356096153,-2.080999683401806
409,20.5,-1.65,-9.9,0.105,-0.605,0.888,-0.152,0.789,-0.496,-1.26,60.0,20500000000.0,-1.9312080805741945,-9.623262756207042,0.06151778089654239,-0.6380043610266207,0.5926935257224396,-0.08300670121734888,0.5279696199970743,-0.3486462487162096,-1.6660857397365518
410,20.5,-3.32,-9.99,0.39,-0.4,1.22,0.109,-0.8590000000000001,-0.5429999999999999,-0.5429999999999999,60.0,20500000000.0,-2.4455976457222697,-9.753089344793144,0.22632668861800057,-0.46501505899551226,0.9994110277485577,0.04881891076480452,-0.031598703391294114,-0.4168665528010854,-1.098504601182277
411,20.6,-1.87,-8.68,-0.522,-0.33799999999999997,0.659,0.139,-0.752,-0.545,-0.228,60.0,20600000000.0,-2.2324041281612295,-9.37321089348268,-0.1491302000796972,-0.37269638491304014,0.7787037170957661,0.11073433963304599,-0.32224221683965754,-0.46184281173218944,-0.6585720407777015
412,20.6,-2.36,-9.66,-0.457,-0.316,0.782,-0.0952,0.22899999999999998,-0.212,-0.8109999999999999,60.0,20600000000.0,-2.2796638603825152,-9.47473550108701,-0.30359726898494444,-0.33148761990875275,0.7808408830201236,-0.030653543384088433,-0.09984536418579418,-0.3741452285704743,-0.7356055425891129
413,20.7,-2.81,-9.68,-0.591,-0.45299999999999996,0.619,-0.175,-0.285,-0.2,-0.652,60.0,20700000000.0,-2.476093113824885,-9.547400185010714,-0.4477954412514617,-0.4198067743273665,0.6759104986084806,-0.12975716699327955,-0.17454538904925138,-0.3130183338461163,-0.6933532719347991
414,20.7,-2.35,-9.74,0.462,-0.439,0.626,-0.245,0.0807,-0.237,0.7120000000000001,60.0,20700000000.0,-2.429389908502987,-9.615581323567142,0.008674933020192621,-0.4337570422820916,0.6435507534730522,-0.20887918579495773,-0.07156747878677001,-0.28633506151945254,0.016879239064430118
415,20.8,-2.29,-9.41,-0.10300000000000001,-0.307,0.74,-0.16699999999999998,0.0235,0.111,0.382,60.0,20800000000.0,-2.3777617729364433,-9.54280453627674,-0.04735557177342521,-0.3416259116254694,0.706084140769244,-0.1801262834073122,-0.03321281877565038,-0.14686607245634084,0.20140268753836923
416,20.8,-2.26,-9.32,0.0934,-0.287,0.8740000000000001,-0.205,-0.0496,0.21,0.785,60.0,20800000000.0,-2.3341444144668877,-9.463930598522575,0.02326552109645247,-0.3019220236869963,0.8149532880502584,-0.19720377445516307,-0.03982417349315953,-0.021602147665875537,0.4963390625335474
417,20.9,-3.0,-9.91,0.0718,-0.0932,1.08,-0.28,-0.9309999999999999,-0.35700000000000004,0.9229999999999999,60.0,20900000000.0,-2.580768243974278,-9.621841162501312,0.04761665640064072,-0.15021607062660033,0.986797758915148,-0.25404899568593764,-0.3993661150892588,-0.1393304903916064,0.7119634587346758
418,20.9,-3.61,-9.06,0.139,-0.13699999999999998,0.627,-0.255,-1.69,0.506,1.09,60.0,20900000000.0,-2.96198161330658,-9.422946957630641,0.09346629022183958,-0.14061019689684107,0.7535209547698649,-0.2547019213287562,-0.9200681164463369,0.08718762250195836,0.9030142561762718
419,21.0,-3.88,-11.2,-0.608,-0.00275,0.53,-0.0854,-2.06,-1.65,0.406,60.0,21000000000.0,-3.3020031483472683,-10.052031833398702,-0.2584793804539576,-0.04040892438229182,0.6085999383412578,-0.13846467792019806,-1.379969846910814,-0.522584383017246,0.6518349296687509
420,21.0,-4.86,-12.1,-0.716,0.084,0.13,0.159,-3.04,-2.52,0.322,60.0,21000000000.0,-3.8790639873507438,-10.777022110674453,-0.48803055809829965,0.05001552517638587,0.2982971239510014,0.06576498051516774,-2.0497035141783075,-1.2236992861698464,0.48514410884324544
421,21.1,-3.8,-11.3,0.7879999999999999,0.5379999999999999,-0.292,0.43700000000000006,-1.87,-1.72,1.71,60.0,21100000000.0,-3.8497797468635317,-10.962158754315421,0.15219042612587264,0.4046984952993848,-0.08442514794621225,0.3206429865408148,-1.9772027268162997,-1.3979063201666135,1.1041574999812833
422,21.1,-1.71,-9.71,1.7,1.5,-0.601,0.8590000000000001,0.547,-0.17800000000000002,2.15,60.0,21100000000.0,-3.0572345200432585,-10.518888814606989,0.9287707381288155,1.2007992337044247,-0.4193492033006717,0.6902615824884197,-0.9588214770590249,-0.9697057492683746,1.632701760639431
423,21.2,-0.484,-8.89,0.244,2.33,-1.15,0.937,0.963,-0.29100000000000004,1.15,60.0,21200000000.0,-2.104143540574531,-9.942254810359247,0.5852016945392713,2.021539001941569,-0.8930705115001489,0.8596642129482837,-0.18346894956007453,-0.7314725492534283,1.3887556267541192
424,21.2,-1.27,-12.9,-0.8740000000000001,2.03,-1.43,0.541,1.65,-3.66,-2.66,60.0,21200000000.0,-1.7951881401709848,-10.98931006450686,-0.14692149518360975,2.0276887095758855,-1.241191562355414,0.6408796389480083,0.5562380330960794,-1.7594180115479294,-0.6573903268857519
425,21.3,-3.25,-12.0,1.24,1.69,-0.504,0.244,-0.272,-3.03,-1.53,60.0,21300000000.0,-2.33403061574553,-11.347098946207776,0.5489366516182462,1.782245619853627,-0.7632295038103089,0.36839486987981046,0.2220881281137031,-2.2054062919310384,-1.0983867267572407
426,21.3,-3.02,-9.13,1.87,0.9059999999999999,-0.774,0.469,-0.00365,-0.475,-1.61,60.0,21300000000.0,-2.5881043149700216,-10.562235771280418,1.2117518820420083,1.1453618325396198,-0.7702126050935139,0.4374671183157056,0.13101482584015617,-1.5980145977684694,-1.3569440546025784
427,21.4,-1.6,-6.06,1.47,0.327,-1.32,0.22399999999999998,1.39,2.42,-2.44,60.0,21400000000.0,-2.2221239589809607,-8.968423598363948,1.3413223559832934,0.5505498445756825,-1.1266702158557493,0.2909074784462229,0.6389482305146919,-0.18764713492313168,-1.9042950964136816
428,21.4,-1.3,-7.28,2.41,-0.264,-0.996,-0.0231,1.48,1.18,-1.69,60.0,21400000000.0,-1.880581800673074,-8.370713959814688,1.8775085078953049,-0.04149145986206526,-1.0419494823158375,0.07532006248833706,0.9782677968545918,0.2924120739752558,-1.7959954215364398
429,21.5,-1.08,-8.26,2.48,-0.255,-0.495,-0.014,1.53,0.26899999999999996,-1.6,60.0,21500000000.0,-1.5840572340526882,-8.331520790289286,2.179795713772059,-0.196676403856046,-0.6873318843497163,0.013995785559710185,1.20086232045682,0.2841941756364856,-1.6969439552604522
430,21.5,-0.807,-7.82,2.75,-0.272,0.0171,-0.0952,1.73,0.759,-1.26,60.0,21500000000.0,-1.2962458233525203,-8.150440140647175,2.4658834963629372,-0.2514240528094164,-0.2306097312427186,-0.060974523558597844,1.4143411773728332,0.4508562575054693,-1.4761227477081784
431,21.6,-2.72,-8.55,4.49,-0.226,0.408,-0.0683,-0.18100000000000002,0.0983,0.635,60.0,21600000000.0,-1.823584967165178,-8.291886234521142,3.4814404655705395,-0.23294502191267405,0.18343627395876272,-0.06600396053371917,0.7707060506271384,0.32710512387459384,-0.40921094689991366
432,21.6,-5.22,-8.29,4.85,-0.159,0.109,0.0801,-2.62,0.38799999999999996,1.1,60.0,21600000000.0,-3.081570705288568,-8.29121848532843,4.168085839380581,-0.1791993721953666,0.13517511879469096,0.034306310611837754,-0.5972630607926916,0.34847990098430803,0.35350879718676864
433,21.7,-3.9,-7.93,5.12,-0.306,-0.748,0.174,-1.26,0.753,1.41,60.0,21700000000.0,-3.3847057915566245,-8.1633454208056,4.6456883149597505,-0.27136218621227826,-0.4374361756632315,0.13021549278304878,-0.8646420862372497,0.4904709243104043,0.887434596828266
434,21.7,-4.68,-8.51,5.53,-0.265,-1.13,0.45799999999999996,-2.09,0.18100000000000002,1.8,60.0,21700000000.0,-3.8644650406038448,-8.286062815886146,5.0893728596508785,-0.26673793206121515,-0.8864636054632236,0.3552617757727822,-1.3590086549090703,0.3818432149016273,1.348623673699405
435,21.8,-0.151,-6.9,3.68,-0.531,-0.509,0.441,2.5,1.79,-0.0133,60.0,21800000000.0,-2.489048222514864,-7.795390243293691,4.382250260081919,-0.45881220653343846,-0.6417330747649477,0.4141268876618297,0.1978956417091977,0.8761217627891655,0.6603394670354851
436,21.8,0.527,-11.3,0.0838,-1.23,-0.011,-0.513,3.17,-2.52,-3.3,60.0,21800000000.0,-1.3719450829660385,-9.036038269813389,2.2255949483863775,-1.0193365775648762,-0.23279393662918108,-0.22240856528980812,1.3969813598292662,-0.3159544230241278,-1.3411229706114884
