,Time (s),Acceleration x (m/s^2),Acceleration y (m/s^2),Acceleration z (m/s^2),Gyroscope x (rad/s),Gyroscope y (rad/s),Gyroscope z (rad/s),Linear Acceleration x (m/s^2),Linear Acceleration y (m/s^2),Linear Acceleration z (m/s^2),Still,Walk,Run,Cycle,SPM/RPM,Timestamps,Acceleration x (m/s^2)_kalman,Acceleration y (m/s^2)_kalman,Acceleration z (m/s^2)_kalman,Gyroscope x (rad/s)_kalman,Gyroscope y (rad/s)_kalman,Gyroscope z (rad/s)_kalman,Linear Acceleration x (m/s^2)_kalman,Linear Acceleration y (m/s^2)_kalman,Linear Acceleration z (m/s^2)_kalman
0,0.0481,2.33,4.13,9.51,-0.542,0.687,0.106,0.537,1.55,0.22699999999999998,,,,,160,48100000.0,1.463419736700115,2.6484537738988654,6.092889287550026,-0.3187510235565466,0.3145161461482566,0.03330267414380804,0.3877622363809398,1.0332435889402767,-0.013169637769090846
1,0.0982,2.42,4.35,9.29,0.0589,-0.055,-0.0525,0.847,1.87,-0.0648,,,,,160,98200000.0,1.6602537775924904,3.394926273954203,6.779927689281071,-0.08911621004342163,0.25650043551558466,-0.006259237643385658,0.5012641249495172,1.4085110271714023,-0.02696445673141645
2,0.14800000000000002,2.19,4.28,8.2,0.142,0.18600000000000003,-0.0231,0.643,1.69,-1.13,,,,,160,148000000.0,1.8275763887474807,3.8808051418069263,7.241242301112038,0.0662071802422998,0.23986575203191526,-0.01569812932973936,0.5528653347536601,1.5653579152739998,-0.4509916883185031
3,0.198,1.97,4.4,8.49,-0.11699999999999999,0.191,-0.16399999999999998,0.515,1.73,-0.831,,,,,160,198000000.0,1.879386066814138,4.176922036259316,7.705169669632657,-0.0581536042633876,0.22621184894538263,-0.10154665091248985,0.5374134311991194,1.6604457630034144,-0.6128193793044563
4,0.248,1.59,3.95,9.46,-0.0547,0.306,-0.17600000000000002,0.237,1.29,0.113,,,,,160,248000000.0,1.7686686783032965,4.046612647942329,8.388528798215805,-0.05580690451702141,0.25025202163385696,-0.14488702741656692,0.410307538592752,1.445164297412733,-0.2940435918950315
5,0.298,1.73,4.04,8.31,0.11599999999999999,0.0745,-0.0616,0.478,1.29,-1.02,,,,,160,298000000.0,1.753600019301968,4.042810651677738,8.357430065178868,0.06094686290224805,0.19544862856056297,-0.09635741128122509,0.4392840876355468,1.3548940243840704,-0.6159029604575265
6,0.348,1.14,3.91,8.3,-0.187,0.45799999999999996,-0.0781,-0.0111,1.12,-1.03,,,,,160,348000000.0,1.5128742523778669,3.9664335983170464,8.33454895845933,-0.10755069255893052,0.2786169333732889,-0.08571740506818849,0.2457634147218828,1.2182133539575781,-0.8000297664488614
7,0.39799999999999996,1.09,3.78,11.7,0.0932,0.373,-0.0665,0.157,1.08,2.27,,,,,160,398000000.0,1.3465633664864545,3.8592145520534142,9.678323658199321,0.028873849241497218,0.30873186103686856,-0.07451760569104132,0.20757696963047248,1.1377868120841925,0.5662665122557853
8,0.44799999999999995,1.61,4.92,7.18,0.0272,-0.23399999999999999,-0.145,0.68,2.06,-2.15,,,,,160,448000000.0,1.4502635353521403,4.469282797904187,8.679998708014091,0.027736348335539195,0.13498339620128819,-0.11559457148294364,0.41089622277677346,1.6744271821199492,-0.642921698118853
9,0.498,1.47,3.81,9.14,-0.318,0.2,-0.0366,0.58,1.02,-0.214,,,,,160,498000000.0,1.458035269407282,4.090122212172324,8.863866237845377,-0.20721640384059217,0.1558296053205801,-0.06955668679484793,0.483683680729796,1.2936123800605384,-0.45196442136010817
10,0.5479999999999999,1.24,3.87,8.54,0.0687,-0.225,-0.0659,0.349,1.1,-0.828,,,,,160,548000000.0,1.3721679663747224,3.963527489833449,8.73440030221539,-0.019711326359058118,0.03363811878754347,-0.06742557519099428,0.4257092681814568,1.1809482609371507,-0.6193809903260273
11,0.598,1.32,3.83,8.54,-0.243,0.069,-0.0354,0.326,1.03,-0.805,,,,,160,598000000.0,1.351622117500315,3.88673434422791,8.65668568667758,-0.1714520692456645,0.04498789529531533,-0.048761127443891314,0.38278896455296635,1.0931105994723846,-0.7020219653453905
12,0.648,1.5,3.85,9.27,-0.073,-0.345,-0.11800000000000001,0.45799999999999996,1.11,-0.091,,,,,160,648000000.0,1.4100603352759977,3.865607971059481,8.901871214834516,-0.10454679367750973,-0.08020175348616368,-0.08911341804884398,0.4151640391174674,1.1029386453209522,-0.42998316049556634
13,0.698,1.63,4.09,8.38,0.0119,-0.478,-0.16899999999999998,0.419,1.29,-0.9420000000000001,,,,,160,698000000.0,1.4966834865583007,3.9946583396468496,8.693241233526228,-0.02541280682311306,-0.20790744577572526,-0.13567117398901732,0.4168152553368158,1.2117906816594188,-0.6579431267397189
14,0.748,1.83,3.61,7.62,-0.18,-0.21600000000000003,-0.259,0.469,0.779,-1.67,,,,,160,748000000.0,1.6279603780683438,3.773437111153593,8.264187573706561,-0.13046594794956484,-0.21050549399384016,-0.2075469936188267,0.439278560847395,0.9599473310354055,-1.1085308605527195
15,0.7979999999999999,1.87,2.91,5.26,-0.773,0.648,0.243,0.552,0.20600000000000002,-4.07,,,,,160,798000000.0,1.7232878835451606,3.276865146640794,7.063191756431052,-0.5671141342491286,0.06511453030744424,0.0550309832523547,0.48780032028988307,0.5212211219687858,-2.4270357127128412
16,0.848,5.3,1.23,4.79,0.11,-1.3,0.7979999999999999,3.7,-1.23,-4.57,,,,,160,848000000.0,3.1319793831661924,2.0996908910927097,6.154428709973491,-0.10696629219118092,-0.3731534179828344,0.48803197535803167,1.8705151819879358,-0.49782434853975477,-3.381125997889774
17,0.898,1.63,-0.405,2.79,-0.275,5.43,0.39,0.608,-2.91,-6.63,,,,,160,898000000.0,2.5404233258948987,0.659216090482857,4.809417360419337,-0.22115730806433886,1.489946023065416,0.43089910833584355,1.3270562728434219,-1.901483030787103,-4.827589209403214
18,0.948,0.261,0.299,13.6,-2.71,3.77,1.27,1.76,-1.57,4.05,,,,,160,948000000.0,1.6426701764304927,0.4520519210736258,8.323664550232909,-1.9125052722406326,2.221957259861159,0.9199255856792226,1.5134200658615344,-1.7085912139247947,-0.8751102765666836
19,0.998,-4.25,-0.958,11.0,-2.84,0.708,0.47,-1.56,-1.49,1.58,,,,,160,998000000.0,-0.6781638896673852,-0.35888417978300624,9.393594088298572,-2.542804710388903,1.7359010169509737,0.6577097639568328,0.1904439191073808,-1.5813917577828303,0.2179535479039938
20,1.05,-2.5,-0.826,9.88,-0.0999,0.282,-0.7490000000000001,0.193,-0.624,0.45299999999999996,,,,,160,1050000000.0,-1.3956958750510284,-0.6275275218993114,9.588046609882033,-0.8826749404381404,1.2691256985369421,-0.16211816052676653,0.19154420443495185,-1.0242800953622997,0.3226008958343872
21,1.1,-4.74,1.43,13.9,0.0137,1.26,-0.982,-1.66,1.82,4.56,,,,,160,1100000000.0,-2.712853332573644,0.5557787616950788,11.311853659028532,-0.2735235817197047,1.2661958870437693,-0.6399438160917803,-0.6054665418436538,0.6308225833123329,2.209175023485326
22,1.15,-3.43,0.294,7.96,0.0272,0.058,-0.581,-0.633,0.4,-1.44,,,,,160,1150000000.0,-2.995302296281252,0.40522696663657154,9.971869459154158,-0.06916023959946865,0.8783041856162492,-0.6055914490002337,-0.617318527498984,0.4965056221764107,0.5844898762083506
23,1.2,-0.0982,-2.83,4.56,-1.01,2.36,-1.96,3.2,-2.37,-4.66,,,,,160,1200000000.0,-1.854275638380475,-1.4553869814360016,7.808344298086556,-0.7085286408269604,1.35400311191002,-1.3949383354944955,1.0258742054520549,-1.1715301189351965,-1.7504610018991993
24,1.25,-0.316,-11.1,2.94,-3.89,2.25,-2.35,4.11,-9.06,-5.58,,,,,160,1250000000.0,-1.2484242340570102,-7.002108378144577,5.862106454279068,-2.870567735869865,1.641663230517589,-1.951546497943018,2.353458794664803,-5.761875530351847,-3.4554477097505467
25,1.3,-12.8,-4.64,12.2,-4.06,1.88,-3.39,-8.05,-0.21899999999999997,4.82,,,,,160,1300000000.0,-5.798024063444541,-5.643634245534917,8.395831944400863,-3.6788726228627056,1.718181333822595,-2.7898746694562706,-2.1247863048235454,-2.536444958675509,0.22894587585492054
26,1.35,-18.4,2.19,9.53,-1.25,2.04,-1.71,-13.7,8.12,3.27,,,,,160,1350000000.0,-10.761324833067544,-1.1384264991122803,8.84924282953961,-2.028278667580534,1.8215013194199265,-2.160525679159973,-7.107421717197213,3.664600469424898,1.5828834993851144
27,1.4,-14.9,1.7,8.03,-0.89,2.71,-0.000535,-9.87,8.19,2.69,,,,,160,1400000000.0,-12.39134606729526,0.49398328312367035,8.521730673663427,-1.2547362866167333,2.106754151142169,-0.9016870014413929,-8.296593718720228,6.297955765447531,2.0757937566497757
28,1.45,-7.88,-3.02,4.42,-1.44,1.74,1.06,-2.1,3.55,0.00455,,,,,160,1450000000.0,-10.614547918297653,-1.5269464680175044,6.881965094440122,-1.3806363675896407,1.989007602611283,0.24158061669497966,-5.629224536948355,4.698904761035057,1.1536349418163514
29,1.5,-7.43,-4.33,4.32,-2.32,1.62,0.905,-0.9890000000000001,2.3,1.05,,,,,160,1500000000.0,-9.360310444433155,-3.139012803276855,5.857757922412324,-2.0190015946026394,1.8705375811140341,0.6282202218072523,-3.6318059166670515,3.3029685070599077,1.1074945883236915
30,1.55,-3.99,-4.43,4.88,-1.75,-0.32299999999999995,2.54,3.09,1.93,2.52,,,,,160,1550000000.0,-7.245208268720387,-3.8814733932221417,5.466875693492316,-1.8361956286442178,1.1663015502532388,1.7424020112321332,-0.7383553764257411,2.504030349603609,1.7363700138858316
31,1.6,-8.2,-7.47,3.33,1.34,0.715,0.973,-0.56,-1.69,1.25,,,,,160,1600000000.0,-7.621253878977084,-5.94527370570068,4.6126081468570055,0.3222581787642993,1.0214110174019817,1.2939958989264637,-0.6615809996640623,0.0635003736406472,1.5198284338926416
32,1.65,-7.71,-7.67,6.37,0.987,-1.02,1.87,0.257,-2.6,3.75,,,,,160,1650000000.0,-7.65620664318354,-6.937182480727758,5.315167813789996,0.7739981352928397,0.36601528483652823,1.629690054440241,-0.2661710823661196,-1.4864054781468865,2.5127450627827903
33,1.7,-2.35,-6.32,4.85,0.846,-0.897,1.87,5.84,-2.24,1.34,,,,,160,1700000000.0,-5.566351772864685,-6.582234264829697,5.129205740492141,0.8229286010196671,-0.03947622972050324,1.7697422606984734,2.362275038099301,-1.9249263912490449,1.990615707875738
34,1.75,-5.0,-1.96,-17.2,-1.94,2.7,-4.54,3.28,2.24,-20.4,,,,,160,1750000000.0,-5.343293556486519,-3.9239374080940888,-3.7974322642563543,-1.0546805001080775,0.8400336108648884,-1.9075641428958168,2.7573164556660803,0.49866779926003524,-7.9781304758431695
35,1.8,-16.3,-1.43,18.8,-2.51,-0.8079999999999999,0.28,-8.66,4.55,17.6,,,,,160,1800000000.0,-9.658603128358013,-2.4896470222901175,5.236435142467478,-2.0436749542319785,0.31093182047005363,-0.6326556994769028,-2.15735095018149,2.856160994325178,3.409760864051899
36,1.85,-20.4,1.62,5.97,-0.268,0.894,0.27,-12.6,7.34,4.84,,,,,160,1850000000.0,-13.88911295865208,-0.12614460364206703,5.529695275213718,-0.8369758843038395,0.4981260664683458,-0.10658957723233076,-6.652465864078388,5.465332319199581,4.046531771932373
37,1.9,-0.6559999999999999,-2.28,4.3,-0.0473,0.36,2.65,7.76,2.67,3.39,,,,,160,1900000000.0,-8.677238093821018,-1.3648501025747695,5.0380950531604,-0.30033422207009886,0.4537806479219782,1.499945919400671,-0.44851429922089636,3.838712702783157,3.7542308478724853
38,1.95,6.81,-5.44,-0.113,0.42200000000000004,-2.3,0.466,15.6,-1.17,-1.2,,,,,160,1950000000.0,-2.577573788729145,-3.7085128820647366,2.9788207639916924,0.19054392216246657,-0.43032160063974295,0.8973640942690615,6.459686360175015,0.9241145235465069,1.548508958885635
39,2.0,8.4,-4.9,1.12,-0.622,-3.79,-4.31,16.6,-0.122,-1.21,,,,,160,2000000000.0,1.745954558322956,-4.393750054962473,2.2357124036140714,-0.3616382050793729,-1.508947542494442,-2.137478288173313,10.824658782992103,0.3153745744519275,0.32036602328293506
40,2.05,-10.1,-19.0,-2.8,-3.83,4.79,-8.89,-4.03,-11.7,-5.31,,,,,160,2050000000.0,-2.9195867302669622,-12.793962249629582,0.22256512538359585,-2.7186398994497765,0.5133318110913241,-6.0728359807688195,4.430362046445176,-6.676439626076133,-2.186384613933044
41,2.1,-14.1,-12.8,8.08,1.3,4.71,-9.35,-12.1,-3.27,8.36,,,,,160,2100000000.0,-7.323003911770589,-12.797434734811892,3.363763899274614,0.0123154356896924,1.860673649321714,-7.9827614913953875,-2.685253504068867,-4.69421316158283,2.5090749085969644
42,2.15,0.153,-7.13,-3.47,1.34,-7.0,-7.57,-1.69,2.45,-4.45,,,,,160,2150000000.0,-4.378572239697418,-9.538031836075827,0.6318022066474578,0.9145727837443042,-0.9840488011381603,-7.742204937628579,-2.256839370139287,-0.5369551542216655,-0.589243227130567
43,2.2,-1.02,-5.93,4.53,-0.23199999999999998,-9.0,-6.16,-6.26,2.33,5.27,,,,,160,2200000000.0,-3.0557951716054643,-7.463013636045604,2.190200730110572,0.13539396748759247,-3.557572806159916,-6.82009866056743,-3.9800292748914634,1.1313421943233657,2.019408099254192
44,2.25,6.57,-16.0,-5.66,2.31,-1.44,2.6,0.504,-8.57,-3.49,,,,,160,2250000000.0,0.7353340229408372,-12.372726754063336,-0.9481059898099611,1.6131954150196046,-2.877725316251371,-1.330082182161826,-2.0498460357643005,-4.51392343107748,-0.4334897000433737
45,2.3,17.2,-18.7,-7.08,1.51,-1.14,3.41,12.7,-10.1,-5.78,,,,,160,2300000000.0,7.219959607687581,-16.011610416082227,-3.399478250754011,1.5430666884729127,-2.3198279761382636,1.4324292268389796,4.299333113831337,-7.764493151145778,-2.813862256289137
46,2.35,4.16,-7.3,3.41,-1.06,0.86,-0.603,0.0982,1.48,5.02,,,,,160,2350000000.0,6.014791372999127,-11.001469228199003,-0.6772253080653869,-0.225904646745968,-1.2989430602710004,0.24618474781595467,2.4909246025803498,-2.385070374955257,0.6739286392529138
47,2.4,3.56,-9.13,-1.38,0.9690000000000001,0.6890000000000001,-0.6409999999999999,-0.735,-0.424,0.0408,,,,,160,2400000000.0,5.047969294848743,-9.925167115713613,-0.9581764126319242,0.5861191451087221,-0.6607132249961047,-0.27086490957042775,1.1023017294403756,-1.2439124473724925,0.3920472081411957
48,2.45,-1.98,-14.2,1.78,0.951,0.0244,-0.775,-6.66,-5.65,2.72,,,,,160,2450000000.0,2.279996499434668,-12.383669596340642,0.13647553433970228,0.8340819599905228,-0.44075737874246396,-0.5646739184414402,-2.239037823693563,-3.8078397293863233,1.4284979914995173
49,2.5,1.59,-11.7,3.57,1.16,1.76,0.26,-3.24,-3.13,3.91,,,,,160,2500000000.0,2.0082406960631882,-11.990483713302382,1.5091095947918425,1.0555667289317994,0.2657965633129277,-0.08405544955158462,-2.6699093261256284,-3.4134010299248754,2.533311958071513
50,2.55,5.54,-16.1,7.72,2.85,1.46,0.43,0.8640000000000001,-7.52,6.92,,,,,160,2550000000.0,3.3992276413664673,-14.353911161143333,3.9920625135646306,2.275013366474514,0.6491960168677589,0.21553514481287472,-1.14871217003106,-5.803054148049722,4.486352542272115
51,2.6,10.5,-9.0,-5.04,3.65,0.649,0.963,6.23,-0.561,-7.65,,,,,160,2600000000.0,6.195873989293784,-11.274818992090012,0.3812780397887541,3.2094159209522104,0.6491330820610784,0.6511563159700589,2.027508522317218,-2.7526732331373016,-0.9169924429840677
52,2.65,3.24,0.773,4.43,3.07,-0.0806,0.6890000000000001,-0.6729999999999999,8.88,0.541,,,,,160,2650000000.0,5.031700044135554,-4.345988086597888,1.999852071193243,3.1146727119354987,0.41485201426071294,0.6732115529808518,0.8650548638802571,4.016445073481824,-0.267865276286241
53,2.7,1.9,-1.13,1.75,-2.06,1.51,1.19,-1.59,6.81,-2.84,,,,,160,2700000000.0,3.79827681697577,-2.496438579732343,1.899967689097714,-0.401890208671555,0.7664496644819904,0.9743949625268209,-0.19174149376042116,5.6420304261595895,-1.4130306494400922
54,2.75,1.99,-7.24,0.915,-3.44,-0.635,1.18,-0.866,1.46,-2.59,,,,,160,2750000000.0,3.086085174412086,-5.2245118850619425,1.506203145156,-2.466504756299693,0.31651375053291764,1.0942211775069999,-0.48198100358579443,3.2084833289029464,-1.9370407177246758
55,2.8,8.47,-9.92,4.13,-3.42,0.588,-0.971,5.82,-0.654,2.29,,,,,160,2800000000.0,5.206545558275858,-7.924937888473124,2.5551291667395795,-3.1144735286255996,0.40367450806209465,-0.1093860144962806,2.2307529394952015,0.9608824788700518,-0.0550783406894324
56,2.85,4.86,-0.915,-3.6,-2.72,0.49700000000000005,-0.787,1.59,8.31,-4.18,,,,,160,2850000000.0,5.070058293567016,-3.893446864018342,0.09446810006893847,-2.8464003622868246,0.4336366935253839,-0.5042982251576749,1.9549361591503889,5.23737570650529,-1.8915752273850133
57,2.9,1.3,-0.654,-14.4,-5.46,1.19,0.0496,-2.12,8.49,-13.4,,,,,160,2900000000.0,3.585217017291999,-2.0304059544294377,-5.700044408719213,-4.6225296602562125,0.6764674224929786,-0.18148733626423158,0.20085010002564996,7.130096016141137,-7.015354098908404
58,2.95,-2.35,-22.9,7.46,-6.6,-3.4,-1.41,-6.0,-14.7,11.3,,,,,160,2950000000.0,1.2476258524836972,-14.032734810542742,-0.43899973677704374,-5.966363174370662,-0.632283934974721,-0.897462284711819,-2.468351231194928,-5.572960011626667,1.139005016136414
59,3.0,3.08,-29.5,10.3,1.16,-5.42,-0.653,-0.35100000000000003,-21.4,14.7,,,,,160,3000000000.0,1.9693082266679713,-22.928126177357747,3.8541740878811153,-1.1234859427917447,-2.1693819178896714,-0.754990103785638,-1.556921894164213,-14.782803728675717,7.17662895459086
60,3.05,8.48,-8.96,2.0,2.87,0.69,0.802,5.22,-0.7290000000000001,6.23,,,,,160,3050000000.0,4.5335505612399105,-14.894905879692542,3.112923346268072,1.590375421009171,-1.2513763292175089,0.1524209165361703,1.3602536688098774,-6.6048159659206735,6.7551709709325145
61,3.1,1.68,-17.0,1.91,5.7,-2.11,1.05,-1.02,-7.95,4.55,,,,,160,3100000000.0,3.4096767769036926,-16.10556825825444,2.632025757905303,4.3831613044206135,-1.5270377327423934,0.6755283620684684,0.33565605589665237,-7.3875860401484506,5.77338518795679
62,3.15,4.38,-15.4,-1.44,5.64,0.779,0.71,2.23,-5.86,-1.39,,,,,160,3150000000.0,3.7918396010551683,-15.699788108394735,1.0041353806976585,5.237273666585132,-0.7866834972968045,0.6956183580668011,1.151090286161363,-6.498675175331409,2.584103983695621
63,3.2,0.136,-19.5,1.37,5.5,1.24,0.902,-1.69,-10.2,-1.2,,,,,160,3200000000.0,2.351983493599758,-17.885331036545654,1.150398574480238,5.415815140413808,-0.1360160311377795,0.8158972131325105,-0.07187785600374408,-8.652496879911226,0.899345790510981
64,3.25,3.96,-15.6,-2.72,2.69,-2.69,1.08,2.56,-7.15,-7.52,,,,,160,3250000000.0,2.985302429848558,-16.57101267900326,-0.39688646937312244,3.5634273876822258,-0.9559735179671851,0.9698158666864847,1.0610332143821002,-7.778185516908055,-2.849113990736995
65,3.3,3.06,8.34,-14.0,-0.993,-0.0513,-1.98,0.862,16.3,-19.3,,,,,160,3300000000.0,3.014722120578918,-2.2444199836252015,-5.835058677003561,0.46700669234113423,-0.6655277609497426,-0.7493315189800727,0.9753579049063559,6.233046152567004,-10.17337449574782
66,3.35,-1.71,8.8,0.10300000000000001,-5.28,2.04,0.624,-4.21,17.4,-3.92,,,,,160,3350000000.0,1.1538855379068316,4.107345416857166,-3.461176727661359,-3.4384985879121146,0.20308288401943153,0.051043624444566005,-1.2567173914140453,12.731159430316083,-7.3892481342994785
67,3.4,10.6,-28.3,-17.7,2.98,3.55,2.35,9.7,-19.1,-21.2,,,,,160,3400000000.0,4.87424738660521,-14.530468723185612,-9.15348951793925,0.9233336889039618,1.2776118082102395,1.3908712041677957,3.459681758073426,-5.791572203658351,-13.538069216437172
68,3.45,1.83,-0.594,-6.89,-7.52,2.15,-1.4,1.56,9.06,-8.59,,,,,160,3450000000.0,3.6752675030202546,-6.515454937180596,-8.248605023144687,-4.814519908962702,1.5576923804344858,-0.2356434934277698,2.6419498102785606,2.8506417674942153,-11.335090697179899
69,3.5,1.15,-9.96,10.7,-0.531,-0.414,-0.779,0.373,-0.193,10.4,,,,,160,3500000000.0,2.6806883431980637,-8.496450050306757,-0.6734439439565012,-1.903559501815868,0.9246798336583686,-0.5523106777141018,1.665263748336547,1.0795294344516884,-1.6581972541491723
70,3.55,-3.16,-59.0,1.21,-9.71,2.21,-4.41,-4.7,-49.3,2.37,,,,,160,3550000000.0,0.38032732056024354,-37.5415874235398,0.0795081427141966,-7.208598325280834,1.3373323459217383,-2.8005649781996773,-1.0747105596135782,-28.23660277518986,0.13523603378627191
71,3.6,-1.74,-12.2,19.2,1.8,-0.695,-1.35,-4.65,-3.46,22.6,,,,,160,3600000000.0,-0.45476573476301485,-22.96736651737359,7.723385504275855,-1.0866066973124129,0.684851320245441,-1.9551783352359235,-2.6137201203016702,-13.818957737640263,10.136994832929568
72,3.65,1.69,-2.33,-0.74,3.31,4.82,1.62,-1.67,6.61,1.48,,,,,160,3650000000.0,0.38995243339754027,-11.098593959168799,4.33994334009385,1.9012043042114186,2.012442340880411,0.12842916250002556,-2.2074888656631915,-1.9312317971905202,6.2827289829273845
73,3.7,-0.373,3.16,-0.19899999999999998,1.93,-0.86,1.14,-3.25,12.5,0.485,,,,,160,3700000000.0,0.08946285037717033,-2.8983224297673633,2.525391438154648,1.9207730186768395,1.0902436933685822,0.7179708164409039,-2.6562454172161107,6.466383473744907,3.701465016410621
74,3.75,-11.8,-0.797,1.09,5.03,-1.96,3.19,-13.9,8.75,0.29100000000000004,,,,,160,3750000000.0,-4.593214147754551,-1.6898291859856784,1.9515591587319983,4.033716924822028,0.11096185026841066,2.158665005896247,-7.496201745452554,7.7952328251615794,2.1830583296862627
75,3.8,-18.1,-51.7,-7.14,0.48700000000000004,-1.89,6.75,-18.1,-42.4,-10.3,,,,,160,3800000000.0,-9.91287551484894,-30.451219325064404,-1.6830104935505084,1.623467214321391,-0.531447664240003,4.834486771565293,-12.060684514538506,-21.41365747875148,-3.3746469933930494
76,3.85,0.0718,-13.2,-2.2,2.85,-4.42,-0.885,2.4,-4.17,-5.24,,,,,160,3850000000.0,-5.980401002750144,-20.529856545788487,-1.889689517333742,2.4569845529941343,-1.7798688096465543,1.5011801873265118,-5.83597693598211,-11.379475867321268,-4.205139059518035
77,3.9,11.5,-0.0168,-14.6,-1.92,-0.0464,-0.773,12.9,8.9,-18.4,,,,,160,3900000000.0,0.9042725447981228,-8.732576039206164,-6.970942359638161,-0.5174917973484772,-1.2233380269075154,0.1757920687901542,2.2290613659138057,0.42126542904551023,-10.524972613140552
78,3.95,2.67,7.71,6.4,-3.06,2.75,-4.29,3.21,17.3,4.36,,,,,160,3950000000.0,1.5997061121604759,0.7237271595248806,-1.6255861303509658,-2.2453092780189805,0.05230357053187529,-2.4268634838742216,2.6513136002904574,10.243095940272926,-3.8978874214271437
79,4.0,-18.1,-5.76,10.6,3.8,-3.88,0.47200000000000003,-19.0,3.82,8.66,,,,,160,4000000000.0,-6.159043139062251,-3.0051345318701514,3.26188647956858,1.8629139278740774,-1.210163936724148,-0.7374110645951109,-6.668652880487787,6.505460104791344,1.6931331450856941
80,4.05,0.998,-3.76,-9.14,-3.84,4.02,1.86,1.13,5.78,-11.4,,,,,160,4050000000.0,-3.3402344774253443,-3.4392658150172775,-1.6960664251527682,-2.0126269409909634,0.46898206333930115,0.7763554343069912,-3.3116656445745463,6.083310895480852,-4.136189335225623
81,4.1,12.0,-9.61,-22.6,2.0,-0.6659999999999999,-1.99,12.6,0.0536,-24.2,,,,,160,4100000000.0,2.7015323277699403,-6.988121535124147,-10.052917407498892,0.7142421880273591,0.10459566241207352,-0.8358715362190552,3.537627509355901,2.574588076761508,-13.068996258356417
82,4.15,16.2,-35.2,-6.95,-2.53,-1.8,-5.3,14.9,-25.6,-8.11,,,,,160,4150000000.0,8.017917721526409,-23.213078167780274,-8.812451376888284,-1.4904541173285373,-0.5068754422346926,-3.4375576762721014,8.42864378460925,-13.820364039191958,-10.861152582449757
83,4.2,-2.86,-30.4,-1.29,-2.53,-1.27,-0.652,-5.86,-21.1,-0.7559999999999999,,,,,160,4200000000.0,3.7336389080263066,-27.34635436392096,-5.805170277131866,-2.196900427769373,-0.7518768488579534,-1.814139685105503,2.27799238159683,-18.056425532339716,-6.362138153879292
84,4.25,0.6920000000000001,-12.5,26.5,-3.21,2.09,-1.92,-2.7,-3.61,28.7,,,,,160,4250000000.0,2.5356863483752443,-18.808055523120338,7.109599475272855,-2.8853746100906714,0.16050870433786257,-1.875834860962902,0.13517908911188048,-9.649968880082898,9.248221741315358
85,4.3,-5.16,-1.7,4.26,0.9009999999999999,0.033,-0.8009999999999999,-9.34,6.79,6.85,,,,,160,4300000000.0,-0.4952674137286106,-8.969027930645789,5.970403555918196,-0.3122602265695713,0.11957198905827268,-1.2494230391921672,-3.9434811973856103,-0.08345818017018125,8.18048579776814
86,4.35,-6.12,1.29,4.49,1.02,1.68,2.19,-10.2,9.97,6.48,,,,,160,4350000000.0,-2.7105739650345337,-3.0689501192786395,5.378576493647149,0.5931065780363494,0.6205479443323504,0.7550665470708029,-6.636645447165826,5.766706058640598,7.423395790650789
87,4.4,1.56,2.14,5.66,2.05,0.0342,1.96,-1.55,11.3,6.97,,,,,160,4400000000.0,-1.0286041285672962,-0.07322655167937064,5.491082256212245,1.5831705996904963,0.43230072716268264,1.4572996156109428,-4.447061646995687,8.986561158695071,7.221534895655192
88,4.45,-1.09,-6.05,5.28,3.04,-0.337,1.36,-3.49,3.45,5.36,,,,,160,4450000000.0,-1.0527849675375052,-3.5105336631201416,5.406697125139202,2.5731911204985893,0.1853164490372218,1.4005935832043752,-4.035087457076955,5.764804985161248,6.392742685819584
89,4.5,-1.85,-58.8,-1.17,1.51,-0.23800000000000002,4.12,-3.28,-49.2,-2.49,,,,,160,4500000000.0,-1.3667689207078173,-35.30810283375015,2.7775040944385467,1.850676141315534,0.049410549611986626,2.985458678625001,-3.7100545197421377,-26.21952584681313,2.4379694000287015
90,4.55,-0.529,-18.6,-3.65,2.62,-0.319,2.26,-0.19699999999999998,-9.04,-5.89,,,,,160,4550000000.0,-1.0368127809841123,-25.699092547227025,0.20795451516511188,2.3734870577672966,-0.0688677912030314,2.5626626616996804,-2.1978344760774107,-16.22266272754306,-1.269807748274372
91,4.6,2.83,-4.54,-1.62,-0.622,-2.35,0.938,4.01,4.83,-4.28,,,,,160,4600000000.0,0.48613529881769746,-13.530269732844301,-0.522814322772875,0.3378377818417553,-0.8012260736948824,1.6158122020603722,0.4743734294815356,-3.971999453712238,-2.61000515579211
92,4.65,6.34,1.84,-12.5,-0.713,0.23600000000000002,-1.83,7.06,11.3,-15.1,,,,,160,4650000000.0,2.7916858696160194,-4.690661482171095,-5.310982717374541,-0.3762822068214404,-0.4682242705715398,-0.3924009684784491,3.309204585316742,4.914863375065611,-8.170798837679126
93,4.7,0.8809999999999999,6.42,4.82,-2.03,0.1,-1.51,0.8009999999999999,16.1,3.03,,,,,160,4700000000.0,2.0391603077815836,1.6992000541876342,-1.260878345379659,-1.50010258350388,-0.2857956643951045,-1.0437356657196255,2.2295295548529577,11.423557757673352,-3.1839809787332447
94,4.75,1.26,-9.43,13.4,2.69,0.40299999999999997,2.05,0.987,0.24600000000000002,11.8,,,,,160,4750000000.0,1.7322872317522149,-4.701323346918517,4.600160666262139,1.347374071175512,-0.06465757042011899,0.7592878807210361,1.6946736046297306,4.919273786653433,3.487184727190537
95,4.8,9.01,-2.94,8.65,-1.31,5.33,0.077,9.72,6.66,6.83,,,,,160,4800000000.0,4.598621828430156,-3.688367288207528,6.219181310765192,-0.45850304361053884,1.6672991513193454,0.361651732379311,5.14923423183583,5.932212110683968,4.97547237571451
96,4.85,9.71,-13.3,-15.7,-3.52,-0.259,-2.53,9.8,-3.62,-17.4,,,,,160,4850000000.0,6.6117432863655665,-9.216121244376481,-2.5435391732322383,-2.5390108031705063,1.0488601174006584,-1.3235976727753846,7.151190494032411,0.3737260120489463,-4.986531696075344
97,4.9,6.23,-32.6,-6.64,-0.9179999999999999,-0.95,-3.02,4.85,-22.9,-6.78,,,,,160,4900000000.0,6.461393315911974,-22.66444175121788,-4.181197981382633,-1.43741715173352,0.40712536421717804,-2.3122578827821436,6.1606261543795435,-13.169386351024759,-5.785019461653231
98,4.95,-5.48,-31.4,4.41,-3.53,-2.22,-3.46,-8.45,-22.1,5.49,,,,,160,4950000000.0,1.7582635192151308,-27.68835548679987,-0.7466597664646035,-2.859477954980167,-0.4363141846168447,-2.9811599438700678,-0.12862477783779802,-18.366161083414205,-0.7651571975066718
99,5.0,6.19,-10.3,17.6,-2.08,-0.581,-1.35,2.12,-1.81,20.2,,,,,160,5000000000.0,3.5037074199647873,-17.68812443825236,6.587859429799103,-2.329766468842253,-0.4827656080042714,-2.0305228801612216,0.8393121740536125,-8.732037428791166,8.568947085138252
100,5.05,-6.13,-2.27,2.24,-0.111,1.46,-0.42700000000000005,-10.8,5.87,5.11,,,,,160,5050000000.0,-0.290537999033591,-8.82099443755518,4.84969792664613,-0.8219547850100328,0.140959998909572,-1.0959926254540524,-4.1709150621211535,-0.23502946294110316,7.028955275131077
101,5.1,-6.92,1.27,5.08,0.6579999999999999,1.05,2.04,-11.5,9.6,7.57,,,,,160,5100000000.0,-2.9015583177670154,-3.0175544930506657,4.941766695825575,0.18378112169895178,0.4328076017178591,0.7316582065739632,-7.325773340784265,5.488029938516843,7.269839197653127
102,5.15,0.22,2.59,7.19,1.65,0.26899999999999996,2.57,-3.34,11.5,9.09,,,,,160,5150000000.0,-1.6721294296155615,0.20741064797051356,5.8405521212855795,1.1801824790655993,0.3802171104934632,1.8030404540630305,-5.610067983510715,8.98642926479932,8.0802109676447
103,5.2,2.15,-2.98,2.7,2.34,0.0122,0.7120000000000001,-0.489,6.42,3.62,,,,,160,5200000000.0,-0.16677986516256582,-1.6257036733280763,4.585040802878554,1.9683619947771862,0.2620650852099188,1.1671840496006576,-3.4056667678565353,7.4930096282743985,6.094436501201814
104,5.25,-12.7,-47.0,-0.56,2.24,-1.06,3.48,-14.7,-37.4,-0.894,,,,,160,5250000000.0,-5.10300116816311,-27.72095185557936,2.52818684431169,2.1529595981947445,-0.16238436580641746,2.5150890312780847,-8.267395128174694,-18.630487057558454,2.9830459197396335
105,5.3,-0.9790000000000001,-26.3,-1.32,2.27,1.3,2.72,-0.742,-16.6,-2.45,,,,,160,5300000000.0,-3.4787591419961945,-26.903746648285118,0.9897814649379282,2.2324969713951877,0.30711464359255775,2.6345107914830024,-5.028033683640503,-17.448935395289876,0.5641460608399353
106,5.35,3.51,-6.32,-1.23,-0.359,-0.635,1.49,4.84,3.23,-3.03,,,,,160,5350000000.0,-0.7262293160579847,-15.065811598870445,0.10237036260573851,0.47138805546259355,0.00464840270910627,1.9674919690037873,-0.7802662602542192,-5.415746110910689,-1.0360390622667008
107,5.4,7.44,-0.0431,-8.7,-0.306,-2.38,-1.46,8.67,9.52,-10.5,,,,,160,5400000000.0,2.4900483506028968,-6.426087806010145,-3.4165890816544753,-0.056903137633404044,-0.7609438582937448,-0.03004419992500007,3.2876700837962574,3.275449154370751,-5.249582241208763
108,5.45,3.05,5.72,4.35,-0.691,1.53,-2.64,3.17,15.4,2.93,,,,,160,5450000000.0,2.7105858531245457,0.5592584346088456,-0.31170810876381694,-0.4878176339506493,-0.025435520782389642,-1.5511218008729544,3.237018167429402,10.33079353258766,-1.6078699109188794
109,5.5,-10.2,4.58,7.74,1.4,-4.1,0.272,-10.9,14.2,6.21,,,,,160,5500000000.0,-2.374261318243325,2.8716303175638846,2.9071560077305008,0.795090455419726,-1.33357587639409,-0.48860969011207533,-2.848364656712155,12.582306513049353,1.8728009006443167
110,5.55,-3.62,-7.87,-2.52,-1.82,5.87,2.74,-3.42,1.7,-4.64,,,,,160,5550000000.0,-2.864896708141426,-3.3059972981770316,0.737519711044416,-0.9820519703208066,0.9791347034821563,1.3930182281872974,-3.094429308865936,6.249830932250716,-1.026827217930892
111,5.6,5.71,-6.02,-13.3,2.25,0.647,-0.0879,7.26,3.62,-14.3,,,,,160,5600000000.0,0.512335015137781,-4.866849571538076,-4.874316904304137,1.2143602232019948,0.8725027426498881,0.529941753165755,1.3627107058671561,4.719517396438953,-6.936307171455651
112,5.65,8.75,-30.3,-2.87,-1.94,0.9129999999999999,-6.19,9.14,-20.6,-4.0,,,,,160,5650000000.0,3.7567476693968516,-19.493728802897596,-4.0730429105173815,-0.929254869099938,0.8855043976545875,-3.386428231458056,4.710501979437632,-10.01405296904299,-5.6290049609999
113,5.7,0.124,-28.1,-6.47,-2.86,-2.7,-3.35,-2.01,-18.5,-6.73,,,,,160,5700000000.0,2.3259863387825535,-24.443288596614572,-5.031284143789842,-2.2413352306233145,-0.26562308943647017,-3.3651978681907875,1.8176126956834957,-14.952073463550395,-6.119189805117186
114,5.75,-9.25,-28.1,14.6,-3.54,1.55,-1.68,-12.5,-19.0,16.1,,,,,160,5750000000.0,-2.233227544289,-26.546303062552788,2.8167945820834612,-3.1238714884446357,0.3172833387719243,-2.3830675550449802,-4.34550852975315,-17.30758477234468,3.7732345051983707
115,5.8,-1.96,-4.96,5.6,-1.04,-0.598,-2.26,-6.32,3.35,8.45,,,,,160,5800000000.0,-2.1256166157008827,-14.131786907774817,3.9294479315639728,-1.7077306365119622,0.023431298069595763,-2.3113440000487633,-5.195442915208387,-5.286819602610665,5.855423207805497
116,5.85,-8.74,0.0,4.07,0.879,0.451,1.08,-13.5,8.07,6.98,,,,,160,5850000000.0,-4.73069808587344,-6.004443533409329,3.9856370741523226,0.05013921872881233,0.16070238465695216,-0.33487479954625843,-8.770200322395405,2.4855889678829914,6.356107116318073
117,5.9,-0.563,-0.28,0.34,1.28,1.42,2.64,-4.57,8.4,2.52,,,,,160,5900000000.0,-3.0892460047337886,-2.7122541933691853,2.5282058653575623,0.8859182155657769,0.5650003215715992,1.3988769370823517,-6.962193411587198,5.927217922115986,4.648196109461001
118,5.95,4.06,1.24,-1.02,2.5,-0.688,1.46,1.01,10.4,0.449,,,,,160,5950000000.0,-0.2735082849859416,-0.4392700888520409,1.1097251346946693,1.9828030878478526,0.16272411179966334,1.434499370301435,-3.5305043853659455,8.529954847503147,2.7786306879157543
119,6.0,-8.42,-19.5,1.41,2.56,-0.489,2.76,-10.8,-9.99,1.82,,,,,160,6000000000.0,-3.4820122851008968,-11.401301852061733,1.2297672296134778,2.37504993965486,-0.04651214547510826,2.2069987445339114,-6.659712085599315,-2.24691132081956,2.351829309321914
120,6.05,1.19,-48.6,1.32,2.17,1.2,4.49,-8.42,-9.72,0.865,,,,,160,6050000000.0,-1.6419355167282272,-32.79467428962633,1.265839973421149,2.235703783002127,0.3536810408434472,3.5375276311919412,-7.417440940885506,-6.595543976554667,1.6898634056607045
121,6.1,1.38,-15.6,-2.83,0.728,0.55,2.52,2.91,-6.08,-4.42,,,,,160,6100000000.0,-0.4517431705507253,-22.905831500400026,-0.37157065652855303,1.2111104175232636,0.41670931686149604,2.944514349162452,-2.9719183283490658,-6.295545981103975,-1.0303690390880758
122,6.15,4.89,-2.69,-3.11,-0.642,-2.32,0.53,7.22,6.7,-4.71,,,,,160,6150000000.0,1.6521077067316783,-11.279488362815476,-1.4663236881937123,-0.04821164700678038,-0.46191216862216466,1.5373397182844957,1.4152674559980634,1.266635495642178,-2.66861376548926
123,6.2,5.75,3.89,-3.76,-1.63,0.8109999999999999,-2.77,7.52,13.4,-5.14,,,,,160,6200000000.0,3.266066715322368,-2.5553516067760533,-2.3832760235704185,-1.1231508025391401,-0.05324326408825908,-0.9729701009904179,4.043094273198043,8.327108591640911,-3.7689238911224923
124,6.25,-1.12,7.03,3.19,0.535,-1.2,-1.78,-0.621,16.8,2.24,,,,,160,6250000000.0,1.5386099183736166,2.9572878128446654,-0.15522470136611677,0.003682160681526492,-0.4214099404177623,-1.443305656015889,2.035400744004388,13.257531501679248,-1.093631750655486
125,6.3,-4.23,-12.0,5.51,1.58,1.28,1.88,-3.98,-2.27,4.06,,,,,160,6300000000.0,-0.7333629177311087,-5.644810053301406,2.1095853876098696,1.0749037404083963,0.12482832149186113,0.49351089232985323,-0.5539725621760541,4.2219732533773975,1.2008673297532009
126,6.35,4.15,-5.27,9.9,-1.27,5.92,2.19,5.82,4.34,8.83,,,,,160,6350000000.0,1.18995452527639,-5.4292527300668185,5.223991075773499,-0.51862729605751,1.985370290151161,1.4822217222879521,2.1897506744576067,4.290653772484862,4.597508526181658
127,6.4,16.3,-18.3,-15.0,-1.6,-1.62,-3.35,18.2,-8.71,-15.9,,,,,160,6400000000.0,7.141060859343072,-12.831358141747149,-2.861036366511554,-1.2534979809533358,0.827864864932847,-1.3339883391551104,9.081480059945147,-3.274500090095385,-4.528388780104773
128,6.45,7.49,-21.2,-8.74,-0.595,0.28600000000000003,-5.83,6.76,-11.4,-8.73,,,,,160,6450000000.0,7.278490801323825,-17.644254953993908,-5.211293557604391,-0.8060011754509677,0.6538989601478593,-3.954255793412169,8.082182067650464,-8.002774147563398,-6.399029253351396
129,6.5,-4.65,-35.7,-5.66,-3.65,-2.47,-2.81,-7.43,-26.4,-4.55,,,,,160,6500000000.0,2.5804426429491807,-28.02830949905833,-5.39067470215835,-2.738703360759632,-0.3490299296854096,-3.2873855444434126,1.4048497827209276,-18.708223531857147,-5.575804829062983
130,6.55,-1.22,-11.9,13.1,-3.06,-1.09,-3.06,-5.0,-3.3,15.9,,,,,160,6550000000.0,1.0836344675679466,-18.75274418642916,2.001417932642801,-2.957047538689321,-0.5869186470130116,-3.154865625310239,-1.3521647057015245,-9.742091226039022,3.9856494011277768
131,6.6,-7.35,-3.42,6.31,-0.32299999999999995,0.355,-0.66,-12.1,4.43,9.79,,,,,160,6600000000.0,-2.2379609273459264,-9.934717346115686,3.723877345266871,-1.1670224539908536,-0.28451533128438333,-1.7008624473627372,-5.97864927325813,-1.4952714166241154,6.569861431824307
132,6.65,-8.26,0.898,3.65,0.821,0.904,2.38,-12.9,8.96,6.76,,,,,160,6650000000.0,-4.609747173843221,-3.704704528954406,3.694343135596801,0.18398203326722795,0.09705793669347546,0.6774569041115763,-8.957995210901098,4.588710080191269,6.6545149967180235
133,6.7,0.903,2.2,6.97,1.2,-0.621,2.2,-2.71,10.9,9.57,,,,,160,6700000000.0,-2.438546146108699,-0.30884511416778615,5.003865763681233,0.8744394814133034,-0.13347481860546662,1.5647923061182802,-6.2684999379052115,8.261285100209218,7.952546628910872
134,6.75,0.792,-2.8,-2.74,2.13,0.8340000000000001,0.9790000000000001,-2.02,6.43,-1.0,,,,,160,6750000000.0,-1.1661922931734265,-1.7415351837587605,1.908068942407927,1.727683398718053,0.1771333158602268,1.2233935889935785,-4.439702021824125,7.1956498598762675,3.966695246958434
135,6.8,-11.8,-57.0,3.21,2.19,1.01,6.17,-13.7,-47.4,3.89,,,,,160,6800000000.0,-5.354328247865375,-33.52127548360753,2.4285472494629476,2.041860879565495,0.4445254602108419,4.1062669410613655,-8.425865012868574,-24.573867964162865,3.9325490480479686
136,6.85,-1.39,-26.3,-6.25,1.93,0.7390000000000001,3.21,-0.479,-16.5,-6.66,,,,,160,6850000000.0,-3.7929735674968175,-29.36824147312812,-1.0409109998105226,1.9658433163213445,0.5390666239343532,3.5839242042000867,-5.005078778161206,-19.87563860549024,-0.7834638813931671
137,6.9,2.18,-7.39,-2.32,-0.0174,-2.12,1.79,4.41,2.11,-3.22,,,,,160,6900000000.0,-1.4405118834952733,-16.728317203984428,-1.5522576024260273,0.6180865836858891,-0.3146276318518394,2.5384283865788255,-0.952289241961525,-7.08207141673989,-1.8682581161642935
138,6.95,9.86,-0.268,-10.3,-0.129,-2.23,-0.848,4.67,2.01,-3.59,,,,,160,6950000000.0,3.0102059725853483,-7.26181089543679,-5.049378354681779,0.11038742470929619,-0.9295586231695817,0.5648240276005694,1.4678663642403826,-1.791343725121168,-2.6348117248081
139,7.0,2.95,7.28,3.19,-0.774,0.726,-3.38,4.2,17.0,2.32,,,,,160,7000000000.0,2.986493808401544,1.1013418260684116,-1.7554884237571127,-0.49061754587238304,-0.39804093038757593,-1.734212377838593,2.6439332116718615,9.143445296713764,-0.42883126883600786
140,7.05,-10.3,6.77,15.9,2.07,-6.28,-0.11,-10.2,16.5,14.8,,,,,160,7050000000.0,-2.2464052401455676,4.36144839271089,5.302718079301762,1.2495065318719352,-2.286446064927218,-0.7876243288581083,-2.8848318067650713,13.424266018463602,6.351346644187139
141,7.1,-3.33,-6.77,-3.69,-2.09,6.4,2.72,-2.45,2.86,-5.34,,,,,160,7100000000.0,-2.673180098056386,-2.0403678656987587,1.7076624524422201,-1.0199287203418277,0.5023405877437126,1.2566128295191406,-2.697655292017176,7.276859908536793,1.1461270884102914
142,7.15,9.41,-8.15,-21.6,2.23,-0.1,-0.0396,11.5,1.35,-22.8,,,,,160,7150000000.0,2.085792498038223,-5.554083114183698,-7.610137032420253,1.1886320258591256,0.30895892571309624,0.5011823270515986,3.4138293906243815,3.8279866747149716,-9.515163454166544
143,7.2,5.15,-34.2,5.23,-2.44,2.52,-4.9,6.08,-24.5,4.47,,,,,160,7200000000.0,3.2926337476302576,-22.028659933421444,-2.476983045402016,-1.2772849291497876,1.0188144488465602,-2.6466170613219577,4.56150201959718,-12.656228729596794,-3.2886913055219553
144,7.25,0.39299999999999996,-25.9,-2.7,-1.87,-3.37,-4.21,-0.9309999999999999,-16.2,-2.51,,,,,160,7250000000.0,2.1506100771900085,-24.25510922430179,-2.5661394624904137,-1.6800775300510127,-0.3902159660067954,-3.5577538445967845,2.197214308932062,-14.718369686247891,-2.9420024824536677
145,7.3,-8.02,-23.2,19.7,-4.31,0.6409999999999999,-2.38,-10.9,-13.9,21.2,,,,,160,7300000000.0,-1.8550951295380909,-23.64830494550444,6.3352862789409095,-3.467299303827903,-0.059143719295842945,-2.8713610917708383,-3.4405773303656764,-14.242155522791668,7.806496351163342
146,7.35,-3.32,-4.71,6.38,-1.83,0.0287,-2.24,-7.34,3.74,9.31,,,,,160,7350000000.0,-2.4320493624618935,-12.756681125034522,6.353161711426659,-2.3546364833853017,-0.03094146184019038,-2.5034049901124065,-5.119112437676911,-3.7782376795473223,8.475886192670929
147,7.4,-13.0,-0.316,4.54,0.76,0.0611,1.02,-17.4,7.76,7.88,,,,,160,7400000000.0,-6.594247368938278,-5.6019109706447905,5.628306639661665,-0.2380165798777445,-0.001391517964539856,-0.4499709185667644,-10.405510251352156,2.935928111786862,8.210585887981173
148,7.45,-0.175,0.486,4.33,1.21,1.59,3.08,-3.81,9.16,7.11,,,,,160,7450000000.0,-4.0660203237084165,-2.100687577911506,5.109277265703012,0.7460150463022805,0.5095253098913869,1.6072897309090024,-7.566424543466999,6.557750599917056,7.720583273950419
149,7.5,4.79,-2.77,0.591,3.22,-0.647,0.935,2.12,6.47,2.51,,,,,160,7500000000.0,-0.5780678112366857,-2.485616374214818,3.3029871332352303,2.427266100317391,0.13822243994813765,1.2154804879039414,-3.396832219244069,6.506687908239519,5.400728215704026
150,7.55,-11.2,-23.2,1.56,2.28,0.805,2.65,-13.4,-13.7,2.11,,,,,160,7550000000.0,-4.761526430931845,-14.39868269869634,2.6061860313366725,2.327188154715105,0.35229161684809607,2.0515159315950013,-7.702768874362788,-5.251697774718979,3.935630677762255
151,7.6,-0.395,-45.3,-1.74,2.25,0.621,5.72,0.0963,-35.5,-2.23,,,,,160,7600000000.0,-3.0417656007819707,-32.1703637936804,0.8686935018907331,2.274733241932575,0.4385605369518783,4.189501717525362,-4.345602569449319,-22.85335564125962,1.1905695625004813
152,7.65,-1.09,-15.9,-3.41,0.442,-0.0544,2.91,1.33,-6.48,-4.79,,,,,160,7650000000.0,-2.273060765532284,-22.81310152101841,-0.8418172941358968,1.0292589508771415,0.2802953796726926,3.44381047092836,-1.9024978654120321,-13.325607550061006,-1.4720986470709727
153,7.7,4.95,-3.79,-3.73,-0.644,-2.61,0.258,8.15,5.35,-5.26,,,,,160,7700000000.0,0.5717489195443313,-11.872710229687446,-1.9964378881603104,-0.10784106569456986,-0.6476349540690971,1.5871258581266434,2.4246732858659703,-2.458166117510382,-3.1585475850529257
154,7.75,8.24,2.45,-4.21,-1.57,1.34,-3.4,10.7,11.8,-5.55,,,,,160,7750000000.0,3.5918972436868377,-3.635564762138209,-2.8813626619496095,-1.1014834504314677,-0.009504029052476937,-1.3193621658641588,5.986848183861108,5.838741368167124,-4.223269732653818
155,7.8,0.4,7.8,6.74,0.544,-2.78,-2.25,1.36,17.5,5.89,,,,,160,7800000000.0,2.334765300568951,2.9411522276096598,0.9650086607072503,0.016741136577086202,-0.8989727441854715,-1.861736219539997,3.995187509225018,12.624493613105201,0.2793585449373319
156,7.85,-4.99,-11.7,4.44,1.49,1.57,2.3,-4.51,-1.99,2.93,,,,,160,7850000000.0,-0.5501008030814156,-5.479132537263633,2.354220152012223,1.017926693770668,-0.10630814303437364,0.5637161262213719,0.3340671682024472,4.120237251123758,1.4594767404335718
157,7.9,4.23,-5.92,14.8,-0.29,5.24,2.51,6.35,3.61,13.9,,,,,160,7900000000.0,1.3325467219797098,-5.732680223461728,7.329720426745585,0.12909627071951146,1.6101259287278133,1.6980068570865672,2.9236694662077336,3.8233272525180917,6.998244351622779
158,7.95,17.5,-21.3,-13.0,-0.6509999999999999,-0.975,-2.18,20.2,-11.9,-14.1,,,,,160,7950000000.0,7.7001144852648356,-14.685613625832719,-0.7975748696371863,-0.4010353692218521,0.7801703152396181,-0.5620885939233242,10.360392778653761,-5.326165437907018,-2.3951128027088586
159,8.0,0.8190000000000001,-18.3,-8.86,-1.64,-1.36,-5.45,1.16,-8.5,-9.28,,,,,160,8000000000.0,4.989980614336683,-16.76428585189446,-4.02072332783957,-1.2430010974816494,0.09306786397959177,-3.410754447202577,6.400016322927565,-7.173037691129603,-5.460401063476162
160,8.05,-3.95,-33.9,-8.21,-2.93,-1.26,-2.61,-5.39,-24.2,-7.53,,,,,160,8050000000.0,1.4689602230011767,-26.619221123480532,-5.695487573890622,-2.3894384507799744,-0.34133505557989735,-2.9440761363763217,1.3249175219158138,-17.081123647958357,-6.381827665249616
161,8.1,-7.31,-12.7,9.67,-2.68,-1.22,-3.27,-9.99,-3.54,11.8,,,,,160,8100000000.0,-1.9886420836519458,-18.614126519189746,0.4472361273995267,-2.5868960047309795,-0.6234307600530526,-3.134023965998407,-3.545671480242471,-9.201467312994541,1.7130828323026845
162,8.15,-7.32,-2.73,3.88,-0.508,0.304,-1.16,-11.2,5.8,6.78,,,,,160,8150000000.0,-4.088402838296613,-9.478993707550819,1.81956619489863,-1.1741363894224164,-0.3256787853186768,-1.983566334335843,-6.840533158215007,-0.472028664501293,3.9689749788065596
163,8.2,-9.61,-0.14400000000000002,1.57,0.8079999999999999,0.757,2.43,-13.5,8.45,4.32,,,,,160,8200000000.0,-6.263089308575591,-4.110337938516628,1.7197961197049854,0.17286812558018516,0.02191563603924085,0.5886522154839378,-9.707149424142525,4.7197500839772575,4.12525835917145
164,8.25,0.223,1.1,4.33,0.968,-0.192,3.45,-2.32,10.3,6.55,,,,,160,8250000000.0,-3.7085364973208597,-1.1138162676950984,2.763287946132146,0.7132175224806112,-0.04676205610660002,2.2562405788646576,-6.527296833454451,7.966929130832398,5.204801530608768
165,8.3,2.0,-3.21,-2.19,2.16,-0.0226,1.82,0.8,6.42,-0.765,,,,,160,8300000000.0,-1.4602236461376643,-2.3193542077599654,0.7830917876884063,1.696410519591629,-0.03900481956727203,2.002000385731127,-3.373208252302747,7.066762379025749,2.546927451863485
166,8.35,-25.2,-48.3,0.46399999999999997,2.53,0.897,5.64,1.93,6.59,-1.82,,,,,160,8350000000.0,-10.810158782924475,-28.763320081767056,0.6555271562390892,2.262894614876673,0.2614998679308472,4.122219931156767,-1.0904034499865758,6.789331747350969,0.602684685034147
167,8.4,-7.0,-26.1,-8.79,2.11,-0.29100000000000004,3.21,-4.0,-16.8,-9.49,,,,,160,8400000000.0,-9.30952390729251,-27.231616139350557,-3.120549765002414,2.1589916362316317,0.08411958458006877,3.590579820398877,-2.342860590432288,-6.937433153231492,-3.8907786784801672
168,8.45,0.254,-8.92,-2.35,-0.49200000000000005,-1.59,2.15,4.52,-0.154,-3.4,,,,,160,8450000000.0,-5.5429203773544815,-16.700407845930172,-2.8125039028678134,0.3574517977441012,-0.45335711870952244,2.7510125511033525,0.6113079957388812,-2.9901150971911297,-3.67227431599906
169,8.5,8.34,-2.56,-7.04,-0.86,-1.59,-1.29,12.9,6.04,-8.3,,,,,160,8500000000.0,-0.07511813871180006,-8.568106443956053,-4.502547253905048,-0.4698944298432942,-0.8182767337957669,0.3959177363281583,5.901065288594301,2.2645598455879115,-5.732629691702559
170,8.55,6.98,2.67,-2.15,-1.11,1.56,-4.59,10.2,11.9,-2.94,,,,,160,8550000000.0,2.703547256211926,-2.1049499327637173,-3.562059876078271,-0.9048922961413512,-0.054730154492866,-2.509866229802268,7.751573131923271,7.871476657442592,-4.489295571337753
171,8.6,-7.81,9.07,8.46,1.35,-7.64,-1.43,-6.45,18.7,7.64,,,,,160,8600000000.0,-1.4372239011779433,4.321884366915498,1.2440480753706087,0.6274695074964929,-2.4899837138146275,-1.8805221053201544,1.6384020685090093,14.172655979343295,0.9109074085420739
172,8.65,-7.68,-7.78,-4.81,-0.7909999999999999,8.08,3.13,-5.95,1.77,-6.22,,,,,160,8650000000.0,-3.8959474900837354,-2.638040239495054,-1.1762034061626103,-0.3364827339485277,0.9035133209114723,1.0396012205148861,-1.6280810857778034,6.955480420376794,-2.2639139569072326
173,8.7,7.31,-5.66,-9.71,1.44,0.8170000000000001,1.22,10.7,3.54,-10.1,,,,,160,8700000000.0,0.5175261970537917,-4.376001868642779,-4.587794110389346,0.8707653239221784,0.8757381791973612,1.1447373209785163,3.678631607745859,4.967993055530744,-5.752695104785028
174,8.75,18.3,-34.1,-7.45,-3.08,0.39,-4.38,21.4,-24.8,-7.88,,,,,160,8750000000.0,7.521171120832355,-21.470593546804093,-5.732029762698166,-1.814064327123151,0.7197917581023797,-2.0750697064517802,11.306924232532879,-12.35416974903449,-6.699813501821828
175,8.8,-9.06,-28.4,-7.24,-1.58,-4.1,-4.31,-8.98,-18.7,-6.52,,,,,160,8800000000.0,0.9906600030422128,-25.45576986547245,-6.334877086677823,-1.6550007809230616,-0.8276040824577965,-3.377583023122776,2.5742693428814807,-16.046844648727976,-6.619756954733895
176,8.85,-15.4,-25.0,17.2,-3.28,2.46,-0.866,-10.2,-18.9,-5.29,,,,,160,8850000000.0,-5.464817803545524,-25.193651690286476,3.0737570722306344,-2.7593048172382613,0.22788239862085147,-1.913836958608008,-2.924508353121632,-17.707111636430408,-6.027722758495375
177,8.9,-6.0,-5.33,10.5,-1.38,0.865,-2.29,-7.94,3.71,13.7,,,,,160,8900000000.0,-5.675599850849201,-13.76985089075682,6.0425765124258355,-1.8219678073573646,0.4324292359253217,-2.133064079437805,-5.083463483040186,-5.244373418007902,2.755450736022188
178,8.95,-12.9,-0.20800000000000002,3.73,0.745,0.6970000000000001,0.604,-15.5,8.58,7.22,,,,,160,8950000000.0,-8.520936978392363,-5.970283881604839,5.118068370532187,-0.07752822077055388,0.5173697831170656,-0.5379080794526134,-9.567337901752854,2.8001074909669335,4.743156553704219
179,9.0,-3.93,2.74,5.51,0.7659999999999999,1.3,3.8,-5.76,11.9,8.51,,,,,160,9000000000.0,-6.712791850084102,-0.9609054828571919,5.274752568937447,0.4957099656807845,0.7686334794048393,1.9902169089841342,-7.928441521272452,8.095386103924142,6.420230093854219
180,9.05,4.69,0.606,3.74,2.0,-1.93,2.03,4.49,10.1,6.21,,,,,160,9050000000.0,-2.2217907683545546,-0.05976120238898219,4.661198275258185,1.517983432912689,-0.09776374941102006,2.0134024061057074,-2.582832533047352,9.261882471388022,6.32663150198957
181,9.1,-15.0,-15.3,3.27,2.15,-0.133,2.3,-14.4,-5.58,4.6,,,,,160,9100000000.0,-7.25450134909614,-8.824587347448851,4.105033255940823,1.9474842938742145,-0.10907636071100471,2.1804309398812745,-7.669618636084504,0.6253072987313146,5.557900857658327
182,9.15,-7.68,-47.4,-1.85,2.84,-0.516,5.55,-4.43,-38.1,-1.71,,,,,160,9150000000.0,-7.422084353862556,-31.009724930013345,1.7243653004234276,2.554012966471994,-0.23971933220540256,4.1442098307576964,-6.275100998213084,-21.909166798833894,2.3220871802529817
183,9.2,-7.02,-15.4,-4.94,0.6970000000000001,0.7979999999999999,2.98,-2.22,-6.91,-5.93,,,,,160,9200000000.0,-7.263723018456132,-22.032403207439806,-0.9398752344979853,1.2920388701725296,0.09344082423816027,3.465710449224728,-4.529553092410133,-13.18106685471887,-1.3519056812830055
184,9.25,2.19,-5.65,-3.74,-0.733,-1.92,1.04,8.0,2.16,-4.93,,,,,160,9250000000.0,-3.5403646598739975,-12.610706131337281,-2.0592925425450694,-0.08412093935631604,-0.5529750601499301,2.052010745836413,0.8638847837484427,-4.254013376339985,-2.9449441866331405
185,9.3,16.2,-2.2,-8.0,-1.15,1.1,-3.86,21.8,5.78,-9.21,,,,,160,9300000000.0,4.234398151574007,-6.6233965530349055,-4.434233405609783,-0.8084625448594899,-0.02228681706784308,-1.3934984082961126,9.875988554671059,1.5848357880270463,-5.734271353399715
186,9.35,-1.39,7.97,8.78,0.84,-2.93,-4.17,2.15,17.1,8.03,,,,,160,9350000000.0,2.019223278272025,1.76942339632049,0.8484745007520464,0.3117865135529051,-0.9558091978999415,-3.0116385799860383,6.550280248888477,10.613197673693376,0.3938552239039961
187,9.4,-9.08,-8.45,2.85,0.584,3.66,2.54,-6.72,0.875,0.9359999999999999,,,,,160,9400000000.0,-2.352216962999922,-4.107877331590877,1.648632479272405,0.49677518561390865,0.5260980267809865,0.22384636381731138,0.8379910345699404,4.946485459153529,0.6352288299602868
188,9.45,11.8,-6.87,27.5,2.02,4.63,2.09,15.9,1.99,26.6,,,,,160,9450000000.0,3.2216480222568675,-5.6964038629263065,11.983339167115684,1.5319161872509581,1.8436572627143806,1.3114372920604371,7.321542920947001,3.2260898817757386,12.19526027804598
189,9.5,7.66,-21.5,-17.4,-2.21,-0.304,-2.1,11.9,-12.7,-18.5,,,,,160,9500000000.0,4.969697360515839,-14.785222792479368,0.23664191345205055,-1.0109855049483323,1.154151132015512,-0.6767421622479357,9.29237313212635,-6.041391638534186,-1.4708786062285064
190,9.55,5.8,-25.2,-7.99,0.298,0.0757,-5.62,8.23,-15.7,-7.7,,,,,160,9550000000.0,5.29671296678048,-20.77487415688948,-3.052156204011144,-0.12143553239368143,0.8079140095810633,-3.5576638606938564,8.835066641137914,-11.661790271885936,-4.2442069545326016
191,9.6,-8.73,-30.1,-5.87,-2.72,-0.91,-3.57,-8.82,-20.3,-5.28,,,,,160,9600000000.0,-0.22772188770022694,-26.137855026263324,-4.178657071620594,-1.8873473424624239,0.256377092746895,-3.5648533015583808,1.2353140577715136,-16.688412845684788,-4.705362662409669
192,9.65,-10.1,-12.9,7.26,-2.39,0.905,-2.69,-11.5,-3.36,9.28,,,,,160,9650000000.0,-4.115928719419442,-18.524621318383392,0.39422163619496065,-2.2289361122820495,0.4646177003781855,-3.054990406349935,-4.246695132609536,-8.93253408882154,1.5211981522214613
193,9.7,-12.2,-2.02,4.13,-0.746,0.436,-1.24,-14.8,7.05,6.82,,,,,160,9700000000.0,-7.299848263370642,-9.03263522003705,1.8876890433823559,-1.2211741681840649,0.45542997404826735,-1.9972172718454984,-8.789442571353211,0.36779285626854374,3.880329942015485
194,9.75,-10.5,3.79,4.57,0.579,1.08,3.5,-12.7,13.0,7.24,,,,,160,9750000000.0,-8.560231249198402,-1.6581991513679695,2.9600075090911844,0.0021738848155719026,0.6559484184813801,1.2065510538171254,-10.472770569429732,7.7185455228891895,5.376121607371148
195,9.8,3.08,1.35,2.39,1.33,-2.0,3.46,2.7,10.9,4.63,,,,,160,9800000000.0,-3.9757144734771837,0.07184870421938783,2.732133323037066,0.9045274333692463,-0.19674477306798122,2.519857063471874,-4.802454999808547,9.569851625708273,5.043933515315137
196,9.85,1.3,-3.34,-1.05,2.53,-0.188,1.52,2.24,6.35,0.188,,,,,160,9850000000.0,-1.8978690312608002,-1.8903423084220328,1.2201344694457126,2.00915314345347,-0.19393725847399726,1.9371421564853315,-1.7709786727275687,7.696201727830738,2.881975567412131
197,9.9,-32.9,-60.9,1.75,3.01,1.69,6.76,-30.8,-51.3,1.8,,,,,160,9900000000.0,-14.108090150885229,-35.82743504796149,1.431960974866997,2.6893006902155197,0.4109014918647472,4.747895155215357,-14.266733139365392,-26.63402074468172,2.400258556663283
198,9.95,-9.03,-20.4,-9.42,1.61,-0.541,2.69,-4.55,-11.7,-10.5,,,,,160,9950000000.0,-12.108079123290908,-26.95495020658186,-2.906371779163309,1.955838113866008,0.1052931740188845,3.5485575983283137,-10.084094290944886,-17.943829635137032,-3.3431924999971687
199,10.0,-0.16,-8.07,-3.37,-0.955,-1.75,2.04,5.41,-0.109,-4.72,,,,,160,10000000000.0,-7.402316120725087,-16.094011075627954,-3.0917182792275213,-0.022286108367656876,-0.4903493643698925,2.6693729246700615,-3.414548013735513,-7.56564156184038,-3.9561744220998722
200,10.0,9.45,-2.63,-6.13,-1.36,-0.9540000000000001,-1.38,15.2,5.22,-7.54,,,,,160,10000000000.0,-0.7650145119189489,-8.350712864869834,-4.306344607090307,-0.9313590940209197,-0.6392045658698577,0.30940567978405165,4.598220401520471,-0.12560466301998385,-5.551764657192494
201,10.1,5.7,3.04,3.46,-0.698,1.37,-4.82,10.1,11.8,2.71,,,,,160,10100000000.0,1.7812378923922698,-1.7997908175925854,-1.201561315418218,-0.7727747847613413,0.0058512815598414925,-2.6800028124897923,6.966501880620011,6.813972141125727,-1.873463097506475
202,10.1,-11.5,7.89,6.41,0.715,-6.58,-1.2,-8.94,17.3,5.11,,,,,160,10100000000.0,-3.449591033217802,3.7729125234056067,1.8413435518526775,0.23827536259690718,-2.1085386080218016,-1.8174598666136514,0.11943185152892255,12.915850519200703,1.2357132881589856
203,10.2,-3.44,-5.69,-3.58,-0.541,6.34,3.67,-0.16899999999999998,3.43,-5.09,,,,,160,10200000000.0,-3.4458136176577305,-1.6693107684017994,-0.3259690527524435,-0.29129840140473284,0.6038677887228601,1.3806219053167008,-0.00472575089850015,7.395980577623212,-1.5806198408094132
204,10.2,4.17,-5.2,-14.1,1.38,1.09,0.483,8.84,3.36,-15.1,,,,,160,10200000000.0,-0.44631772087847965,-3.6998481923293016,-5.832469766005653,0.8444692815087473,0.759940720081811,0.8574894814705334,3.802551279676605,5.04742062868035,-7.599716288418463
205,10.3,5.88,-39.0,4.01,-3.7,0.9079999999999999,-3.47,10.2,-30.3,3.2,,,,,160,10300000000.0,2.045308932729406,-24.001346989365924,-1.8977053710659142,-2.243825071238918,0.8074752025092201,-1.6645636112899007,6.5563798444926125,-15.521442585788968,-2.7914683041034136
206,10.3,-10.3,-24.1,-5.86,-1.56,-2.69,-5.58,-8.57,-14.4,-5.72,,,,,160,10300000000.0,-2.8169035042306474,-24.058083621322382,-3.4817281175550434,-1.779116624661436,-0.3153904829957105,-3.9464728425502615,0.045119009026652,-14.868868590742464,-4.095308625160314
207,10.4,-17.8,-24.9,9.16,-2.52,2.05,-1.62,-17.8,-15.2,10.3,,,,,160,10400000000.0,-8.718010855027028,-24.54227860999118,1.5721070592760311,-2.2826002482608403,0.44401896393164053,-2.5906086626180365,-7.636442810706346,-15.06155571658371,2.313768469414753
208,10.4,-10.1,-5.98,8.77,-1.7,0.745,-2.7,-11.3,3.5,11.0,,,,,160,10400000000.0,-9.262308822458778,-13.86691158786164,4.449638276303096,-1.88668143375941,0.5406490349529991,-2.6543617648228053,-9.213447911302898,-4.260481634449741,6.181051085775056
209,10.5,-11.3,0.836,7.13,-0.304,0.221,-0.45399999999999996,-13.4,10.0,9.89,,,,,160,10500000000.0,-10.06485562095789,-5.411108223239452,5.5211774663375275,-0.8111353556137173,0.4380255979985836,-1.3719948888646325,-11.015579749663072,4.037773152620003,7.832348882543576
210,10.5,-7.22,4.56,3.97,0.653,0.431,2.94,-8.84,13.9,6.48,,,,,160,10500000000.0,-8.944406285637529,0.3233838418504513,4.9010569320231125,0.18385011222039926,0.43577002540635307,1.1410279999044977,-10.079085581441625,9.776658421698343,7.230256337285331
211,10.6,1.92,-0.48100000000000004,4.05,1.86,-1.22,2.01,1.75,9.11,6.07,,,,,160,10600000000.0,-4.665448940361529,-0.13922600222338377,4.560826505571838,1.3229147426525327,-0.09581554380381047,1.6474633110024577,-4.987169074545978,9.388725921942223,6.713687272318206
212,10.6,-8.17,-10.2,7.02,2.09,-0.28800000000000003,2.08,-7.39,-0.475,8.06,,,,,160,10600000000.0,-6.045719936306542,-5.925285746491469,5.543940321192508,1.8442043876401253,-0.15751642835725246,1.8995448698970672,-6.021485183641486,3.648968114400411,7.313092596985391
213,10.7,-7.79,-59.3,0.7879999999999999,2.67,0.5,6.94,-4.61,-50.0,0.546,,,,,160,10700000000.0,-6.732706381841023,-36.62166030104792,3.642638646024663,2.405392059303021,0.053579456596965475,4.837113075318803,-5.413901108228735,-27.569669368445982,4.300248712186671
214,10.7,-7.55,-16.7,-6.04,1.0,0.643,3.2,-2.59,-8.4,-7.41,,,,,160,10700000000.0,-7.054598371949324,-25.16449860521641,-0.2282293030913487,1.4503268920102799,0.24281313542677027,3.8830065512180867,-4.198332161256833,-16.414730296507535,-0.9133862834192286
215,10.8,1.7,-6.11,-4.02,-1.11,-2.87,1.02,7.65,1.51,-5.68,,,,,160,10800000000.0,-3.6065909635624718,-14.206050610175904,-1.7440809404011026,-0.28959972057988326,-0.756556600480412,2.2144514782648197,0.901869217904772,-5.984228527797191,-3.0355772054855583
216,10.8,15.2,-2.23,-7.28,-1.31,1.42,-3.96,20.7,5.71,-8.97,,,,,160,10800000000.0,3.8004037611512946,-7.318494488797325,-3.957197977673152,-0.9830351946667203,-0.05777233767494816,-1.3840077454468727,9.424119913090596,0.8207091079700026,-5.677700094246227
217,10.9,0.7090000000000001,7.93,12.3,0.451,-0.584,-4.57,4.17,17.1,11.5,,,,,160,10900000000.0,2.582851271655618,1.451079385065916,2.542008476373308,-0.0085049496622851,-0.22671791448978246,-3.2407983935415112,7.162445556100084,10.29372062351931,1.970152801410273
218,10.9,-15.6,-9.88,6.86,0.5660000000000001,-1.19,2.18,-13.6,-0.45799999999999996,4.98,,,,,160,10900000000.0,-4.578483172306602,-5.06554689126577,4.268229621979131,0.38191254818432513,-0.5359799916189684,-0.08156681361973339,-1.7749013305352461,4.037233678966645,3.3101964995069446
219,11.0,2.76,-5.21,12.9,-0.563,5.06,3.05,6.57,3.75,11.7,,,,,160,11000000000.0,-1.6882141846614482,-5.148623457157468,7.718987537967759,-0.26022362815877004,1.2606113717166156,1.7435046576840354,1.8172226265453628,3.8700907792672,7.045503390678877
220,11.0,5.15,-10.2,-11.9,-0.24600000000000002,0.111,-0.872,7.25,3.45,11.8,,,,,160,11000000000.0,1.005023399463473,-8.053724588008949,-0.1241750186127284,-0.2505576525845933,0.8915282293070994,0.21919326588046428,4.155801428408379,3.6256376104524155,9.162299697530067
221,11.1,11.8,-35.2,13.3,-1.53,2.49,-6.21,15.2,-26.0,13.4,,,,,160,11100000000.0,5.256635885330992,-23.665841388867005,5.242462286109624,-1.120030896127099,1.404718167184336,-3.527729012869197,8.909857492483379,-13.613688200748793,11.049007780331003
222,11.1,-7.67,-28.7,-10.5,-2.49,-2.24,-2.73,-7.09,-18.9,-10.0,,,,,160,11100000000.0,0.16546728743761907,-26.561040849584742,-1.0509661037397757,-2.0510236193486553,0.23458009041277705,-3.062813991977652,2.0226016103604882,-16.68982266471911,1.6775718942532283
223,11.2,-8.28,-14.8,9.15,-2.53,1.01,-1.07,-8.47,-5.18,11.0,,,,,160,11200000000.0,-3.1607884078952355,-19.7971392638795,3.027115591082577,-2.3765225623398947,0.48352892720644824,-1.9014056170367832,-2.494015699736912,-9.992191764260083,5.828101848316531
224,11.2,-8.34,-2.69,6.05,-1.01,0.767,-1.62,-9.59,6.62,8.86,,,,,160,11200000000.0,-5.200626171927478,-9.95863862748115,4.235586503252165,-1.4478720124243658,0.5745374229892428,-1.7374029330121499,-5.548534167743743,-0.3254636399577695,7.177962906885885
225,11.3,-10.6,2.74,2.7,1.11,0.364,1.43,-12.2,12.0,5.53,,,,,160,11300000000.0,-7.327175144568411,-2.6555143118117357,3.6216988394989653,0.29038633260523694,0.5069443055166684,0.10855376135444783,-8.411706258429083,6.846793249743013,6.444257217787267
226,11.3,2.0,2.53,3.64,1.13,-0.451,2.66,1.53,12.0,5.98,,,,,160,11300000000.0,-3.6536578161583178,0.32673099285450924,3.6290152110536833,0.8609643132117495,0.19939594133049593,1.5955320841597762,-4.132226013756401,9.845473356085032,6.23756070183739
227,11.4,-0.132,-3.84,-2.03,2.25,-0.415,1.8,0.505,5.82,-0.461,,,,,160,11400000000.0,-2.266649336688562,-2.069600982073085,1.3666876182981973,1.80491414685171,0.002143906868095069,1.7146955894791986,-2.136098122145163,7.503027779620922,3.255228576782234
228,11.4,-32.7,-42.8,-1.68,2.77,0.114,6.42,-30.8,-33.2,-1.23,,,,,160,11400000000.0,-14.252855459453484,-25.494093196204815,0.14870089719832458,2.4607595086289904,0.03805534567240999,4.456938570243629,-14.474684248197565,-16.18229436515046,1.258315816849588
229,11.5,-11.4,-23.5,-6.68,1.68,-1.6,2.97,-6.91,-14.9,-7.34,,,,,160,11500000000.0,-13.12925531207228,-24.34726864869298,-2.5812366583643316,1.9301771306489188,-0.4878429177299828,3.590353466123708,-11.21841045555153,-15.436119811419413,-2.569825047401395
230,11.5,-1.84,-9.76,-1.98,-0.833,-0.8690000000000001,3.08,4.04,-1.98,-2.95,,,,,160,11500000000.0,-8.6829707459165,-15.9579729343189,-2.340877833552706,0.05239917169976027,-0.6102135412499766,3.292920340738347,-4.6503159618178875,-7.605927722221638,-2.7390865003789826
231,11.6,3.96,-4.02,-6.03,-1.22,-2.4,-0.264,10.4,3.28,-7.22,,,,,160,11600000000.0,-3.703523964016407,-9.092315673896387,-3.8156933404535347,-0.8122877653460341,-1.184825155844195,1.2199535729260318,1.8282025855324093,-1.2713449282589693,-4.734078000443548
232,11.6,12.6,-0.381,-3.83,-1.27,2.78,-5.67,18.1,7.69,-4.73,,,,,160,11600000000.0,2.7176355262903904,-4.082343892728839,-3.8214127416226007,-1.123336195463176,0.08808337210428707,-2.795499005182467,8.8325170968747,3.943312320392052,-4.732262402228517
233,11.7,-4.37,7.76,11.8,0.828,-6.68,-4.35,-1.37,17.1,11.1,,,,,160,11700000000.0,-0.07383682190971541,2.728316193065192,2.42362325409993,0.20273735552975158,-2.0848121648342963,-3.7014593297596226,4.440768902640211,11.599263394377914,2.3165751086591406
234,11.7,-8.27,-10.2,-3.09,0.716,6.15,3.82,-5.97,-0.7829999999999999,-4.78,,,,,160,11700000000.0,-3.301904128046635,-4.706898057542795,0.21941962016559646,0.5515363185976461,0.5589772623625362,0.6820335827333861,-0.04062271394174388,4.3939544112911655,-0.8429610225348889
235,11.8,10.0,-8.25,-6.16,2.83,5.35,2.41,14.4,0.5,-6.67,,,,,160,11800000000.0,1.937064215298455,-6.744574275324461,-2.3309069334788397,2.099916508864605,2.097136798592674,1.6890893487083454,6.17544891038739,2.1280403515536523,-3.437274420480508
236,11.8,11.1,-31.0,-5.48,-2.56,-0.0727,-2.78,15.8,-22.4,-5.78,,,,,160,11800000000.0,5.545895856585624,-20.694131740516685,-3.589832727104323,-1.0668324819236816,1.400509916396249,-0.9154878583120185,10.318407484696085,-12.144964608354968,-4.480302422677463
237,11.9,-8.1,-22.0,-2.96,-2.17,-1.86,-5.05,-5.61,-12.5,-2.54,,,,,160,11900000000.0,0.17144587411968537,-21.445150689200865,-3.3380419428229566,-1.816514349054537,0.353722034695668,-3.3250741994811244,3.461907789827544,-12.351561707514673,-3.6164412705994815
238,11.9,-22.1,-25.3,3.66,-2.58,1.55,-1.73,-21.3,-15.6,5.07,,,,,160,11900000000.0,-8.600185673541954,-23.662115748827777,-0.5404061234665183,-2.3353578086097087,0.7377874888505331,-2.3954678398335143,-7.197036408719759,-14.241846514693288,0.2509348026035503
239,12.0,-10.5,-5.58,9.06,-2.27,-0.0202,-2.77,-10.6,3.86,11.7,,,,,160,12000000000.0,-9.348429460201148,-13.262895522476903,3.2975875775345647,-2.290942455458292,0.4944353341723473,-2.6137444971382613,-8.661867168960569,-3.708279874001777,5.348285698436532
240,12.0,-11.1,-0.0814,5.64,-0.203,0.0489,-0.691,-12.2,9.08,8.93,,,,,160,12000000000.0,-10.038287432361816,-5.68207499344131,4.234023297188407,-0.8720351100676977,0.35139605571367005,-1.4931724581343742,-10.184882271921511,3.733292351255754,6.942936104269453
241,12.1,-6.53,4.63,6.05,0.6459999999999999,0.00122,2.73,-7.31,13.9,9.12,,,,,160,12100000000.0,-8.656544974936757,0.24851084477966356,4.960003790547437,0.15957914530662576,0.23897190752879624,0.9680848557404433,-8.94736812204446,9.64935671794521,7.912208093675168
242,12.1,4.14,-1.3,2.96,1.77,-1.58,2.17,4.74,8.16,5.46,,,,,160,12100000000.0,-3.6166128958102446,-0.6420544495489106,4.160454128848806,1.2539761390862805,-0.34500968901509543,1.6685588816558121,-3.05554038681436,8.78269154510139,6.820436414385848
243,12.2,-7.57,-9.21,6.86,2.32,-0.512,1.9,-6.02,0.382,8.22,,,,,160,12200000000.0,-5.173658457693184,-5.569572552238806,5.239662651422661,1.978416117642198,-0.39862199600761644,1.8034423347113846,-4.331613726326477,3.8942816988052558,7.443550009591582
244,12.2,-12.6,-48.3,1.2,2.65,-0.0525,5.45,-3.78,-0.165,7.1,,,,,160,12200000000.0,-8.098530706884107,-30.14430273088537,3.624710247298694,2.4348058202817366,-0.2874994046255158,3.928649463510486,-4.0941675463276175,1.5321627531022912,7.290594686667184
245,12.3,-9.26,-19.0,-5.83,0.9259999999999999,0.841,3.19,-4.01,-10.8,-6.74,,,,,160,12300000000.0,-8.555976648377284,-23.735093792704028,-0.15503782047983083,1.409463550463376,0.07480574022571895,3.498165919816199,-4.0579371082187174,-5.643992499354546,1.0438956604280545
246,12.3,1.48,-6.54,-4.22,-1.53,-2.69,1.28,7.87,0.826,-5.25,,,,,160,12300000000.0,-4.603297126017385,-13.846009501398028,-1.7801042553802517,-0.5881137103914031,-0.8128361518508407,2.2054227999419815,1.07653071295554,-1.8790673446098523,-1.7582715614625877
247,12.4,15.9,-2.36,-6.19,-1.49,-0.11199999999999999,-2.95,22.1,5.17,-7.27,,,,,160,12400000000.0,3.4719469551974376,-7.240281246302402,-3.5430662959542376,-1.2010104344553285,-0.5878324552546765,-0.7991483508496784,10.126237175919607,2.2228247912478314,-4.212202409107831
248,12.4,3.46,4.05,8.87,1.0,-2.11,-5.53,7.75,12.8,8.33,,,,,160,12400000000.0,3.4672416498798335,-0.7471183766059086,1.419355826584071,0.29473474560400015,-1.076524857305469,-3.556280294089326,9.103368483571407,8.37774288184263,1.3718349126899616
249,12.5,-14.1,-7.54,7.57,1.16,-2.87,1.17,-12.0,1.85,5.73,,,,,160,12500000000.0,-3.4516343242801706,-4.6537779876657055,3.8782240159225827,0.8827448084140913,-1.6523206578429166,-0.8018126756332284,0.019268990607661962,4.579212452876834,3.3121764861098306
250,12.5,2.07,-3.63,8.31,-0.684,5.36,3.24,5.98,5.27,7.03,,,,,160,12500000000.0,-1.2769331085572615,-4.064992268699212,5.6499333539899155,-0.18197118825111025,0.5989874451846631,1.5537484780669546,2.5851093092057473,4.981185616086025,4.967425371282303
251,12.6,4.31,-9.67,-11.5,-0.131,-1.35,-0.153,9.11,-1.22,-12.8,,,,,160,12600000000.0,0.9234861029019115,-7.288492832754544,-1.2061654882641992,-0.14733259133395568,-0.02673568019296446,0.5590585405338788,5.39379613772095,1.372680673497213,-2.9429850030581477
252,12.6,9.32,-35.1,8.75,-1.4,3.79,-5.14,13.3,-26.2,8.36,,,,,160,12600000000.0,4.230461441101666,-23.283190288964626,2.774051418030531,-0.9986103380166822,1.1986286654659999,-2.7623424351966372,8.797079565443058,-14.672018347714237,2.089328024020088
253,12.7,-7.13,-27.3,-8.96,-1.97,-1.27,-3.47,-5.74,-17.6,-8.85,,,,,160,12700000000.0,-0.24386778893590666,-25.59330052509044,-1.9169182168416778,-1.658739624511489,0.40607455387440494,-3.1747640061621203,2.539487317398252,-16.375827626453457,-2.781078023555855
254,12.7,-9.47,-18.5,5.42,-2.17,0.203,-1.86,-9.32,-8.76,6.68,,,,,160,12700000000.0,-3.8775893613477117,-21.51386673506774,1.0161915496506402,-2.0061779394496932,0.34087739370311015,-2.408521919569256,-2.5655157079911906,-11.944134659876163,1.4311815483689774
255,12.8,-9.2,-1.68,6.55,-1.52,1.68,-2.41,-10.4,7.8,8.74,,,,,160,12800000000.0,-5.973826078926827,-10.107195598885225,3.228464812424957,-1.6757849859550926,0.7708031695081048,-2.4093833922042736,-5.937926675214961,-0.45491110203834495,4.6852124315488695
256,12.8,-15.2,4.17,7.0,0.336,-0.22899999999999998,0.9520000000000001,-17.1,13.4,9.61,,,,,160,12800000000.0,-9.60756389857705,-1.8962260709376846,4.736226825216573,-0.30863213552935287,0.44981600295531027,-0.45037519222272615,-10.742723036248456,7.607339680125982,6.877825414284899
257,12.9,2.33,4.71,5.72,1.08,-1.03,2.96,1.48,14.2,8.13,,,,,160,12900000000.0,-4.905942359316507,1.9030859585757613,5.12951375799858,0.6350434851170954,-0.025279445920735277,1.537185350025002,-5.481362396314454,11.443645835732472,7.435318434532919
258,12.9,1.87,-4.51,-2.28,2.28,-0.28,1.64,2.26,5.15,-0.63,,,,,160,12900000000.0,-2.237230632029044,-1.7851492147265602,2.1673822177085538,1.7529099419194925,-0.1070575714732448,1.5971055345264837,-2.1490362708752175,7.7813378413839684,3.844478649867718
259,13.0,-35.4,-37.6,1.3,2.76,-0.461,4.48,-34.1,-27.9,1.91,,,,,160,13000000000.0,-15.298421362171425,-22.382656078638934,1.820625269865129,2.437300193966534,-0.22069091353758968,3.2772512480901135,-15.902561911872326,-12.981833906651413,2.9832103591140173
260,13.0,-12.4,-27.3,-6.76,2.21,-1.91,3.09,-8.29,-18.4,-7.34,,,,,160,13000000000.0,-14.156875038094217,-25.210673271290773,-1.6096864015262091,2.282833360383359,-0.7630441904174514,3.1681215079166565,-12.625678877575693,-16.134695128892368,-1.6128877780770008
261,13.1,-2.91,-11.8,-2.61,0.0828,-1.16,3.38,-6.97,-19.2,-8.11,,,,,160,13100000000.0,-9.727282006203822,-17.49805025211169,-2.0095858089229295,0.787752173172934,-0.890486984622331,3.291603978210227,-10.191150400756133,-17.918413786059908,-4.505530892203829
262,13.1,5.58,-4.51,-5.06,-1.22,-1.91,-0.44,11.6,3.03,-6.8,,,,,160,13100000000.0,-3.6984935950492908,-10.028482320532554,-3.2290623153237137,-0.5766601129114013,-1.2178019928497343,1.1168319016365373,-0.8109899810573893,-5.728413532188249,-5.527074147266434
263,13.2,12.7,1.48,-9.26,-1.53,2.79,-5.2,17.9,9.73,-10.6,,,,,160,13200000000.0,2.760069554764395,-3.4098297536487046,-5.6400749760366224,-1.2245232379357658,0.0689042609589463,-2.5646062430002194,7.2432925031244455,3.266924324105343,-7.785641555990653
264,13.2,-6.23,9.32,13.7,1.64,-6.94,-3.05,-3.35,18.7,13.1,,,,,160,13200000000.0,-0.7806784049581892,3.911232734770871,2.0915856437270524,0.7221266905884671,-2.1813069821305233,-2.847492822606092,2.683332216924833,12.247518649081666,1.5130606155854949
265,13.3,-8.37,-10.8,-5.13,0.9390000000000001,5.95,3.78,-5.72,-1.6,-7.21,,,,,160,13300000000.0,-3.769740316816645,-4.549356306525591,-0.7954171646130352,0.8695077378787228,0.4292519772135024,1.0149980417640934,-0.9339435788553332,4.189569341182343,-2.370619057107181
266,13.3,15.0,-9.31,-12.4,2.2,0.802,0.369,19.7,-0.757,-13.5,,,,,160,13300000000.0,3.6227408186680266,-7.287254184744829,-5.434628448115449,1.773673128620859,0.5489228590689524,0.638511539365979,7.948088854926953,1.3111326930645615,-7.325640265067213
267,13.4,6.94,-22.0,-18.9,-2.91,1.66,-3.82,10.9,-13.1,-19.7,,,,,160,13400000000.0,4.929246712121441,-15.748713305286152,-10.817734830305842,-1.4092202942458592,0.9056345626185409,-1.9599009171880721,9.218760458457853,-7.0747870176667025,-12.83495107188756
268,13.4,-3.86,-29.6,-6.99,-1.48,-3.03,-4.7,-1.91,-20.0,-6.72,,,,,160,13400000000.0,1.4675930801442902,-23.7147381951124,-9.287505565499595,-1.4573202171719617,-0.35790231491399127,-3.5568256166319827,4.428304043242535,-14.596041436271893,-10.112453437749616
269,13.5,-16.4,-26.0,4.82,-2.94,0.0947,-2.17,-16.1,-16.3,6.26,,,,,160,13500000000.0,-5.569576306964055,-25.029016956167414,-3.6476904271427903,-2.4649080003132444,-0.21259417913564935,-2.7485861893656574,-4.408254914684313,-15.587584102208286,-2.8231122281373686
270,13.5,-10.3,-6.87,7.44,-2.13,0.8390000000000001,-2.2,-10.8,2.57,10.0,,,,,160,13500000000.0,-7.432658519789932,-14.58556999245736,0.7848808443618456,-2.237313960677828,0.12502050464271017,-2.4288711739851503,-7.159628472252878,-5.021583422413073,2.885991752443683
271,13.6,-11.4,0.618,3.79,-0.917,0.753,-1.09,-13.0,9.71,7.1,,,,,160,13600000000.0,-8.99519980887715,-5.841832599946953,1.986249577230632,-1.3400654886338277,0.32663355340822553,-1.6485794845175037,-9.673659162435325,3.550808177418533,4.762151789713915
272,13.6,-6.0,5.41,4.93,0.61,0.318,2.94,-7.38,14.5,8.23,,,,,160,13600000000.0,-7.815537346296692,0.6292178402633395,3.163084627951764,-0.014855470925439374,0.32386174439497584,1.0256364084752687,-8.686336829930065,9.922204725259427,6.306106412877233
273,13.7,3.5,-1.46,6.4,1.81,-1.38,1.85,3.43,7.94,9.18,,,,,160,13700000000.0,-3.3589015613346103,-0.5723139400072985,4.457119533542805,1.2252652693607622,-0.223163677714607,1.506074038849947,-3.47077089099197,8.768748636106723,7.58562099314325
274,13.7,-4.29,-7.89,4.26,2.29,-0.593,1.37,-3.49,1.73,5.96,,,,,160,13700000000.0,-3.725615604519611,-4.780794199324738,4.378316344715393,1.948829210451919,-0.3418997598363265,1.4267703368535853,-3.479048205874601,4.672861070488018,6.861862290889943
275,13.8,-15.0,-61.1,1.54,2.98,1.8,7.77,-12.1,-51.8,1.95,,,,,160,13800000000.0,-8.166043258338478,-37.170577225311206,3.2436310217566158,2.64958407406767,0.34575791032970726,5.1235931494004445,-7.190000196697966,-28.18901522508903,4.675003766543412
276,13.8,-9.09,-20.2,-5.88,0.659,-0.105,3.24,-4.2,-11.8,-6.65,,,,,160,13800000000.0,-8.52994461208391,-27.410615299000384,-0.40376022921199084,1.2968387538506234,0.20104192273549737,4.025838459798221,-5.902932635678754,-18.65215483352658,-0.36711264621472406
277,13.9,2.99,-7.63,-4.63,-0.835,-2.76,1.6,8.96,0.0472,-5.86,,,,,160,13900000000.0,-3.992802815782163,-16.034569735176035,-2.0933013945404895,-0.15189927061477704,-0.7496016446273578,2.612064188205198,0.4949255674494504,-7.770894666106244,-2.812655137047435
278,13.9,17.8,-2.55,-4.7,-1.39,0.489,-2.77,23.8,5.13,-6.05,,,,,160,13900000000.0,4.59031423036323,-8.279447923892594,-3.1353918571918467,-0.9932779156312214,-0.35194814512255973,-0.5245931165840685,10.526765179708786,-0.263791146436839,-4.253985385406803
279,14.0,2.08,6.4,12.2,-0.267,0.45399999999999996,-5.61,6.14,15.3,11.9,,,,,160,14000000000.0,3.6016244113850737,0.16286127431914288,2.995300249868043,-0.49971973434429806,-0.09319820553298758,-3.4883591673434626,8.638449928585532,8.79286691598373,2.938089241052266
280,14.0,-25.1,-6.06,13.2,2.52,-4.08,1.5,-23.1,3.45,11.8,,,,,160,14000000000.0,-7.702539431992139,-3.415973462748549,7.074874635995691,1.5523973926534094,-1.373162325878084,-0.5811524285422291,-5.0235984118714025,5.683822516007705,6.883587820357512
281,14.1,1.38,-4.46,-0.182,-1.45,6.66,3.95,5.34,4.43,-1.34,,,,,160,14100000000.0,-4.125372127344268,-4.016404429164949,4.173764250437166,-0.48794800040150266,1.2058872686516977,2.0595950740950375,-0.5625115224502268,4.954216014152125,3.2222833479999076
282,14.1,6.07,-7.83,-11.7,0.67,-1.45,-0.917,11.0,0.584,-12.5,,,,,160,14100000000.0,-0.10991447489525186,-6.209644412002271,-2.1721551852567487,0.298961111072761,0.3532136939681958,0.32484082819663884,4.414656228766618,2.4111626334315406,-3.7775891360708056
283,14.2,8.67,-41.5,-1.55,-2.06,3.57,-5.11,12.5,-32.5,-1.71,,,,,160,14200000000.0,3.3480637174126047,-26.505509297236195,-1.9234336488973622,-1.3041228957145166,1.3859640688672243,-2.8425746962580045,7.89505165994514,-17.903840034163995,-2.857057447729063
284,14.2,-9.0,-28.5,-9.91,-2.75,-2.79,-3.21,-7.8,-18.8,-8.88,,,,,160,14200000000.0,-1.515233619149429,-27.652562455065997,-5.116255809601778,-2.286700568149919,0.04526932028991881,-3.056709523785833,1.139001663955435,-18.42532013462905,-5.538591020981647
285,14.3,-8.52,-15.9,9.03,-2.16,2.11,-1.07,-8.2,-6.32,11.2,,,,,160,14300000000.0,-4.274068096285484,-20.89353655659434,0.5390504965945189,-2.2005984612387,0.7081518112561636,-1.898858821913142,-2.8810399049398,-11.381166093643635,1.9137617182067244
286,14.3,-9.39,-1.4,6.75,-1.1,1.41,-2.1,-10.2,7.82,10.0,,,,,160,14300000000.0,-6.288983166408038,-9.682593000489886,3.0220271251707587,-1.4526625213872677,0.9334804130531831,-2.0160834826713017,-6.031539788769344,-0.20789902155027562,5.513915436054878
287,14.4,-10.9,2.7,3.2,1.12,0.0244,1.93,-12.0,11.8,6.57,,,,,160,14400000000.0,-8.105036641968548,-2.5612299185026695,3.093176086674436,0.29564703370523593,0.6416198205097221,0.28368683364988945,-8.600707190685416,6.779565334511852,5.984105313567768
288,14.4,2.28,4.3,5.43,0.97,-0.21100000000000002,2.68,2.28,13.7,8.35,,,,,160,14400000000.0,-4.0148795082128785,1.3847376673536864,4.027377649973712,0.7539184830349727,0.36788592304129303,1.6802538701967353,-3.9170271188978028,10.806605232659013,7.03744873827537
289,14.5,0.596,-3.74,-1.07,2.29,-0.742,1.69,1.63,5.79,1.0,,,,,160,14500000000.0,-2.1988799619515564,-1.5625543542038955,1.9895781645312325,1.797796527479174,0.011556654910905018,1.6859339304414902,-1.5292686795687063,7.88741429855061,4.349456774155385
290,14.5,-39.3,-40.6,2.22,2.79,-0.392,4.79,-37.3,-31.0,3.07,,,,,160,14500000000.0,-16.811193170189174,-24.013410349323713,2.0816948534380444,2.47207025256956,-0.11800535047695171,3.4949780231926173,-16.927041578867605,-14.741391665488887,3.7798172035519593
291,14.6,-12.6,-26.9,-7.62,1.98,-1.98,2.75,-8.13,-18.2,-8.02,,,,,160,14600000000.0,-15.152610647307608,-25.673519033717575,-1.7967912429797122,2.137673073673606,-0.7157994061014568,3.060806172965202,-13.140290664254591,-16.753975828858877,-1.4736957332316423
292,14.6,-0.977,-10.5,-2.36,-0.126,-0.317,3.39,4.79,-2.65,-3.27,,,,,160,14600000000.0,-9.569532110285518,-16.947064255613995,-2.021947464174148,0.5993441138445357,-0.5877647143931021,3.2526598036281125,-5.422065769867879,-8.546792709291193,-2.2734460238316556
293,14.7,6.64,-3.61,-5.41,-1.84,-2.11,-0.263,13.0,3.76,-6.6,,,,,160,14700000000.0,-3.1853916091004164,-9.276774406825776,-3.37640299136195,-1.0583659967473968,-1.0764788646717791,1.2037395950310148,2.507847336169143,-1.3854005451230327,-4.199713652440472
294,14.7,8.83,1.0,-3.51,-1.28,2.8,-5.59,14.2,9.2,-4.03,,,,,160,14700000000.0,1.5468824523661207,-3.366490383280749,-3.4298116088743904,-1.2089822519541824,0.1680660487121317,-2.7556396945035266,7.540819983886059,4.7743036931722,-4.124153860585644
295,14.8,-3.47,7.09,8.81,1.43,-7.21,-3.8,-0.478,16.4,8.25,,,,,160,14800000000.0,-0.42902176759440414,2.6471503282878954,1.4633479938958707,0.5843962997219827,-2.20066471250619,-3.364290971886656,4.089060210453978,11.539361798402346,1.3850649472149277
296,14.8,-8.79,-10.7,-2.14,0.9279999999999999,6.65,3.79,-6.38,-1.41,-4.08,,,,,160,14800000000.0,-3.722001453620145,-5.028939959871123,0.022822819920545356,0.8178997536607968,0.6408443958199967,0.8052168995742175,-0.41742346598941804,4.004055066789801,-1.048090362792113
297,14.9,10.5,-9.57,9.5,3.23,1.86,0.966,14.8,-0.807,8.82,,,,,160,14900000000.0,1.8793481484586114,-7.640552489151771,3.811552615600081,2.457095683553642,1.0322547440359513,0.8989210128851841,6.133027976484243,1.2044749678904716,3.345379118434842
298,14.9,8.63,-18.0,-18.8,-2.17,-0.609,-2.09,12.8,-9.2,-20.1,,,,,160,14900000000.0,4.538099226971693,-13.598382708277022,-5.227959741602667,-0.6873492823229848,0.5053293115707737,-0.8430167204204919,9.002874984947606,-4.849947655389281,-7.092969002345924
299,15.0,-4.09,-34.6,-0.6940000000000001,-1.76,-1.96,-5.78,-1.87,-25.1,-0.669,,,,,160,15000000000.0,1.1399135929735955,-25.67663890187957,-3.4154001558380997,-1.416292726421228,-0.2861655596410386,-3.72028180663568,4.3225663291030205,-16.63356768170516,-4.2328905610792305
300,15.0,-17.2,-26.6,-2.58,-3.08,-0.156,-1.38,-16.6,-16.9,-1.5,,,,,160,15000000000.0,-6.083280154732218,-26.20767406765628,-3.081428795943175,-2.546901642405129,-0.24437586110500042,-2.356369781746121,-4.6837057167542255,-16.78860593019224,-3.0161534614448655
301,15.1,-10.3,-7.81,6.82,-2.81,-0.218,-3.29,-10.6,1.72,9.13,,,,,160,15100000000.0,-7.744039589525325,-15.626972852844634,0.8769058681190325,-2.7256958945842253,-0.23590787976110864,-2.9004877692647457,-7.230418077191143,-6.018343611100056,2.3915550959737937
302,15.1,-12.0,0.51,5.99,-0.395,0.6629999999999999,-0.603,-13.5,9.66,9.16,,,,,160,15100000000.0,-9.420253885341413,-6.346425376699234,2.9209882831992755,-1.1418201074058212,0.05268681319198118,-1.5615160264479386,-9.929205524816856,3.104972977564543,5.405000988460719
303,15.2,-5.93,5.14,4.62,0.893,0.25,2.87,-6.97,14.4,7.53,,,,,160,15200000000.0,-8.04561380833805,0.25954191565942164,3.600209084789466,0.2409867754149837,0.11603428252660991,1.0211634660058273,-8.655393747592232,9.677612759032261,6.351092802794751
304,15.2,2.3,-1.13,2.87,1.29,-1.15,2.11,2.55,8.39,5.2,,,,,160,15200000000.0,-3.970983404840875,-0.5395986542192794,3.3082903733804794,0.9538668203574634,-0.29042646992504734,1.655735375908714,-3.8319499780802477,8.928343823631108,5.838603363845697
305,15.3,-3.61,-5.79,-1.38,2.17,-0.247,1.34,-2.47,3.85,-0.0285,,,,,160,15300000000.0,-3.8288096858139555,-3.559161187877389,1.4340334007774656,1.7803169940600676,-0.27648438424125227,1.4717253869146598,-3.245688649465622,5.973226821522768,3.226452540148001
306,15.3,-13.6,-55.3,2.42,2.76,1.02,7.7,-10.6,-45.9,2.57,,,,,160,15300000000.0,-7.677202986393697,-33.31587631862943,1.8281973221746874,2.4460821794117553,0.13975238580899418,5.101552503273533,-6.4114059863829045,-24.21209766392177,2.9341868152234607
307,15.4,-11.1,-23.7,-6.59,1.08,-0.163,3.39,-6.27,-15.2,-7.69,,,,,160,15400000000.0,-9.025275189130332,-27.785682366775845,-1.537179835233254,1.5177309370718692,0.042553623045788594,4.104062847972574,-6.350536735890102,-18.96790703411272,-1.7959119692833152
308,15.4,-0.0814,-8.51,-3.53,-0.8320000000000001,-2.51,1.92,6.03,-0.972,-4.95,,,,,160,15400000000.0,-5.502720934194877,-16.700029254953225,-2.333857673351191,-0.07908055196927344,-0.7769446293142437,2.831194928612934,-1.0212439512528535,-8.49598711599498,-3.2001744542384305
309,15.5,10.7,-2.31,-5.08,-1.25,-0.7390000000000001,-1.33,16.9,5.15,-6.69,,,,,160,15500000000.0,0.8787369558878968,-8.424167882965184,-3.4316941672138808,-0.8748046854003341,-0.7647624996700929,0.4060579934280355,6.693086571491999,-0.555310103556188,-4.753914052477322
310,15.5,6.91,3.45,2.19,-1.24,3.13,-5.41,11.8,11.9,1.37,,,,,160,15500000000.0,3.254155922595438,-1.5952055806700258,-1.1842865261408062,-1.122981221643068,0.4856524333323923,-2.9835300416197272,8.891394934220388,6.692504954530977,-2.0274260128389066
311,15.6,-17.4,6.0,7.05,1.05,-7.37,-0.65,-14.6,15.3,5.76,,,,,160,15600000000.0,-4.8805040476514785,2.7728792309571046,2.107567877084935,0.35371605631130776,-2.036407558829565,-1.62355292210569,-1.2206481949320995,11.701255036012011,1.4396906561966878
312,15.6,-3.01,-5.24,3.81,-0.331,7.22,3.71,0.987,3.6,2.35,,,,,160,15600000000.0,-4.143804140076164,-1.83541407916068,2.7881560912606815,-0.11159784009778717,0.9353653377355182,1.4848321375165006,-0.2703498688673386,6.987088930090246,1.8449783945665743
313,15.7,7.19,-10.3,-12.4,-0.0535,-1.09,-0.17600000000000002,12.4,-2.15,-13.7,,,,,160,15700000000.0,0.32002606255725397,-6.703489029597427,-3.2836748965633555,-0.07211617187928532,0.28512105952158784,0.5169021594502978,5.183694846493831,1.670165232210369,-5.0759543215025
314,15.7,3.74,-33.0,11.3,-1.97,4.15,-5.21,8.05,-24.2,10.8,,,,,160,15700000000.0,1.6669862474162622,-21.826896677829723,2.5465004060464107,-1.3618650011347033,1.5259418590128468,-2.8207261272828954,6.417516970415384,-13.383830440203294,1.9923356137953423
315,15.8,-8.67,-26.5,-8.21,-2.88,-1.88,-2.78,-6.72,-16.9,-7.77,,,,,160,15800000000.0,-2.404246231347777,-24.514448901127878,-1.7536696715814895,-2.3935471971205304,0.4324630061412049,-2.7969909969753046,0.7623766814734054,-15.429909139657038,-2.354049882332406
316,15.8,-14.4,-16.1,7.69,-1.79,2.54,-1.96,-13.6,-6.46,9.47,,,,,160,15800000000.0,-7.128785789373631,-19.67520862164426,2.0216647135638617,-1.9833933632460898,1.1090885010375535,-2.309194173572694,-5.420013693636794,-10.210268383529202,2.910251838913119
317,15.9,-8.75,-0.563,11.0,-1.65,0.611,-2.16,-9.34,8.78,14.0,,,,,160,15900000000.0,-7.767302639705194,-8.683570909129793,5.610970449751054,-1.7568285346591435,0.9491770097417978,-2.2222441279319654,-7.107400568955006,0.8402758649062037,7.847627746080003
318,15.9,-10.8,3.08,3.3,0.866,-0.526,1.48,-11.8,12.3,6.52,,,,,160,15900000000.0,-8.96173362581378,-1.918214193021364,4.687104343399113,0.025572435564661822,0.4755708947658139,-0.06458290671850131,-9.127364437665227,7.508754159186245,7.256541524270597
319,16.0,3.18,1.1,2.36,1.48,-0.31,2.54,3.28,10.5,5.1,,,,,160,16000000000.0,-4.179699577426234,-0.18240657874553334,3.75678830166915,1.0139607747217214,0.2233630767155913,1.4533632982877989,-3.786523574982314,9.2493770044814,6.296406408401572
320,16.0,1.66,-4.36,-2.64,2.29,-0.838,1.52,2.81,5.2,-0.792,,,,,160,16000000000.0,-1.8797280281345925,-2.5849857797850797,1.1995180964033887,1.8811213450853017,-0.11738791926502434,1.4921990369184235,-0.9470017237824346,6.89302154915943,3.140507239954607
321,16.1,-36.1,-28.8,1.76,2.96,-0.29600000000000004,4.16,-34.0,-19.2,2.47,,,,,160,16100000000.0,-15.357416022384005,-17.6615233274658,1.4235842304023438,2.614297153683884,-0.17473139301781201,3.0469885446228164,-15.17490686203863,-8.290655472479056,2.841984126283744
322,16.1,-13.7,-24.6,-6.66,2.12,-2.56,2.89,-9.03,-16.0,-7.11,,,,,160,16100000000.0,-14.704640976894954,-21.651916466073146,-1.8080231638196067,2.2783865442927356,-0.9405227157128481,2.955495964687563,-12.529786592308875,-12.776766585032593,-1.5888367182552243
323,16.2,-1.17,-12.9,-2.98,-0.0944,-0.0696,2.97,4.67,-5.1,-4.16,,,,,160,16200000000.0,-9.374008974231533,-16.618594504167387,-2.2765491338395054,0.6659071181662068,-0.6609126660398482,2.963948907020189,-5.126012475538228,-8.3096127056745,-2.733569556448985
324,16.2,3.69,-3.99,-4.38,-1.39,-1.51,-0.017,10.1,3.29,-5.74,,,,,160,16200000000.0,-4.2287358543746745,-9.355753331759278,-3.117454316102764,-0.7312298935949129,-0.9335124558281904,1.226657252094641,1.4281362510918765,-1.5597325954590406,-4.072091937017756
325,16.3,10.8,0.436,-5.04,-1.35,1.81,-3.89,16.7,8.27,-6.01,,,,,160,16300000000.0,1.6903469793985586,-3.724410176191806,-3.886038234415338,-1.1517287814661938,-0.052706817079498536,-1.7553214405754791,8.002022158295992,4.160244573297401,-4.934887157573142
326,16.3,-4.93,9.45,10.9,0.904,-3.62,-2.97,-0.789,18.3,10.4,,,,,160,16300000000.0,-0.9170832812489507,3.8523353836757996,2.0250364568178636,0.24528703668540142,-1.1979875351037652,-2.4632339340723717,4.217862308961921,12.388247654421372,1.8925086865579566
327,16.4,-9.98,-9.08,5.37,0.755,4.25,3.35,-5.95,-0.226,4.12,,,,,160,16400000000.0,-4.4865219821030315,-3.585190412704372,3.362266136829395,0.5916737184677466,0.5510908154031142,0.9247082776169608,-0.15896839390036543,5.047945718330421,2.8842319628326587
328,16.4,11.7,-11.8,13.5,2.79,1.71,1.14,17.1,-3.65,12.9,,,,,160,16400000000.0,1.888555934376896,-8.309616294361092,7.41506937330343,2.085594797290419,0.9231590366762068,1.0501798973490841,7.270281094088657,-0.013438064937325578,7.343450440718826
329,16.5,8.17,-29.2,-7.45,-2.21,2.01,-3.11,13.4,-21.0,-7.83,,,,,160,16500000000.0,4.362509038625168,-20.323902166817824,1.4724000049163557,-0.8335714047467873,1.2720897143740533,-1.3743653932943427,9.908863317738817,-12.225636958771487,0.5879292900418074
330,16.5,-7.6,-20.0,-6.4,-0.534,-1.6,-5.7,-4.5,-10.7,-6.14,,,,,160,16500000000.0,-0.3489371616650283,-20.137622530236186,-1.6747815088100437,-0.6299910362088028,0.35000427466668416,-3.895337340548471,3.7064625938566653,-11.337860086731006,-2.407478255742205
331,16.6,-18.3,-28.3,1.04,-3.02,-0.39,-1.74,-16.9,-18.6,2.06,,,,,160,16600000000.0,-7.418981046895624,-24.831893585992557,-0.589482241821595,-2.2541743219390424,0.11242564168682276,-2.6392106257505654,-5.163739956084386,-15.563740531021693,-0.4184683248789265
332,16.6,-12.1,-7.93,5.92,-2.41,0.887,-3.69,-11.8,1.63,8.05,,,,,160,16600000000.0,-9.262605228242155,-15.11143182542615,2.012840068341933,-2.360069156248481,0.36110302481024714,-3.251608813962272,-8.020366768040695,-5.558605831717962,3.3518618766948247
333,16.7,-9.33,0.496,4.86,-0.6509999999999999,0.838,-1.09,-10.5,9.79,7.79,,,,,160,16700000000.0,-9.289148696955051,-6.135429116131874,3.151060866267059,-1.1986335362286062,0.5142109694444671,-1.9918271096485822,-9.087743049827797,3.372834547803375,5.3278090069669215
334,16.7,-8.37,4.39,1.38,0.413,0.154,2.55,-9.32,13.7,4.27,,,,,160,16700000000.0,-8.927141011485897,-0.0821411588129477,2.443036634520256,-0.10341243343154227,0.39856510834982395,0.6551415223326307,-9.187719623363531,9.382270327360914,4.856851441142117
335,16.8,2.76,-0.35,5.04,1.49,-1.51,2.36,3.22,9.11,7.57,,,,,160,16800000000.0,-4.32414875233079,-0.23618966973030142,3.4812352615580853,0.9794261320322166,-0.2141804005848621,1.6487299115661127,-3.8467258437649745,9.22383448667224,6.064799086123923
336,16.8,-1.46,-6.73,-1.7,2.28,-0.6920000000000001,2.1,0.192,2.83,-0.244,,,,,160,16800000000.0,-3.196100895437609,-3.9708501809275134,1.4099116784332302,1.8632597663837573,-0.3675845451781301,1.911729250797785,-2.1082267300672353,5.503226050720671,3.2559965622017524
337,16.9,-25.9,-61.8,-0.223,2.89,1.06,6.65,-22.6,-52.6,0.0669,,,,,160,16900000000.0,-12.138054283148755,-37.22901876879242,0.7571159112173518,2.5610038063362253,0.0907419662753608,4.673184965490077,-10.92906074912666,-28.30736838899938,1.8361474995140945
338,16.9,-12.9,-19.8,-7.7,1.07,0.475,3.3,-7.79,-11.5,-8.5,,,,,160,16900000000.0,-12.438147221197124,-27.205401278850232,-2.6238197520993465,1.5477593239789893,0.21410814379323728,3.87289521288878,-9.577829047502647,-18.52706581807289,-2.7657104413268687
339,17.0,2.03,-7.24,-4.28,-1.05,-3.02,1.36,8.34,0.191,-5.34,,,,,160,17000000000.0,-6.739852871818835,-15.723083103564132,-3.2859177722074464,-0.21760528113457456,-0.8242034286354942,2.408384416823904,-1.8649682651936583,-7.634917624332328,-3.9118352959062594
340,17.0,13.5,-1.8,-4.7,-1.5,-0.677,-2.3,19.6,5.75,-5.96,,,,,160,17000000000.0,1.2316335746852936,-7.715767515060705,-3.851231118738208,-1.0890848932478936,-0.7769437106801071,-0.33565351381299324,7.374784665786704,0.15384152124443773,-4.82371887570947
341,17.1,4.78,4.79,9.66,-0.7,0.963,-5.17,9.3,13.5,9.22,,,,,160,17100000000.0,2.6291613491334402,-0.5235654879460618,1.5502088211377014,-0.8246736653728542,-0.21833415898641173,-3.153101983873713,8.203507785872592,7.92004650115066,1.4288235206706643
342,17.1,-19.9,1.26,6.25,0.893,-5.95,-0.183,-17.3,10.6,5.07,,,,,160,17100000000.0,-6.243971397542618,0.5021822938664409,3.429063519586861,0.3426093586702593,-2.0584874700301947,-1.4221318957886397,-2.77466356133106,9.479526796876446,3.049947608359431
343,17.2,-0.498,-5.22,-0.9,-0.535,5.35,3.96,3.47,3.66,-2.09,,,,,160,17200000000.0,-3.980914771592718,-2.788706462897671,1.698416139880471,-0.2537894529320667,0.3200100565393815,1.7145649022062972,-0.08660239255244173,6.093111342874208,0.7615409923386478
344,17.2,6.13,-8.07,-11.9,0.436,-0.316,-0.122,11.3,0.195,-12.9,,,,,160,17200000000.0,0.0012792436610609137,-5.826035276068838,-3.7378780201804878,0.21497217474428254,0.11581879529519076,0.6442181840150123,4.8148440677102275,2.660967043708778,-5.320847939050336
345,17.3,10.0,-37.0,5.62,-1.39,3.33,-5.14,14.5,-28.2,5.25,,,,,160,17300000000.0,3.939285487891866,-23.754519289110014,0.003159017760537619,-0.8757220516555857,1.147732798417839,-2.72681367856564,8.983890358224459,-15.297204384139041,-0.6144967059600619
346,17.3,-13.4,-27.8,-10.7,-1.71,-2.02,-3.34,-11.6,-18.2,-10.4,,,,,160,17300000000.0,-2.889809421704381,-26.08111852710272,-4.275686463896125,-1.4426740558758184,0.1307310544084037,-3.084177512340365,0.12340386398339298,-16.98635798804526,-4.971196751644447
347,17.4,-13.5,-19.1,6.46,-1.55,2.15,-1.57,-12.7,-9.41,7.77,,,,,160,17400000000.0,-7.068643671407537,-22.06620203587274,0.016162739140964,-1.5156097356814888,0.7790181036413375,-2.2017176157182012,-5.39652414641509,-12.577632404949636,0.7014368250682468
348,17.4,-9.22,-1.86,9.61,-1.95,0.795,-2.75,-9.92,7.61,12.1,,,,,160,17400000000.0,-7.915957634221493,-10.445396882723388,3.8515300741278664,-1.8108092518994052,0.784149102552726,-2.5212556018329657,-7.343687483539936,-0.8303350382728478,5.776303473272761
349,17.5,-12.7,3.45,6.11,0.748,-0.5529999999999999,0.866,-14.1,12.7,8.99,,,,,160,17500000000.0,-9.800157465089013,-2.4540039390333668,4.75440786611784,-0.07191397733832416,0.3548569125652355,-0.5471691394037956,-10.251991843489286,7.043043210607808,7.207104826328752
350,17.5,1.28,3.96,5.11,1.26,-0.18,2.76,0.8079999999999999,13.4,7.62,,,,,160,17500000000.0,-5.436226294768935,1.2347590650571534,4.896564437953433,0.8332175324475027,0.18314090681645043,1.3802430733429358,-5.491137355666414,10.742192039901312,7.390933898731445
351,17.6,1.97,-4.77,1.04,2.33,-0.932,1.94,2.72,4.86,2.78,,,,,160,17600000000.0,-2.5192765950622658,-2.21864275634924,3.3548099195010996,1.8503890152699722,-0.17487547497270448,1.7064684354365838,-1.9565931426309127,7.31931135488148,5.338054631167994
352,17.6,-30.6,-25.2,2.32,2.55,-0.359,3.52,-28.8,-15.6,2.9,,,,,160,17600000000.0,-13.578897951452964,-15.435470107887056,2.9411197084491745,2.3258250562003133,-0.23398871887430422,2.763391354017183,-13.511533856558149,-6.017565561888862,4.252584379673945
353,17.7,-14.6,-27.3,-5.86,1.99,-2.57,2.93,-10.2,-18.6,-6.43,,,,,160,17700000000.0,-13.98106017234067,-22.258889031286166,-0.5773398863216621,2.097607739722876,-0.9839659563892935,2.8604906117433924,-12.086059777225024,-13.339355432039262,-0.5035140572587622
354,17.7,-3.97,-16.5,-3.46,0.389,0.38799999999999996,3.06,1.58,-8.5,-4.85,,,,,160,17700000000.0,-10.038194047953004,-18.946889712475357,-1.7297526987565017,0.9364856689523819,-0.543495790753372,2.976764290559287,-6.20340425805551,-10.523307179977449,-2.4386557928454793
355,17.8,2.7,-5.0,-3.75,-1.21,-1.66,0.5539999999999999,9.06,2.28,-5.38,,,,,160,17800000000.0,-5.021243468846248,-10.925882713329983,-2.5373952065858467,-0.5222060301874298,-0.9019498565305427,1.5647816370390037,0.36684005158076527,-3.0729904527712772,-3.7482006424829057
356,17.8,15.0,-1.01,-6.7,-1.4,2.0,-4.22,20.9,6.72,-8.0,,,,,160,17800000000.0,2.8641434440342586,-5.223151397424108,-4.2014966353270555,-1.118730264338033,0.02972218486252587,-1.8065785604852898,9.205488941035366,2.6256058672211164,-5.641186074160652
357,17.9,-2.8,7.98,11.7,1.39,-3.75,-4.34,0.993,17.0,11.2,,,,,160,17900000000.0,0.6333148603970935,2.3701236700466364,2.155509489044415,0.5861327026039487,-1.1837589771034014,-3.2830521017254126,5.670362927975571,10.990146980292876,1.8568440182374122
358,17.9,-11.3,-11.5,4.52,0.501,3.03,3.46,-8.39,-2.31,2.83,,,,,160,17900000000.0,-4.066633296064663,-5.6067343484793035,3.1007715019805877,0.5282788883516243,0.1690698433692328,0.6467865413017373,-0.38202339902807037,3.250716384449939,2.290112335225698
359,18.0,9.15,-4.59,34.9,1.4,2.39,2.4,14.0,3.92,34.0,,,,,160,18000000000.0,1.1387508939463071,-5.021999524468995,15.813279454712642,1.1206761778107883,0.8821002997361564,1.6685562431116847,5.808823885309996,3.640176343946359,16.40798346275909
360,18.0,4.16,-17.2,-16.2,-1.65,1.26,-2.44,9.05,-8.75,-17.2,,,,,160,18000000000.0,2.3286728383691746,-12.025699645650775,3.015199782529086,-0.7621979048965448,1.003425130869682,-0.7259029693012105,7.204011959462097,-3.5697372336155313,1.4450420871683072
361,18.1,-0.11699999999999999,-28.9,-13.0,0.557,-0.993,-5.21,3.22,-19.7,-12.9,,,,,160,18100000000.0,1.3654421273230932,-21.730291922384474,-3.3872619892492137,0.13429211127451224,0.3624721364957775,-3.3392266652630735,5.489064850938303,-12.956028663321064,-4.941655092623983
362,18.1,-15.5,-28.7,-5.03,-3.39,-1.54,-2.39,-14.1,-19.0,-4.37,,,,,160,18100000000.0,-5.277029247528073,-25.738646798962527,-4.043986151356923,-2.2607183861538536,-0.24831721245634164,-2.78601913542233,-2.943191719091339,-16.473049712340043,-4.687142852528883
363,18.2,-12.0,-8.6,9.4,-2.72,0.9540000000000001,-3.8,-11.7,1.01,11.4,,,,,160,18200000000.0,-7.924878052209509,-15.882026025111948,1.330570901995145,-2.572833354915397,0.1376871582450882,-3.376965329350694,-6.712623883148707,-6.2995643695735115,2.475172152105455
364,18.2,-8.46,-0.0575,5.28,-0.884,0.787,-1.33,-9.66,9.22,8.21,,,,,160,18200000000.0,-8.135636385540394,-6.781170091356476,2.9094503731834678,-1.4251494066697574,0.3461492789338445,-2.183997646956202,-7.981343449097715,2.731357926052926,5.028431308670026
365,18.3,-7.9,2.23,1.27,1.0,-0.271,2.44,-9.12,11.5,4.12,,,,,160,18300000000.0,-8.042830795237233,-1.5987487761871328,2.2540405996130692,0.2229143549396615,0.1480132824570383,0.5108598873185026,-8.47148644997319,7.833880262356905,4.623979615391744
366,18.3,2.63,-0.182,4.62,1.61,-0.44,2.41,2.71,9.37,6.85,,,,,160,18300000000.0,-3.839325587904951,-0.7839612419238909,3.1998897983460175,1.1655390044401137,-0.040768591833056894,1.6176753747011476,-3.6583337148358277,8.727756945031873,5.615048013457614
367,18.4,-0.251,-5.37,-1.69,2.36,-0.39,1.85,0.975,4.28,-0.43700000000000006,,,,,160,18400000000.0,-2.4260599345717946,-3.4214416276793984,1.245038576157462,1.9772612443711455,-0.1528894559843055,1.7530737618087056,-1.6638812794807887,6.139582185868877,2.9205561595039518
368,18.4,-39.6,-52.2,-2.55,2.9,1.52,6.74,-37.0,-42.8,-2.55,,,,,160,18400000000.0,-17.067053083479266,-31.474518141375157,-0.2721194631374999,2.6043287799108956,0.3841922972390208,4.659445258688808,-16.87457233111387,-22.338636588940687,0.4849560400997457
369,18.5,-12.5,-21.0,-9.5,0.7609999999999999,-2.64,2.62,-7.7,-12.5,-10.5,,,,,160,18500000000.0,-15.268314624954678,-25.45050955905349,-3.961186922430174,1.3516540409924842,-0.5867257572302998,3.4708601682256335,-12.925310408366041,-16.613478402474783,-4.4057643356784
370,18.5,2.17,-8.84,-3.03,-0.922,-1.68,2.28,8.08,-1.11,-4.22,,,,,160,18500000000.0,-8.40021680965741,-15.897626087876757,-3.5889225150314745,-0.19345769775635557,-0.937721827821723,2.776828990223047,-3.8834207647450363,-7.591916785644759,-4.323058274371216
371,18.6,9.59,-4.11,-4.13,-1.61,-0.83,-1.17,15.7,3.43,-5.42,,,,,160,18600000000.0,-1.3147517327899916,-9.118435011412213,-3.805231314973118,-1.156100268259301,-0.9031376910378434,0.4766241878853452,4.546406020744293,-1.1782011322983523,-4.81143852843162
372,18.6,7.15,2.29,8.88,-0.298,1.89,-4.41,12.1,10.7,8.48,,,,,160,18600000000.0,2.019099303505324,-2.557320766133345,1.2659954193685232,-0.5729593124528635,-0.006399838963215165,-2.371291499182239,7.797906024439782,5.73379106766979,1.1061734090503652
373,18.7,-14.8,4.97,3.3,0.188,-4.5,-0.696,-11.5,14.2,2.36,,,,,160,18700000000.0,-4.605119978612992,1.7717226343523755,2.0791377118566974,-0.05583263446156517,-1.4490717810079519,-1.3949346189506473,-0.5090189325094601,10.660325740142383,1.6644018371485774
374,18.7,-3.65,-4.3,-4.13,0.659,4.73,3.35,0.693,4.44,-5.06,,,,,160,18700000000.0,-4.228945050252735,-1.7201907801010705,-0.40311465516905143,0.4299476327005179,0.5347214347641849,1.370404675869612,0.0083989267662411,7.0406831012329105,-1.3294352505886131
375,18.8,5.95,-7.04,-9.05,-0.531,-0.20800000000000002,0.0355,11.4,1.04,-9.83,,,,,160,18800000000.0,-0.2199573613976673,-4.779670532262742,-3.85991537187296,-0.22308553538599846,0.296270450590828,0.5924246355845163,4.911996859421319,3.5488516986556564,-5.114055298285942
376,18.8,2.69,-42.8,3.57,-1.57,1.87,-5.51,7.29,-34.1,3.58,,,,,160,18800000000.0,0.9261322998921475,-26.645572460074362,-0.8896278103997792,-1.1384109992346478,0.8015168879273182,-2.964057585091809,5.935625707767633,-18.359226806854885,-1.2432894192856145
377,18.9,-8.24,-22.0,-6.54,-1.66,-1.27,-3.98,-6.22,-12.4,-6.21,,,,,160,18900000000.0,-2.683958051735955,-23.973853533096484,-3.1485001433858892,-1.4928682847285797,0.13645565482502453,-3.5561470059260687,0.7031477027215987,-14.89151885628404,-3.4545675286915363
378,18.9,-16.2,-23.4,8.42,-2.52,1.61,-2.1,-15.5,-13.7,9.83,,,,,160,18900000000.0,-8.00726509181561,-23.643823945129977,1.476286398091304,-2.1908782804214937,0.6095375995011447,-2.707507097781525,-6.271615873306345,-14.198167194729804,2.459985473220169
379,19.0,-9.83,-1.84,8.14,-1.47,1.07,-2.49,-10.7,7.6,10.6,,,,,160,19000000000.0,-8.725151041876863,-11.104209177268517,4.140266515214318,-1.700989566730265,0.7573692350341447,-2.5807443584780088,-8.1778461653381,-1.513690672937365,6.084081612120375
380,19.0,-14.4,2.28,5.45,0.11900000000000001,-0.569,0.7190000000000001,-16.0,11.5,8.35,,,,,160,19000000000.0,-10.960195871562462,-3.406805851322244,4.663863938927593,-0.46417551819997205,0.33153791496657525,-0.6576592996851536,-11.544949561113675,6.0590494134331,7.092913605135286
381,19.1,-2.12,6.23,4.93,0.539,-0.546,2.95,-2.65,15.6,7.72,,,,,160,19100000000.0,-7.478475775415662,2.135425350714728,4.77025816948294,0.21755451124962544,0.04980405166397617,1.4448780706452806,-7.716053430402271,11.610982656167693,7.372104816409018
382,19.1,2.24,-3.14,2.29,1.9,-1.1,2.47,3.07,6.37,4.55,,,,,160,19100000000.0,-3.650844295530065,-0.8985288408882379,3.7787152243981685,1.3608974302359846,-0.319340958825393,2.0423173015248675,-3.0731177792504205,8.561225187942384,6.115647845167737
383,19.2,-18.7,-19.2,1.86,2.3,-0.74,1.84,-16.8,-9.69,3.06,,,,,160,19200000000.0,-9.577969733200968,-11.423903129187623,3.011662614979493,1.9990852593322015,-0.45439369780527106,1.92440716201823,-8.981954417720733,-2.059265563069232,4.755212773524246
384,19.2,-14.7,-31.9,-4.51,3.16,-0.154,3.97,-10.2,-23.2,-4.57,,,,,160,19200000000.0,-11.595286439429715,-23.19992750753223,0.004696765539272896,2.7880105315671004,-0.3579521932067399,3.116575000599715,-9.506270975636552,-14.361178750257746,0.6034429536902346
385,19.3,-10.4,-17.6,-3.93,0.522,0.214,3.12,-4.72,-9.64,-4.98,,,,,160,19300000000.0,-11.124521520691022,-19.97934889833354,-1.5682930437915428,1.248093112100671,-0.17432673611318475,3.1185710173858907,-7.445985496437599,-11.613898376408695,-1.8824166359347485
386,19.3,2.29,-6.12,-4.47,-1.27,-2.35,0.922,8.82,1.04,-5.96,,,,,160,19300000000.0,-5.841198718807983,-12.008687501647682,-2.7283201910647605,-0.46313258127872126,-0.8728273865489569,1.8384133791499997,-0.44417306334061823,-4.250523481208251,-3.697837667783777
387,19.4,18.0,-2.03,-5.03,-1.1,0.52,-2.96,24.3,5.37,-6.51,,,,,160,19400000000.0,3.5486814181176767,-6.269836462272992,-3.6484722048378067,-0.895929896838134,-0.4256596610819722,-0.9580933186123104,10.207137092328026,1.3477133896654188,-4.9498682346205145
388,19.4,2.94,8.08,14.2,-0.0687,-1.5,-4.7,7.45,16.8,13.8,,,,,160,19400000000.0,3.3089516508431465,1.9829095234913412,3.486884288161432,-0.33376757781216726,-0.7705770118963505,-3.1388696822724445,9.020307159722671,10.339485777952252,3.3979451946093926
389,19.5,-19.1,-9.97,6.25,1.5,1.49,2.57,-15.9,-0.8490000000000001,4.62,,,,,160,19500000000.0,-5.5168366855268385,-4.891338073387315,4.591506331986647,0.9124096201348183,-0.044817949056159656,0.1882492480996314,-1.706821371680272,3.8288427395900637,3.942028189163519
390,19.5,4.66,-5.96,29.0,1.59,3.87,2.7,9.73,2.39,28.1,,,,,160,19500000000.0,-1.5086793632191533,-5.505937118462599,14.349389451660702,1.372881128492116,1.2120357196762748,1.6520930904885893,3.216241936725015,2.9915720858220687,14.6976367147777
391,19.6,5.46,-21.0,-17.5,-1.65,-0.00183,-2.27,10.8,-12.8,-18.6,,,,,160,19600000000.0,1.2359420403963446,-14.416740127598363,1.616829059801832,-0.6813843903771488,0.822323695379946,-0.6336956879276809,6.480726209159595,-6.197632991426563,-0.12713196134754767
392,19.6,3.04,-26.5,-11.7,0.0168,-0.564,-5.82,6.7,-17.5,-11.8,,,,,160,19600000000.0,1.9464720704650869,-21.365953465274078,-3.7068939604083315,-0.2069177911028396,0.37724397280195815,-3.6562646006259265,6.57511413595383,-12.77454417425371,-5.324124492299863
393,19.7,-13.1,-28.8,-4.75,-2.79,-0.784,-2.83,-11.7,-19.1,-4.32,,,,,160,19700000000.0,-3.9795962650068386,-25.641353529141306,-4.123900718555814,-1.9623082454660836,0.004426185768838575,-3.1747190350017656,-1.2915424811097607,-16.455362858885447,-4.877068422449953
394,19.7,-14.2,-9.82,8.08,-2.25,1.59,-3.06,-14.0,-0.134,9.6,,,,,160,19700000000.0,-8.004912498619184,-16.542321955994268,0.7549024427946547,-2.1578155217836557,0.5134752377563094,-3.107860954661247,-6.76199107767262,-6.957869652178887,1.5684098409504728
395,19.8,-12.7,0.5429999999999999,4.82,-1.03,1.28,-1.61,-13.9,10.0,7.12,,,,,160,19800000000.0,-9.854077366515993,-6.716368666106977,2.380023150686436,-1.391383592570623,0.7595682781840907,-2.23491029623672,-9.834599122082901,2.9100104536200817,4.040087874983634
396,19.8,-7.0,3.07,-0.429,0.35200000000000004,-0.742,2.25,-8.15,12.5,2.05,,,,,160,19800000000.0,-8.729996120049307,-1.0881223223084255,1.2570485066021062,-0.20662882634689095,0.2774892495703087,0.378887347183988,-9.109450930315194,8.490479521996443,3.1540612475260668
397,19.9,3.16,0.816,2.94,1.56,-0.986,2.37,3.33,10.4,5.17,,,,,160,19900000000.0,-4.047109134436526,0.0069589945254231456,1.9298489157698677,0.9939227135320696,-0.12815442725238352,1.539304148598549,-3.7547982224438776,9.601640048565795,4.051597211273799
398,19.9,2.27,-5.71,-4.42,2.74,-0.41100000000000003,1.19,3.47,3.95,-3.24,,,,,160,19900000000.0,-1.5591093444618225,-3.280925928940711,-0.6086561282073872,2.1805080466253743,-0.21896210403112037,1.3357303532324813,-0.6448309117627256,6.312918819205703,0.805233459829819
399,20.0,-42.5,-46.2,2.53,3.1,0.6459999999999999,6.81,-40.4,-36.6,2.52,,,,,160,20000000000.0,-17.68372037969521,-27.964149696919314,0.6460972289346991,2.8053690164727985,0.0587342983183719,4.526124810979853,-17.757735209459128,-18.658350068110373,1.568681536801246
400,20.0,-14.7,-23.0,-9.76,0.768,-1.76,2.91,-10.0,-14.5,-11.0,,,,,160,20000000000.0,-16.508579026743195,-25.10921355813427,-3.513990816907242,1.4208299753571914,-0.5251709968636011,3.584250231768455,-14.41836128260684,-16.238582682719382,-4.027144851971656
401,20.1,0.42100000000000004,-9.52,-2.97,-0.319,-1.97,2.85,6.41,-1.9,-4.46,,,,,160,20100000000.0,-9.840847267930997,-16.143688629849137,-3.2965173995558943,0.23849014289475767,-0.9890338752803579,3.156330463482555,-5.452640718718424,-7.894880440778348,-4.21986056890862
402,20.1,9.8,-3.81,-5.12,-1.62,-1.42,-1.38,16.0,3.58,-6.95,,,,,160,20100000000.0,-2.105279706933195,-9.050450974447397,-4.025498434240122,-1.024487822606248,-1.1273956902862943,0.5125652419765769,3.7818055654068967,-1.217582762023647,-5.435372725969728
403,20.2,9.33,1.6,5.23,-0.777,2.07,-6.03,14.2,10.1,4.01,,,,,160,20200000000.0,2.3985166973651664,-2.9252615047895834,-0.32539004778478553,-0.8563020216604587,-0.10087067952125728,-3.3004301203053736,8.266393564801682,5.368182775633636,-1.23010528580099
404,20.2,-13.6,6.67,4.61,0.9159999999999999,-5.9,-2.81,-11.4,16.1,2.97,,,,,160,20200000000.0,-3.9025153736568328,2.5930771274904476,1.6476510252993517,0.34810490792419113,-1.9626832566770451,-3.014608296097418,-0.1991493879363322,11.613088039313745,0.6398649322517447
405,20.3,-3.29,-6.45,-2.77,-0.682,6.35,4.47,-0.491,2.74,-4.75,,,,,160,20300000000.0,-3.6612755615696932,-2.6076941483191813,-0.11841134497927341,-0.35192558672837304,0.7061066512265906,1.3474078169752182,-0.32477861953559944,6.44978801154232,-1.7598098730573846
406,20.3,5.48,-5.06,-7.64,1.26,-0.0293,1.63,10.3,3.38,-8.84,,,,,160,20300000000.0,-0.060974963717179254,-4.018041713039415,-3.125347482268338,0.7434939873707271,0.47000408214064704,1.5121020295206775,4.2487352191848045,4.66346110019369,-4.912051059829743
407,20.4,9.52,-34.7,-11.0,-3.54,1.08,-3.32,14.3,-26.2,-12.2,,,,,160,20400000000.0,3.7125018594747896,-21.663567945788337,-6.2734294541095235,-2.167448790576728,0.6658435039478676,-1.304038291867172,8.575375826478504,-13.29616163320577,-8.156790439430107
408,20.4,-16.6,-26.9,-6.25,-1.48,-1.91,-3.62,-14.2,-17.4,-6.3,,,,,160,20400000000.0,-4.287597614258347,-24.675096391448854,-6.264062965629405,-1.70027781745586,-0.16113196536759167,-2.653776537674279,-1.228451388393884,-15.684208129812879,-7.330110581113847
409,20.5,-17.9,-20.7,9.09,-1.97,2.8,-1.77,-16.6,-11.0,9.97,,,,,160,20500000000.0,-9.648855859001113,-22.38897593621747,-0.12590649610496385,-1.8835734942839113,0.7895404979674662,-2.1387131520640685,-7.84524721048135,-12.958440968979492,0.37224201086462205
410,20.5,-11.1,-2.72,8.15,-1.48,1.21,-2.63,-11.3,6.87,10.2,,,,,160,20500000000.0,-10.220390591295722,-11.077135327065728,3.182586263603271,-1.6093162391177558,0.9245291840195985,-2.4250343089401456,-9.332370928226565,-1.4201592714095312,4.747754770077588
411,20.6,-12.8,3.45,6.63,0.0528,-0.11699999999999999,0.15,-13.8,12.9,9.08,,,,,160,20600000000.0,-11.236372431155468,-2.7224227767707596,4.560772966935266,-0.479788494036435,0.5901458666646868,-0.9243089477969533,-11.255494658445077,6.912822047606602,6.676556266266777
412,20.6,-0.912,5.2,4.59,1.02,-0.055,2.69,-1.21,14.7,6.82,,,,,160,20600000000.0,-7.170107946871214,1.8338480709107996,4.572457238213713,0.5394258392611253,0.3830215550707097,1.1821038310351626,-6.931337941101122,11.444224758602024,6.740420338943411
413,20.7,1.01,-3.03,1.35,2.15,-1.08,2.05,1.96,6.61,2.91,,,,,160,20700000000.0,-3.948364193773331,-0.9634035023324938,3.284202367443135,1.6339270933157386,-0.08668205325677286,1.6879121274557325,-3.1039964011979198,8.631162152077255,5.035041244907313
414,20.7,-21.4,-15.5,1.25,2.58,-0.304,2.95,-19.4,-5.87,1.73,,,,,160,20700000000.0,-10.821708389445828,-9.323557246664988,2.4709809858514236,2.2768517491416365,-0.15645205479926394,2.4234546943716637,-10.118730313423667,0.19285407935464427,3.5635713175842807
415,20.8,-14.3,-30.9,-2.53,2.71,-1.06,3.76,-9.65,-22.3,-3.25,,,,,160,20800000000.0,-12.191637119983596,-21.73240243360179,0.4717184206065659,2.571207221241433,-0.44653642803423627,3.2023908858447894,-9.916961753530853,-12.895864274792455,0.5300341825167467
416,20.8,-6.57,-16.4,-3.85,0.679,0.863,2.97,-0.7909999999999999,-8.65,-5.54,,,,,160,20800000000.0,-9.977549743730336,-18.665679946817324,-1.2559925503125717,1.2853160884307937,-0.026109296330847742,3.0669539127793755,-5.9886246956519775,-10.425171656391463,-2.1724654509063432
417,20.9,0.441,-5.4,-4.49,-1.62,-2.56,0.735,6.98,1.65,-6.43,,,,,160,20900000000.0,-5.874193424083053,-11.036444100654153,-2.548864814288351,-0.6890555342220694,-0.8396157964280211,1.7078953805469081,-0.4061852245700841,-3.398561099113466,-4.068004227235839
418,20.9,16.5,-2.36,-7.95,-1.41,1.87,-3.92,22.5,5.13,-9.71,,,,,160,20900000000.0,2.9379051994141108,-6.046527270794469,-4.7080985921446,-1.1789892223914116,0.030307327574445098,-1.5720319559824356,9.453949935664589,1.5642568288748295,-6.5799327021200655
419,21.0,-0.124,6.55,12.6,0.609,-2.29,-5.56,3.88,15.5,11.8,,,,,160,21000000000.0,1.7319707523589118,1.1978718043252847,2.211230765307934,0.036078303040709025,-0.7146281592105101,-3.896212516444045,7.054602419925516,9.673544470450768,1.60317808834463
420,21.0,-14.5,-11.8,3.66,0.997,3.66,3.63,-12.1,-2.54,1.76,,,,,160,21000000000.0,-4.661007283199937,-6.277344849400534,2.7904111887011513,0.6890938193506017,0.6898478065686091,0.4900506502901978,-1.1906366153277474,2.5664139996527,1.6729983105885864
421,21.1,4.11,-6.23,23.6,1.15,3.37,3.48,8.9,2.29,22.8,,,,,160,21100000000.0,-1.2065371747795073,-6.250116325818899,11.109545579922079,1.0023127626652202,1.5503115919981316,2.2325877575832127,3.1529516401221,2.405567110243069,11.079158292749238
422,21.1,8.58,-14.6,-13.1,-1.55,-0.7020000000000001,-1.76,14.0,-6.52,-14.3,,,,,160,21100000000.0,2.647900322017223,-11.052224884296969,1.4311965967885474,-0.7321676294654267,0.8272061411979844,-0.09428519141443603,7.822143034037639,-2.7882707796837196,-0.220146598611203
423,21.2,-4.49,-31.6,-12.4,-1.02,0.163,-7.26,-0.873,-22.5,-12.4,,,,,160,21200000000.0,-0.163368821552202,-22.86947263468723,-4.098157156459433,-0.9277704515254697,0.6139625223426141,-4.270451009953261,4.07925503385192,-14.258637318269692,-5.642858817126397
424,21.2,-13.6,-26.0,-4.74,-2.72,-0.243,-1.5,-12.0,-16.3,-4.04,,,,,160,21200000000.0,-5.455399699686092,-24.669872754416378,-4.354749197748462,-2.145719585032272,0.3388343972104915,-2.655837150874608,-2.8421780356582094,-15.446517345675353,-4.9292342532805575
425,21.3,-14.4,-9.06,9.95,-2.67,0.9740000000000001,-3.77,-13.8,0.569,11.7,,,,,160,21300000000.0,-8.97823938997584,-15.692466477144563,1.3639186875063007,-2.502005954932124,0.5427545342581978,-3.305169241645796,-7.55905282085709,-6.126997364837051,2.474430683237271
426,21.3,-10.2,0.0263,4.81,-0.5920000000000001,0.6920000000000001,-1.13,-11.1,9.41,7.49,,,,,160,21300000000.0,-9.459430962114212,-6.652434001764355,2.7415726536714664,-1.2040192916977512,0.5906698354865482,-2.0374845222681977,-9.083279626876866,2.9140690449939797,4.707461552425834
427,21.4,-7.95,3.67,1.6,0.486,-0.439,2.2,-8.81,13.1,4.26,,,,,160,21400000000.0,-8.864939981716773,-0.7158906078446448,2.2852015049227816,-0.05552941071750861,0.2600939624391879,0.43211385348208564,-8.96564459102739,8.841320006103267,4.508242893339656
428,21.4,2.23,0.725,3.39,1.27,-1.04,2.63,2.66,10.2,5.73,,,,,160,21400000000.0,-4.495186683548248,0.1127811662945356,2.7268713496918386,0.8452633195401088,-0.15730165786149847,1.713038008023465,-3.9613007112037755,9.631943455555787,5.0521934059558475
429,21.5,0.773,-5.87,-1.84,2.26,-0.831,2.06,2.49,3.68,-0.426,,,,,160,21500000000.0,-2.420306049448612,-3.3279808731691776,0.9011545404245749,1.8066788237379046,-0.3735927425426975,1.915246798728396,-1.1842910763742487,6.168473989058222,2.6131930120995324
430,21.5,-37.5,-57.2,1.25,2.73,1.03,6.49,-34.5,-47.9,1.49,,,,,160,21500000000.0,-16.236478856894713,-34.31036171234868,1.0406139133651844,2.43414210421598,0.0770312012622173,4.5814045920063915,-15.525281936503458,-25.294277218972972,2.113125202677931
431,21.6,-11.5,-21.0,-7.45,1.34,-1.12,3.15,-6.47,-12.6,-8.4,,,,,160,21600000000.0,-14.371011886803215,-26.655428845101056,-2.353713382968569,1.6905937306435797,-0.30727609640662096,3.7471846292936206,-11.627369429408112,-17.907405847060534,-2.5675265530950546
432,21.6,1.34,-7.76,-3.46,-0.679,-1.85,1.83,7.6,-0.33,-4.78,,,,,160,21600000000.0,-8.183214012196453,-15.788463643033323,-2.79597811363618,0.0802840402483338,-0.8025681661661977,2.6298529051601687,-3.350807507345394,-7.679014138784908,-3.5525637215880694
433,21.7,8.6,-2.6,-4.94,-1.62,-1.05,-1.19,14.9,4.78,-6.4,,,,,160,21700000000.0,-1.5731281130957306,-8.203635617967349,-3.6531025153328045,-1.0751814792483352,-0.8820062297802918,0.4036494781569746,4.505386061345426,-0.4290433376146998,-4.820298889679658
434,21.7,9.12,2.52,1.43,-0.7170000000000001,2.9,-5.84,14.2,10.9,0.7020000000000001,,,,,160,21700000000.0,2.638371123180617,-2.0363568935881657,-1.6210099006575618,-0.8317713611617454,0.3322082562427515,-3.235138281963731,8.678503537852327,6.16339072973413,-2.361661849205562
435,21.8,-21.6,4.69,1.24,1.38,-4.86,-0.606,-18.6,14.0,0.174,,,,,160,21800000000.0,-6.907935915625885,1.8320436812673475,-0.4772522936697057,0.6712866407133549,-1.3347521079885982,-1.7028812298689195,-3.0637282207994403,10.72355791471071,-1.2327348874374457
436,21.8,-2.66,-6.59,1.35,-0.182,3.29,3.64,1.53,2.19,0.135,,,,,160,21800000000.0,-5.234882108995685,-3.011564745494374,0.2532358219405275,0.09141688882626464,0.15002620137803624,1.4109403896235788,-1.0863242829415942,5.757832411401822,-0.6237921766545929
437,21.9,8.19,-9.34,-13.2,-0.42200000000000004,0.43799999999999994,0.0544,13.6,-1.22,-14.3,,,,,160,21900000000.0,0.0525210707878605,-6.6511163401794455,-5.125019086217596,-0.2574868743045397,0.24248029055832035,0.6203510940710645,5.235511709323749,1.697392313164225,-6.712711326961489
438,21.9,16.3,-33.2,-0.0144,-0.804,1.95,-6.77,20.8,-24.5,-0.376,,,,,160,21900000000.0,6.451606716941354,-21.91966668828889,-3.0819260386424348,-0.6288819348445229,0.7906801204967914,-3.686732202575722,11.935359336446567,-13.547018201435307,-3.891481715115049
439,22.0,-14.2,-28.3,-11.3,-1.81,-2.19,-2.54,-12.9,-18.5,-11.4,,,,,160,22000000000.0,-1.6820493212113323,-25.589064890010917,-6.367299078684658,-1.431536724569435,-0.16626831872737113,-3.0184187179223994,1.2447972176024322,-16.42918627778687,-7.2344228582636205
440,22.0,-13.7,-21.8,7.6,-1.8,1.71,-0.8370000000000001,-12.9,-12.1,8.87,,,,,160,22000000000.0,-6.415331229780341,-23.409932284169,-0.7835349664667195,-1.6819340367783782,0.43610830963389857,-1.7470918250303615,-4.8439341556481255,-13.910008559311812,-0.0644143333461642
441,22.1,-10.8,-0.225,9.6,-1.62,0.779,-2.69,-11.5,9.27,11.9,,,,,160,22100000000.0,-8.142237517884961,-10.076027162119114,3.367533332637156,-1.63984539948233,0.546193804653995,-2.2966170445935,-7.709086437326786,-0.421430422821075,5.262380137663398
442,22.1,-12.3,4.68,7.25,0.55,-1.03,1.02,-13.8,14.0,9.92,,,,,160,22100000000.0,-9.779776535797069,-1.5896765699745945,4.919642875791958,-0.1516876570625314,0.040156228004266104,-0.3636986152756774,-10.330964863138,7.9704813730238175,7.336044943725211
443,22.2,4.01,0.606,3.74,1.69,0.136,2.66,3.57,10.1,6.0,,,,,160,22200000000.0,-4.3486590629516675,-0.32691924211004086,4.4480522332706505,1.0998718442875626,0.07092690772331557,1.3985075421134128,-4.34719277685639,9.2096605086922,6.741211227014869
444,22.2,1.45,-3.81,1.09,2.35,-0.986,1.27,2.1,5.87,2.48,,,,,160,22200000000.0,-2.0648513297102857,-2.3300765950837388,3.1055900018035847,1.9494239370202289,-0.2683998552249224,1.3236135668930151,-1.5719514776037746,7.266293134188228,4.844035452792664
445,22.3,-28.7,-20.2,0.184,2.87,0.16,3.85,-27.1,-10.5,0.41600000000000004,,,,,160,22300000000.0,-12.555131770593665,-12.607263106163423,1.9376140445212378,2.575021624496108,-0.13086192933010296,2.7959869745606936,-12.560687057162639,-3.072013160678406,2.8725862187120645
446,22.3,-16.1,-27.7,-5.21,2.04,-2.61,2.97,-11.9,-19.0,-6.18,,,,,160,22300000000.0,-13.951281844667651,-21.2872596413751,-0.9198168052412088,2.211435854706811,-0.9267900616726268,2.8974014690670313,-12.276289311325995,-12.340598642285418,-1.1578046970256128
447,22.4,-3.6,-15.8,-3.21,0.37,0.187,3.05,1.82,-7.81,-5.02,,,,,160,22400000000.0,-9.874419023010317,-18.13147742992315,-1.835372702023863,0.9600475133264716,-0.5692073611638317,2.9863355902781414,-6.208438334745979,-9.704217676326738,-2.8773306652002546
448,22.4,2.09,-4.36,-4.03,-1.31,-1.79,0.321,8.21,3.03,-6.06,,,,,160,22400000000.0,-5.162220569689542,-10.211352006958073,-2.7127278966316415,-0.5826132972828844,-0.9611432631030407,1.4329828141725065,-0.001915958259482764,-2.29410452141933,-4.294318173243008
449,22.5,15.2,-0.342,-6.53,-1.68,2.43,-4.01,20.8,7.57,-8.13,,,,,160,22500000000.0,2.857460442793081,-4.535381013021342,-4.2387744267687815,-1.3283665963587055,0.12758451821178707,-1.7391779006253,8.952420759387683,3.4458736986551832,-6.002039875209014
450,22.5,-0.797,8.16,9.34,0.42200000000000004,-3.9,-3.95,2.82,17.3,8.67,,,,,160,22500000000.0,1.4181475188660932,2.7658697201272275,1.1896676989901422,-0.1388663807738748,-1.1654729653185698,-3.0276410662882665,6.312675310181773,11.507667578885062,0.5302434114153138
451,22.6,-13.7,-11.8,2.25,0.848,3.59,3.12,-10.9,-2.5,0.6829999999999999,,,,,160,22600000000.0,-4.536150038812784,-5.61111948049432,1.6135610699615826,0.5317804250385815,0.3612733068306082,0.5551930086805124,-1.0966466525270517,3.3565267183015095,0.59825368794176
452,22.6,4.27,-10.1,15.1,2.31,1.91,2.52,8.92,-1.51,14.4,,,,,160,22600000000.0,-1.0678389807825681,-8.192723398452264,7.005089948891577,1.7402087137516515,0.8584925559640979,1.7002789735307915,3.215092278692179,0.5246673468863698,6.743064809409792
453,22.7,10.5,-26.1,-3.4,-1.6,1.02,-2.31,15.5,-17.7,-4.18,,,,,160,22700000000.0,3.4881660571317097,-18.49139191720726,2.8454046408785745,-0.5297037961742284,0.9103445726267049,-0.6369043564696266,8.503220763446414,-10.080369934587958,1.8798997139131677
454,22.7,-3.45,-20.2,-7.56,-1.4,-0.79,-6.83,-0.7120000000000001,-10.8,-7.67,,,,,160,22700000000.0,0.7555623461067906,-19.474031329502953,-1.3144064118335788,-1.1211327580987633,0.3644483313538719,-4.246229299424385,4.536461502119799,-10.499126844141784,-2.371905147217735
455,22.8,-18.4,-32.6,-6.26,-3.18,0.168,-1.14,-17.7,-22.9,-5.41,,,,,160,22800000000.0,-6.788875034111789,-27.022916888077297,-3.291526634020047,-2.520281442311911,0.30137852344555843,-2.4359244496343737,-5.03538650615358,-17.715264734976977,-3.7245251849806995
456,22.8,-14.7,-6.49,8.22,-2.77,-0.18600000000000003,-4.07,-15.0,3.1,10.3,,,,,160,22800000000.0,-9.904679497767003,-15.214214352723964,1.3104834513717143,-2.6899831823205553,0.1449054724184445,-3.38826083749682,-9.324727350365148,-5.602744704623282,2.5194717655075016
457,22.9,-10.5,0.6509999999999999,3.89,-0.375,0.614,-0.617,-12.2,9.9,6.68,,,,,160,22900000000.0,-10.139147077394716,-6.089958108272667,2.341707350428128,-1.1167853079855106,0.295508445800197,-1.7731750029356683,-10.562409434453258,3.418389755628855,4.3718214059253775
458,22.9,-6.11,5.42,5.82,0.621,0.32299999999999995,2.46,-7.49,14.8,8.45,,,,,160,22900000000.0,-8.552263493925803,0.5295432329976189,3.732238665765862,0.06416501627572635,0.30433462356759655,0.6939117871509706,-9.239868197180794,10.041413135815393,6.187507344081489
459,23.0,3.18,1.03,5.45,0.9590000000000001,-1.88,1.99,3.03,10.6,7.68,,,,,160,23000000000.0,-3.931499669549522,0.8173613117354381,4.418955047930376,0.672269857608377,-0.3969467885844694,1.4492696689306555,-3.958213598029289,10.366458208209684,6.851994609829876
460,23.0,-5.12,-6.66,-0.608,2.03,-0.451,2.12,-4.21,3.0,0.85,,,,,160,23000000000.0,-4.3995916771144,-3.4829498995170844,2.4093087222715264,1.5949452987234383,-0.4143005930875745,1.8401700312111475,-4.066596914881704,6.079874581023241,4.179787537735377
461,23.1,-17.9,-58.9,5.7,2.63,0.693,6.71,-14.9,-49.5,5.99,,,,,160,23100000000.0,-9.716740947360172,-35.35389518773051,3.7248417267484193,2.2983396250160055,-0.05880133488983852,4.678298188795254,-8.729914436153145,-26.262368277908692,4.985729939504667
462,23.1,-9.55,-23.1,-8.77,1.26,-0.28800000000000003,3.19,-4.73,-14.6,-9.89,,,,,160,23100000000.0,-9.651069932361384,-28.306547855522762,-1.2702723222196566,1.5927130276431616,-0.13238564447966583,3.8109207181060794,-7.008121985986797,-19.475970545632702,-1.637240323937867
