,Time (s),Acceleration x (m/s^2),Acceleration y (m/s^2),Acceleration z (m/s^2),Gyroscope x (rad/s),Gyroscope y (rad/s),Gyroscope z (rad/s),Linear Acceleration x (m/s^2),Linear Acceleration y (m/s^2),Linear Acceleration z (m/s^2),SPM/RPM,Timestamps,Acceleration x (m/s^2)_kalman,Acceleration y (m/s^2)_kalman,Acceleration z (m/s^2)_kalman,Gyroscope x (rad/s)_kalman,Gyroscope y (rad/s)_kalman,Gyroscope z (rad/s)_kalman,Linear Acceleration x (m/s^2)_kalman,Linear Acceleration y (m/s^2)_kalman,Linear Acceleration z (m/s^2)_kalman
0,0.0,4.64,5.47,6.09,-0.945,1.11,-0.5579999999999999,3.49,0.904,-2.58,90.0,0.0,3.4118384348723056,4.108463098963574,4.820280442512222,-0.799298206725673,1.0007703608885967,-0.4519047839964052,2.289814945900921,0.6797667904674685,-2.077651649862166
1,0.0495,4.95,5.69,5.85,-0.276,0.833,-0.294,2.29,0.96,-2.61,90.0,49500000.0,3.7669826629597503,4.4808087846462845,5.194201273974922,-0.426577855719977,0.8916655610586679,-0.34872757108131347,2.289870298899042,0.7502229834392719,-2.290845237386892
2,0.0995,3.18,5.54,6.02,-1.1,1.05,0.187,1.56,0.79,-3.76,90.0,99500000.0,3.572738441509518,4.841287702411539,5.582601733353069,-0.9304147080678917,1.0022236864024496,0.024408330476098805,1.992270770033305,0.7644872367654512,-3.033804697035365
3,0.15,2.11,5.09,5.04,-0.193,0.337,-0.0641,2.3,0.8009999999999999,-1.49,90.0,150000000.0,3.0272956281263075,4.9365516500295,5.311955818401524,-0.3770355308948008,0.5348645649980595,-0.037584741168868285,2.1287557529107684,0.7790873567299506,-2.2153655713810867
4,0.2,2.52,4.74,7.49,-0.381,0.659,-0.305,2.66,1.1,-1.41,90.0,200000000.0,2.8299707117781883,4.858154354410794,6.413701295572942,-0.3800111594158223,0.6221242507045919,-0.22498186379464147,2.3701460713855673,0.9120620648338843,-1.7841098517046257
5,0.25,2.64,4.98,7.6,-0.124,0.535,-0.0683,2.73,0.8240000000000001,-1.22,90.0,250000000.0,2.754947468728964,4.907444735288412,7.015815457869978,-0.1878541188127001,0.5608782700300902,-0.11517868010904027,2.534815809862912,0.8751380312060345,-1.4813936744324163
6,0.3,2.59,4.6,7.83,0.47700000000000004,-0.674,-0.192,2.19,1.1,-1.74,90.0,300000000.0,2.6894485351869797,4.782457856292728,7.429398862852966,0.31117292123515705,-0.30721152931267215,-0.1690155405274282,2.376702003849611,0.9697945380726231,-1.620232357460184
7,0.35,2.21,4.93,7.28,-0.264,3.79,0.0795,1.49,1.79,-3.15,90.0,350000000.0,2.4986870445351377,4.842542698216934,7.353493411092751,-0.1205411124550092,2.5730308694706054,0.005145758117066995,1.9698632303792916,1.315518703293408,-2.44160373769356
8,0.4,1.15,5.75,5.82,-2.29,2.19,1.27,2.28,0.773,1.29,90.0,400000000.0,1.961690723385363,5.212319264447509,6.574329265507598,-1.7488963447268548,2.3037692938826417,0.8915638193203999,2.112186053080195,1.0867412443166327,-0.43796809597946673
9,0.45,0.285,4.35,10.2,-1.43,1.15,0.342,2.26,-0.00387,1.2,90.0,450000000.0,1.2939224420284667,4.860860886827365,8.416544911468087,-1.5095386739723935,1.4926968283844007,0.5064259266800566,2.1800218860432508,0.6267680945712577,0.4415213855957716
10,0.5,-0.285,2.78,10.3,-0.515,1.2,0.614,2.89,-0.33399999999999996,1.13,90.0,500000000.0,0.665032831205161,4.012694021903004,9.373537686705141,-0.7630565374234879,1.2869379336210653,0.5818145524628233,2.5058551156385835,0.2215372707814527,0.8111929725020457
11,0.55,-0.256,2.16,10.1,-1.19,0.982,0.25,1.97,-0.0989,0.743,90.0,550000000.0,0.29817017129999795,3.257509068064599,9.742657160806294,-1.0835123573935994,1.0725737939879458,0.3492767564867477,2.2599318431269886,0.08638166064344013,0.774577426274127
12,0.6,-1.47,2.06,9.67,-0.629,0.10300000000000001,-0.389,2.33,0.248,1.08,90.0,600000000.0,-0.4061300212814582,2.769382461897481,9.705739712158154,-0.7423638896836449,0.39098641285846625,-0.16811239407118572,2.292088660214849,0.15455021385037826,0.9385710352510905
13,0.65,-1.33,1.95,10.0,-0.121,-0.115,-0.276,1.93,0.34700000000000003,0.275,90.0,650000000.0,-0.7741289470898713,2.4353861345868135,9.855254925576252,-0.275979776222464,0.03528996393407008,-0.24372072499540165,2.1259127806029596,0.23572323055845767,0.5822732268451436
14,0.7,-1.61,1.88,9.29,0.0382,0.145,-0.29600000000000004,1.53,0.975,0.975,90.0,700000000.0,-1.107076379034242,2.2089996049744625,9.568045876849277,-0.04016231410278834,0.11241351429699534,-0.28035838353585213,1.8524263592265136,0.5475415221456559,0.7931439417839947
15,0.75,-2.07,2.43,9.98,-0.28800000000000003,1.04,-0.935,2.76,0.924,-0.124,90.0,750000000.0,-1.4906320784370592,2.299083861591149,9.777361722306496,-0.22618463602143718,0.7644847868077164,-0.7391354868053146,2.2689454687008332,0.7063273414353856,0.30069270127146686
16,0.8,-1.07,2.3,8.8,-1.46,-0.623,0.096,1.35,0.23800000000000002,-2.09,90.0,800000000.0,-1.3230841517844236,2.299457278745248,9.280759136621995,-1.1522633983081443,-0.2108841286147356,-0.15386710663275238,1.8472074093082564,0.5087923028400155,-0.9829657227054123
17,0.85,-2.43,1.19,6.91,-1.68,1.53,-1.26,3.28,-0.537,-0.9420000000000001,90.0,850000000.0,-1.7639956118545195,1.8472199978795367,8.076163748747128,-1.5483725808418347,1.012916104101631,-0.9290522242053417,2.5047689214847906,0.06768922836374175,-0.9609695736312087
18,0.9,-0.508,-0.48100000000000004,8.1,-0.223,2.01,-1.89,2.85,-0.551,0.894,90.0,900000000.0,-1.263702084792925,0.8981902547017384,8.088275268449587,-0.5535727164585748,1.7138424277804667,-1.6024906639810217,2.6632081914265253,-0.19326672014421814,0.03503773242503616
19,0.95,-1.89,-1.27,9.45,-0.9129999999999999,1.52,-1.86,2.28,-0.102,-0.371,90.0,950000000.0,-1.5131717406293261,0.014391888871559289,8.780174740890857,-0.8233521030826862,1.577575785119095,-1.7829548911322426,2.4873397624714855,-0.1547714740234714,-0.18298015156437916
20,1.0,-3.07,-1.46,7.74,-1.72,1.3,-2.26,1.14,-0.49700000000000005,0.769,90.0,1000000000.0,-2.1332942003387583,-0.5866001998481586,8.251656313512957,-1.4963592641612318,1.3824465580903458,-2.117271198709809,1.868995694058278,-0.2991195057241326,0.32817604024208435
21,1.05,-4.61,-2.96,8.32,-1.32,0.848,-2.15,-0.8140000000000001,-0.0747,2.08,90.0,1050000000.0,-3.119826294608449,-1.5540461693406393,8.286381948585896,-1.3639873386559231,1.0067432965013892,-2.140207822305793,0.6376697077589408,-0.2044619569087021,1.2688003057232693
22,1.1,-6.59,-3.75,9.11,-1.69,1.1,-1.56,-2.5,0.7440000000000001,1.96,90.0,1100000000.0,-4.502080780037902,-2.4491615430485028,8.7048664809876,-1.6086863871342072,1.0723005639963,-1.7335943675556136,-0.8023229992964247,0.1955883173992352,1.6399330701232218
23,1.15,-8.16,-3.97,8.43,-1.36,1.3,-1.04,-2.55,1.77,2.32,90.0,1150000000.0,-5.959118740098822,-3.069086192861708,8.565205517014132,-1.422027047373668,1.232367833503012,-1.2475188979697758,-1.6043966083887127,0.8596569198180624,2.005088151999983
24,1.2,-8.24,-3.79,8.04,-0.841,1.53,-1.17,-1.75,2.43,3.09,90.0,1200000000.0,-6.867649022910951,-3.3629452844382506,8.298345784632076,-0.9859190291307232,1.4415961673184234,-1.1931931201337176,-1.6712193914001883,1.5220094690749404,2.58762064230064
25,1.25,-7.5,-3.74,8.08,-1.16,1.75,-0.7809999999999999,-3.49,2.93,2.18,90.0,1250000000.0,-7.119529767347437,-3.5166404471043267,8.187403092878608,-1.1165809246228269,1.65839674709588,-0.9043255139734604,-2.505925102896906,2.1158835936735514,2.368752862220249
26,1.3,-9.28,-3.76,6.41,-0.975,0.992,0.0483,-2.34,3.07,3.35,90.0,1300000000.0,-7.980097399872494,-3.615838738793339,7.284295062586175,-1.0103129487710094,1.1899356278197184,-0.2367193581315199,-2.429775895383358,2.518318813667447,2.8956236208832826
27,1.35,-8.27,-3.95,6.76,-1.18,0.593,0.28,-2.34,3.2,3.16,90.0,1350000000.0,-8.095572825201952,-3.752049673992398,7.017898072613901,-1.1376768360532916,0.7703040356536124,0.12540092882912485,-2.388574376339589,2.805844061899764,3.037577912350039
28,1.4,-8.42,-3.97,5.93,-1.13,1.04,0.392,-0.823,2.38,3.1,90.0,1400000000.0,-8.224800074755207,-3.8408906643753236,6.465131195962802,-1.1319147429280556,0.9598938752326204,0.31223528427064395,-1.6700743829209275,2.6262280176381894,3.0710947750865634
29,1.45,-7.14,-4.81,5.24,-1.05,0.11199999999999999,0.555,0.069,2.66,4.32,90.0,1450000000.0,-7.79269781837051,-4.235919285612005,5.842635411304544,-1.070431033313118,0.3638445933792135,0.482366380634044,-0.8719488122920391,2.6404726848019875,3.741682002716884
30,1.5,-6.46,-4.51,5.81,-0.565,0.28600000000000003,0.39899999999999997,-0.3,2.34,4.04,90.0,1500000000.0,-7.261851941384444,-4.347640243753505,5.8260531563928,-0.6910639520191988,0.30912169990603516,0.42394267131327695,-0.6094603485417358,2.5137367506847705,3.9018608390947906
31,1.55,-7.0,-4.71,5.27,-0.674,0.23600000000000002,1.01,-1.22,1.33,2.46,90.0,1550000000.0,-7.157549956697848,-4.49534545426039,5.543519584276243,-0.6782560874263107,0.2577188801486887,0.8346554513875086,-0.8896595946557163,2.0144503191984446,3.1276681422034285
32,1.6,-8.18,-5.51,3.48,-0.975,0.153,0.9840000000000001,0.271,0.132,3.32,90.0,1600000000.0,-7.56481675039017,-4.908939344631522,4.495034332123436,-0.9009865354968841,0.18410398907308445,0.9393171012097301,-0.3569899690225994,1.22045457968043,3.2309387685390867
33,1.65,-7.09,-6.3,4.02,-0.631,0.628,0.9840000000000001,-0.603,0.294,2.56,90.0,1650000000.0,-7.375685773353776,-5.475963993283562,4.253666854976685,-0.6983396788155023,0.4961523713572185,0.9706311862784098,-0.46989306660131813,0.8296867694859802,2.870684894779254
34,1.7,-8.23,-5.85,2.93,-0.84,0.122,0.825,0.897,-0.138,2.28,90.0,1700000000.0,-7.715979685892369,-5.628428626164301,3.581104728784179,-0.8046672464518698,0.23313212925181748,0.8685718956193591,0.1574247366887821,0.4215277008046109,2.553522549044243
35,1.75,-7.07,-5.85,2.28,-0.5770000000000001,0.505,0.146,0.838,0.581,1.32,90.0,1750000000.0,-7.458670364277462,-5.718745578637507,2.920006490299655,-0.6337844862504087,0.4242487909832523,0.36218881117112733,0.46976590270214297,0.48879125688319697,1.891195015287114
36,1.8,-7.25,-4.96,1.11,-0.565,-0.36200000000000004,0.281,1.88,2.21,1.33,90.0,1800000000.0,-7.375551892730748,-5.409465488756386,2.000332585392977,-0.5821561356969049,-0.12846545310140178,0.3052911561882734,1.1169744994090196,1.214777183145031,1.5898670030013444
37,1.85,-6.25,-3.26,0.785,-0.22399999999999998,-0.35700000000000004,-0.745,1.87,2.22,1.27,90.0,1850000000.0,-6.927217251181478,-4.5332997032169065,1.3828156564355076,-0.31333084475212925,-0.28911981458805214,-0.43075971888577924,1.462565762015602,1.6387685353322876,1.4181176133904092
38,1.9,-5.44,-3.53,0.606,-0.504,0.37,-1.76,1.28,2.68,0.956,90.0,1900000000.0,-6.33482254075836,-4.124334358871569,0.9881114982345334,-0.4564435522941311,0.17422578568153102,-1.362299944538179,1.378779566671473,2.0779479341496234,1.1699881795056004
39,1.95,-6.54,-3.23,0.5579999999999999,0.33899999999999997,1.18,-2.4,-1.15,1.64,0.43200000000000005,90.0,1950000000.0,-6.416549688244475,-3.759785521038928,0.7695695755954336,0.14060148924446908,0.8812611669277612,-2.089526957842423,0.21822908220529702,1.8932265624750397,0.7737328336952011
40,2.0,-8.27,-5.04,-0.38299999999999995,0.636,-1.54,-2.1,-0.315,-0.588,0.831,90.0,2000000000.0,-7.1548241221007105,-4.28162692397635,0.1839428588822697,0.5124383281541922,-0.8208279801104315,-2.0968664670528683,-0.026489469347593414,0.8466739399889267,0.8044818484458175
41,2.05,-6.57,-8.1,0.0431,-0.358,0.0165,-0.569,-2.98,-4.33,1.34,90.0,2050000000.0,-6.92187454609003,-5.838073483609168,0.11237985385956857,-0.1408964070820653,-0.23220626956289836,-1.0261277160625895,-1.3819647258125654,-1.3367871315555857,1.0920229672243724
42,2.1,-8.56,-12.4,0.747,-0.903,-0.33799999999999997,-0.445,-1.26,-0.48200000000000004,1.73,90.0,2100000000.0,-7.5743798468792605,-8.512847826914834,0.4348337104498869,-0.7129171066115982,-0.3065767525519549,-0.6188696288739861,-1.32599059667237,-0.9762478181029108,1.434578347051042
43,2.15,-6.7,-8.59,0.879,-0.493,-0.337,-0.39899999999999997,-1.44,0.45899999999999996,2.02,90.0,2150000000.0,-7.226093052397949,-8.544296681564147,0.6605169656266958,-0.5478514404809058,-0.3279635826569561,-0.4647835555798375,-1.378313755900698,-0.37087691728489514,1.7489146222661427
44,2.2,-6.68,-7.76,0.948,-0.0736,-0.16899999999999998,-0.14400000000000002,-0.985,0.24100000000000002,2.02,90.0,2200000000.0,-7.0085708648894505,-8.224601521020327,0.8065886294801355,-0.19188718136711214,-0.21621595411563999,-0.23997634960322242,-1.197807529230897,-0.11279432267721934,1.8944711869297175
45,2.25,-6.15,-8.02,0.912,0.63,0.0354,-0.315,-0.7390000000000001,-0.175,3.12,90.0,2250000000.0,-6.666581285657837,-8.141201972875528,0.860148707011259,0.42500595996719903,-0.03933590647095725,-0.29255340996867224,-0.9872437907563547,-0.1390319555535509,2.5525065310391706
46,2.3,-5.86,-8.48,2.08,0.537,-0.588,-0.789,-0.972,1.29,1.78,90.0,2300000000.0,-6.345300433071568,-8.279302741989333,1.4799615898609937,0.5090665919223353,-0.425033750893033,-0.6404663906753836,-0.9802478525468772,0.46371715397306884,2.1377168811727674
47,2.35,-5.87,-7.17,1.07,-0.24100000000000002,-1.66,-0.7070000000000001,-1.37,-0.264,1.75,90.0,2350000000.0,-6.155976687117762,-7.827128449235232,1.271657955055915,-0.053919359454407845,-1.293185710119562,-0.6870935887523093,-1.1591195340918221,0.15677448856479326,1.929536190173931
48,2.4,-5.99,-8.91,1.42,0.9129999999999999,-0.508,-0.705,-1.25,-0.16399999999999998,1.22,90.0,2400000000.0,-6.089864052399876,-8.268528820618393,1.3470313142548012,0.6718322161951382,-0.7412187900204114,-0.6996425064944328,-1.2008279420221666,0.021475523078704983,1.5485578640401951
49,2.45,-5.75,-8.88,1.37,-0.8959999999999999,-2.2,-0.461,-0.46299999999999997,0.397,0.473,90.0,2450000000.0,-5.954487950158599,-8.517776936911623,1.3587018279106164,-0.5049533396976376,-1.7667074153723261,-0.5324002830053034,-0.8622114032464114,0.17986740377955424,0.9710478501546259
50,2.5,-4.59,-8.49,0.883,-0.204,-1.55,-0.616,-1.07,-0.735,1.07,90.0,2500000000.0,-5.410979337563198,-8.506454400073133,1.1169952105377505,-0.279063389397283,-1.6143672086241163,-0.5909875059397586,-0.9575733015131074,-0.2060130757734867,1.024179242803384
51,2.55,-4.77,-9.8,1.64,-0.242,-1.21,0.405,0.415,-0.368,0.67,90.0,2550000000.0,-5.155661700096496,-9.033729931923453,1.3827367149096124,-0.2512443016030921,-1.3301066783961097,0.10700701542657431,-0.32764863889520945,-0.2743372843333628,0.8340062593448501
52,2.6,-3.34,-9.4,1.39,-0.149,-0.903,0.42200000000000004,1.02,-0.23199999999999998,1.01,90.0,2600000000.0,-4.432439535729259,-9.1830288938933,1.3864272213768978,-0.17450164425480988,-1.0298608114163141,0.32775614089548455,0.29083716903496604,-0.25647990540105325,0.9285043282575811
53,2.65,-2.87,-9.19,1.86,-0.618,-2.46,-1.13,1.31,2.38,0.6629999999999999,90.0,2650000000.0,-3.81008189497943,-9.185870287257888,1.627052073003765,-0.5073831925968302,-2.0352147683427138,-0.6938488383024914,0.7585686698583467,0.8555568272203241,0.7859444352407203
54,2.7,-2.53,-6.58,1.66,-0.142,-1.66,-0.203,0.8740000000000001,0.511,0.586,90.0,2700000000.0,-3.300194190935954,-8.123664610586879,1.6437930727646248,-0.23313340622520612,-1.771447661925933,-0.3498587766018716,0.8115443835538937,0.7102267392306247,0.6785862895168101
55,2.75,-2.56,-8.6,1.78,-0.674,-1.64,-0.152,1.82,1.53,0.85,90.0,2750000000.0,-3.005356853744054,-8.317828743580657,1.71300052146449,-0.564039643702693,-1.6790430631584645,-0.21119805596536909,1.2743619978536618,1.0559975926867278,0.7706251750833586
56,2.8,-1.49,-7.62,2.11,-0.0748,-0.8029999999999999,-1.3,1.23,-0.569,1.53,90.0,2800000000.0,-2.4017534375402674,-8.033379530487398,1.9147180120013232,-0.19682551807530718,-1.0632055486225431,-0.9742375048182198,1.2540026446189383,0.3705924288879172,1.1783638563189727
57,2.85,-1.7,-9.85,2.76,-0.298,-0.833,-1.31,0.311,0.266,1.37,90.0,2850000000.0,-2.1222280273577048,-8.773871078824532,2.3442102752553438,-0.2727651976421374,-0.9013765108800782,-1.2095420046231358,0.8212238397827303,0.32647655503881734,1.281260964342428
58,2.9,-1.86,-9.2,2.72,-0.428,-0.818,-1.33,0.747,0.111,1.6,90.0,2900000000.0,-2.017776244196576,-8.94756980259745,2.5351510450677317,-0.38928153894737505,-0.842764814294837,-1.2939597811318193,0.7871597641647674,0.23559104070616632,1.4524047057606473
59,2.95,-0.795,-9.49,2.86,-0.0852,0.12,-0.0286,2.54,0.703,-2.54,90.0,2950000000.0,-1.5307147899935176,-9.168675272699904,2.7002084713101566,-0.16104362128638647,-0.16596398619857644,-0.4071874184554275,1.5916029772503308,0.43273872931151236,-0.6912769413648396
60,3.03,2.14,-9.02,-1.32,-0.0852,0.12,-0.0286,1.16,17.4,5.94,90.0,3030000000.0,-0.06857994106993681,-9.108072399045044,0.6575191657064301,-0.10411681542563625,0.03506191183502835,-0.14187089374393935,1.393524388508672,7.589332831591969,2.869320739072558
61,3.08,1.19,7.46,5.3,-0.392,-0.0947,-0.256,0.324,17.2,6.38,90.0,3080000000.0,0.43274302416946997,-2.3545896316618675,3.0163884346117067,-0.3201965412098491,-0.056157635373951284,-0.22185332204941666,0.9026800799785413,11.643001239564697,4.754344821668224
62,3.13,0.826,7.66,6.85,-0.115,0.047,0.0538,1.14,17.6,6.61,90.0,3130000000.0,0.5893868140451014,1.7275604027331761,4.964266786036871,-0.16617985715013356,0.016359734511437463,-0.02867368031292683,1.011594964367547,14.15559447453618,5.750720331311452
63,3.18,0.0742,7.48,7.21,-0.179,-0.0825,-0.22899999999999998,0.439,17.2,6.88,90.0,3180000000.0,0.384175398656361,4.072371603109046,6.10533578039615,-0.17580242041962202,-0.05313631643933636,-0.16906366926715652,0.7488099568688664,15.439689782010149,6.357075785507293
64,3.23,0.8809999999999999,7.78,7.37,-0.257,-0.321,-0.0683,1.34,16.3,8.2,90.0,3230000000.0,0.5820726907180311,5.583676312701707,6.7479183299151675,-0.23674780431298897,-0.24143813977140083,-0.09844783556038784,1.0201289540706706,15.802558344729189,7.3466153576914195
65,3.28,0.311,7.41,7.6,-0.42100000000000004,0.29600000000000004,-0.0323,0.7040000000000001,15.9,8.08,90.0,3280000000.0,0.4740978535603857,6.328122871955369,7.180865504144918,-0.3750440588168571,0.13636812842854223,-0.05209100167872278,0.8750456800984677,15.843657945304473,7.740398845423479
66,3.33,1.21,6.48,8.73,0.79,-0.317,-0.125,0.355,16.1,5.04,90.0,3330000000.0,0.767225557642953,6.3900310812361925,7.967988737641943,0.49941623565782256,-0.1823389142275625,-0.10318610179007559,0.636377473474637,15.951780215528428,6.290446746732995
67,3.38,0.627,6.08,8.67,-0.04,-0.0147,0.11,0.934,16.4,5.56,90.0,3380000000.0,0.7113703038139763,6.263656085733909,8.324684427778688,0.0945404996386463,-0.0644927336402866,0.0462161041606684,0.7729674684526711,16.14083396775127,5.898240660877369
68,3.43,0.309,6.33,5.96,-0.645,-0.0812,-0.0225,1.68,16.2,6.86,90.0,3430000000.0,0.5510964385075867,6.290699181312195,7.123175728595987,-0.4605447519499192,-0.07623754818252103,-0.0019405890853755117,1.1892382287984515,16.165789836601242,6.414647764387098
69,3.48,0.85,6.61,6.31,0.177,0.47100000000000003,-0.136,0.366,16.4,5.13,90.0,3480000000.0,0.6701569924048466,6.420852733361254,6.709996792367903,0.017984414378050817,0.3084574591418285,-0.09589030114986546,0.8114237483523605,16.264576809642644,5.724869092262023
70,3.53,1.61,6.41,7.43,-0.0925,-0.21600000000000003,0.12,0.431,16.0,4.35,90.0,3530000000.0,1.0445192826355976,6.4164288766626685,7.0758341594811975,-0.06494312133507406,-0.06022369970309149,0.05540702383416954,0.6368332138214343,16.152981376069047,4.986646870294422
71,3.58,0.41200000000000003,6.63,5.79,-0.506,-0.19399999999999998,0.5770000000000001,1.27,15.9,4.09,90.0,3580000000.0,0.792571498201027,6.503484850096628,6.422494973528577,-0.3959921512382607,-0.15426526998195644,0.42094278854018286,0.927416867266148,16.046276601161217,4.505201407539845
72,3.63,0.321,6.19,4.89,-0.34700000000000003,-0.22699999999999998,0.747,1.79,15.8,4.39,90.0,3630000000.0,0.6047331270040076,6.375702082695551,5.643826069280498,-0.35921956106569713,-0.20539605875083525,0.6494457878014979,1.3232881606549631,15.942400063993809,4.443345095407493
73,3.68,0.86,6.12,4.42,-0.981,0.349,1.11,2.82,15.6,7.63,90.0,3680000000.0,0.7064121247975967,6.2714726746887,5.02199358148357,-0.8259163327635037,0.18433122646940261,0.9722051844703934,2.010184563984527,15.797979844102478,6.154387549454461
74,3.73,0.95,6.03,4.42,-1.03,1.44,1.62,4.3,15.0,10.5,90.0,3730000000.0,0.8034390838168706,6.173043594507579,4.7161174838071815,-0.9790976945266883,1.0670366330406116,1.4261840067947371,3.061065666885942,15.461401189284292,8.487720573364228
75,3.78,1.37,5.97,7.07,0.884,-0.8009999999999999,1.39,4.96,14.9,8.21,90.0,3780000000.0,1.0291140518490898,6.090278816729727,5.9121377809398785,0.4193085882002514,-0.2461488139772423,1.4008260095228326,3.932556900981611,15.224608509752729,8.338601317191495
76,3.83,2.05,5.47,9.77,0.215,2.13,0.0288,3.56,16.0,11.2,90.0,3830000000.0,1.4357576879218983,5.837440489726125,7.872338299359996,0.2659583861788094,1.4242275261589925,0.4393012601591023,3.7615767301088074,15.551659658567685,9.875000541029983
77,3.88,2.34,5.45,7.81,0.46799999999999997,1.92,0.596,3.13,15.5,10.1,90.0,3880000000.0,1.7959393170378892,5.67951180074944,7.840663849250468,0.4176070383824746,1.7727437865692146,0.549116766994427,3.471722855986312,15.52987021298509,9.995811948868843
78,3.93,0.9620000000000001,6.55,10.6,0.026,1.17,1.03,2.77,14.5,10.5,90.0,3930000000.0,1.4637610481954089,6.0343405452071766,9.24269739840855,0.1236741207949223,1.349029170076567,0.886122843558198,3.14967626836627,15.095482886681488,10.266530666507215
79,3.98,0.213,6.13,9.53,-0.21899999999999997,1.63,1.02,2.72,14.6,10.4,90.0,3980000000.0,0.9655525603932352,6.073333328151869,9.388677240702123,-0.13353066212967496,1.5465449962078894,0.9799448119565644,2.9524819460591174,14.886494105420113,10.3381954817585
80,4.03,-0.603,5.38,9.62,0.0816,0.488,0.618,3.54,14.7,8.77,90.0,4030000000.0,0.3407600049992068,5.790716630971078,9.506213505301423,0.027942391050373744,0.8024129738718,0.7262915138215527,3.2221156987504527,14.8078329715644,9.496168890786555
81,4.08,-0.9940000000000001,5.65,9.23,0.33299999999999996,-0.5579999999999999,0.43,4.56,13.9,7.09,90.0,4080000000.0,-0.1909073132030028,5.733357713578141,9.36586772346534,0.2569129294387145,-0.15392510081106714,0.5186484993244271,3.836120273396064,14.424919379170367,8.204200717869197
82,4.13,-0.366,5.72,7.79,-0.607,0.0898,0.682,5.95,12.5,7.48,90.0,4130000000.0,-0.2606509793844879,5.727912752751185,8.565160943042244,-0.39152395087382624,0.01740786461957422,0.6331262801517176,4.806257795432039,13.613010682399553,7.815348415536892
83,4.18,0.366,5.1,6.16,-0.34700000000000003,0.28800000000000003,0.251,5.69,12.2,7.7,90.0,4180000000.0,-0.011040683727001871,5.471962725054042,7.343085814536205,-0.3581051083170048,0.2076277092815695,0.36532968923816456,5.211839813433555,13.017019063766668,7.7534131382108935
84,4.23,1.52,3.83,6.22,-0.5539999999999999,1.48,-0.10099999999999999,5.43,12.3,9.59,90.0,4230000000.0,0.5988099788838898,4.802665344467069,6.772439839920262,-0.5051401648273034,1.1020752654521258,0.038522808265677944,5.311961515108632,12.714588808732175,8.739550116760768
85,4.28,1.28,3.55,6.13,-0.29100000000000004,1.52,-0.622,2.94,11.4,8.17,90.0,4280000000.0,0.8701444887269923,4.292053493193596,6.446012802871062,-0.344410569047492,1.395866428260812,-0.4243758560861493,4.223380651311011,12.160110315889613,8.43373593445292
86,4.33,1.28,3.65,7.51,-1.16,2.57,-1.07,2.08,9.86,9.36,90.0,4330000000.0,1.033399876677885,4.030339490288518,6.98663046575167,-0.9565767152458811,2.221254434638329,-0.8768334910445255,3.2397039409901223,11.189950283236897,8.93108395075941
87,4.38,-0.532,2.69,5.46,-2.87,2.72,-1.67,-1.38,8.08,14.4,90.0,4380000000.0,0.40986310376150004,3.4839899195714423,6.210941436278386,-2.3927563562535274,2.571860758153774,-1.4326897079781942,1.1195508985967013,9.878209245793098,11.867563371740756
88,4.43,-0.503,1.25,5.45,-1.45,2.38,-2.14,-4.95,6.75,14.6,90.0,4430000000.0,0.0462475615034183,2.573370263511412,5.8243029535973845,-1.6851411053219418,2.436987276096986,-1.928377433401063,-1.6659904644194943,8.558766821626254,13.33471802096712
89,4.48,-2.57,-0.146,9.24,-0.27899999999999997,2.56,-3.19,-11.8,5.28,13.1,90.0,4480000000.0,-0.9958673248351111,1.464899723689235,7.5598366501940175,-0.6297179041309062,2.5234622632100177,-2.8125307718235897,-6.316862435765824,7.175821044456059,13.208688738382415
90,4.53,-4.5,-1.31,8.99,-1.17,1.44,-3.02,-15.0,4.46,13.5,90.0,4530000000.0,-2.3916484318701747,0.3337942707310435,8.286510128724599,-1.0352435070883426,1.7618140295188847,-2.9579265426230283,-10.30187549688161,6.030319202791627,13.365105398796713
91,4.58,-9.41,-2.38,7.5,-1.68,-0.507,-1.12,-12.2,3.65,15.2,90.0,4580000000.0,-5.187228170552663,-0.7724034287272437,7.886880154508425,-1.5191856311115517,0.1668915571354903,-1.669895673851786,-11.172994964990245,5.026328175780204,14.350333550652715
92,4.63,-11.7,-2.51,7.48,-1.17,0.444,-1.5,-13.1,2.96,15.3,90.0,4630000000.0,-7.781423211218726,-1.4806830720493043,7.680142196414215,-1.257093395713946,0.36169222414544244,-1.5508316808767324,-12.057369040225673,4.154774902702487,14.860247528999066
93,4.68,-8.66,-2.62,8.57,-1.12,0.516,-1.72,-14.0,2.58,13.9,90.0,4680000000.0,-8.131381612786223,-1.9450917409392292,8.13228351813161,-1.1541936608055892,0.4701669116549202,-1.6693859589786806,-12.948914255346466,3.4905530580165345,14.344652043636374
94,4.73,-9.19,-2.55,7.5,-0.888,-0.506,-0.41200000000000003,-11.7,2.69,13.3,90.0,4730000000.0,-8.553054847139522,-2.1916646115534943,7.81101690398388,-0.9543936867538831,-0.21605526250287665,-0.7882017031594392,-12.375741212418955,3.1528890755112293,13.783736707857265
95,4.78,-9.32,-2.38,6.86,-1.78,0.0782,-0.8759999999999999,-11.5,1.83,14.1,90.0,4780000000.0,-8.858547597492022,-2.2684339869928154,7.3278002312651696,-1.5740783210148654,-0.009200793717272976,-0.8497313114675594,-11.973831171972106,2.594909805288366,13.953551315648703
96,4.83,-6.97,-1.7,5.91,-0.698,0.00611,-0.637,-11.3,1.04,13.7,90.0,4830000000.0,-8.106293161509996,-2.0367287703435837,6.607408325109214,-0.9165103307078027,0.001562331101515298,-0.7006478421570768,-11.664585206288537,1.93906684467367,13.817409377121127
97,4.88,-6.57,-1.9,6.5,-1.22,0.44299999999999995,-0.42200000000000004,-10.7,-0.10099999999999999,14.8,90.0,4880000000.0,-7.494350370274156,-1.980995337330361,6.552833584586034,-1.1443040211707864,0.3118825346192751,-0.5053696161278749,-11.221901282733903,1.0785902792845032,14.345001660254308
98,4.93,-6.28,-2.21,5.97,-0.8440000000000001,0.115,-0.688,-12.0,-1.84,16.0,90.0,4930000000.0,-7.010645223115762,-2.0743423037006288,6.256692637737911,-0.9189014264740151,0.17347878382898005,-0.6333581930664756,-11.578999569868584,-0.1524373070155136,15.23363642108294
99,4.98,-5.51,-2.86,6.93,-0.254,1.1,-0.586,-12.9,-2.9,15.0,90.0,4980000000.0,-6.412901893885257,-2.394592292023983,6.598803597778128,-0.4198388588452291,0.8248012407010267,-0.6001692811318025,-12.18525536262887,-1.311327464663697,15.10818768788252
100,5.03,-6.57,-4.16,8.16,-0.138,0.894,-0.213,-13.0,-4.89,13.1,90.0,5030000000.0,-6.475477951470559,-3.114208261106651,7.392055705032398,-0.20829588060426685,0.8734463229022793,-0.3288385310279319,-12.559171818216472,-2.8207700300895695,14.029911653474267
101,5.08,-6.93,-5.08,7.47,-0.324,0.154,-0.325,-14.0,-6.43,12.9,90.0,5080000000.0,-6.656525048506264,-3.9155048614177868,7.431659508727852,-0.2951412290899954,0.36769262085302556,-0.32614845516940055,-13.220421174311117,-4.343101351365868,13.423216718007362
102,5.13,-6.86,-6.99,5.76,-0.33799999999999997,0.8909999999999999,-0.488,-14.8,-6.54,11.6,90.0,5130000000.0,-6.737574114205054,-5.16873141929176,6.582280549061572,-0.32731022050273145,0.7355652776933381,-0.439575074062746,-13.945348421512714,-5.269727737426256,12.444258990831072
103,5.18,-7.67,-8.21,5.64,-0.0296,0.391,-0.214,-14.6,-7.13,9.34,90.0,5180000000.0,-7.10898200946445,-6.408414266302714,6.1035027290061965,-0.10385449767739685,0.4933440615788068,-0.28149059645286645,-14.24579242480242,-6.054369077528345,10.777458339722095
104,5.23,-8.11,-8.2,4.57,-0.705,-0.348,0.263,-14.1,-7.03,10.7,90.0,5230000000.0,-7.507711637965906,-7.138700914707795,5.324321933908344,-0.5550630547520374,-0.0981008520127355,0.10009196208939525,-14.178883062536801,-6.465878987870613,10.735867758611704
105,5.28,-7.95,-8.69,2.33,-0.785,0.132,0.0239,-14.6,-6.1,10.4,90.0,5280000000.0,-7.683885753101403,-7.771041752510146,3.802891015183244,-0.7276494445634818,0.06365458901022572,0.04669613988725461,-14.372149379440739,-6.311555428732499,10.555526729159626
106,5.33,-7.51,-8.32,3.48,-0.0632,0.816,0.349,-10.2,-4.15,6.46,90.0,5330000000.0,-7.614622927748725,-7.994808157292026,3.63882838491652,-0.22892611772743066,0.5925355583845129,0.25855265561831786,-12.457395592910725,-5.399836427562264,8.35647474576335
107,5.38,-7.89,-7.27,3.33,-1.43,0.61,-0.657,-13.1,-4.05,6.91,90.0,5380000000.0,-7.724312247198934,-7.699361626182308,3.481911003329977,-1.1304296682739137,0.6048126566817758,-0.38307260245885044,-12.75231070356048,-4.8304911387383225,7.579804555545221
108,5.43,-3.3,-5.47,-0.426,-1.5,-0.622,1.16,-12.7,-3.22,10.8,90.0,5430000000.0,-5.962001260349795,-6.7906284709706615,1.496280664848234,-1.407822246444987,-0.25760752916879537,0.6983226877193252,-12.728303298925521,-4.151204643659947,9.308856307064115
109,5.48,-6.23,-4.91,-0.0359,0.54,2.62,-0.705,-15.8,-2.99,9.36,90.0,5480000000.0,-6.0687516715960745,-6.024046054748272,0.7177715301042583,0.054176713777304375,1.7652822334530833,-0.28513496518721426,-14.138018640079233,-3.661421979836623,9.336317215730901
110,5.53,-5.64,-3.89,4.02,0.705,1.61,0.505,-13.6,-4.37,7.65,90.0,5530000000.0,-5.897969419707674,-5.154165590275931,2.395651346856248,0.5426724862231334,1.6561225163130935,0.268596752894814,-13.89110215720456,-3.9602919326362396,8.430866149740295
111,5.58,-8.1,-3.81,3.37,0.804,1.21,-0.504,-16.4,-4.31,7.11,90.0,5580000000.0,-6.775091805888184,-4.606256376860285,2.890723014948807,0.7388200449582185,1.3425089951152793,-0.2728440809937924,-15.042528018930499,-4.107794720461118,7.721640389069185
112,5.63,-5.41,-5.34,2.37,0.721,1.12,0.0434,-17.3,-4.55,6.33,90.0,5630000000.0,-6.231342541338222,-4.905345239722046,2.6261408269110893,0.725444664347844,1.1860904522798748,-0.051218172121840155,-16.078565076133867,-4.294311865521823,6.974412997718788
113,5.68,-7.93,-5.45,2.26,0.659,-0.526,0.395,-18.6,-5.08,6.55,90.0,5680000000.0,-6.907958973508854,-5.127357502375406,2.4401027230326195,0.6755725267475847,-0.017468545092047538,0.26149443193553273,-17.23574501831391,-4.625705987421975,6.7465287973728705
114,5.73,-8.67,-5.95,1.96,0.48200000000000004,-0.9159999999999999,0.0202,-15.9,-5.86,6.41,90.0,5730000000.0,-7.60982271814316,-5.462683211769861,2.1961599986164804,0.530280603939251,-0.6491148529194573,0.09239372447648203,-16.62272203841913,-5.146316960759292,6.565832952683236
115,5.78,-10.2,-6.78,1.81,0.225,-0.706,0.0667,-16.8,-6.41,7.81,90.0,5780000000.0,-8.641553129861368,-5.999648370460443,1.999950023027636,0.3011426884301572,-0.689103741355385,0.07438739290164344,-16.70408110325002,-5.679323764439594,7.233875940475597
116,5.83,-7.64,-7.72,1.41,0.239,-1.51,0.621,-15.6,-4.92,8.3,90.0,5830000000.0,-8.242610152440163,-6.700898543710349,1.7001932656508874,0.2544995433275327,-1.266174334792137,0.45745705660155883,-16.19737761453146,-5.359049828429219,7.806320664672919
117,5.88,-8.83,-8.39,2.37,-0.19399999999999998,-1.54,0.441,-14.6,-5.85,7.84,90.0,5880000000.0,-8.47658175717114,-7.389410737224854,2.0405255671277858,-0.08213582899352084,-1.4586672561301832,0.44592385451604666,-15.464282107269227,-5.566126883636379,7.8244045279429875
118,5.93,-8.11,-7.18,2.34,0.13699999999999998,-0.619,0.561,-11.8,-4.06,8.36,90.0,5930000000.0,-8.330563207795715,-7.304050598329608,2.192690073617589,0.08234342119180996,-0.8684011023625116,0.5265699581974127,-13.782607575571571,-4.930859986251032,8.111986960924089
119,5.98,-7.47,-8.26,1.53,-0.731,-1.25,0.209,-10.6,-2.77,8.82,90.0,5980000000.0,-7.987779908461663,-7.693715079873543,1.85597371257585,-0.5281369417979886,-1.136656076792951,0.30401487093466517,-12.321991393566456,-4.019434266393947,8.492147297852068
120,6.03,-5.01,-6.54,1.68,-0.386,-0.825,0.218,-9.8,-1.43,9.5,90.0,6030000000.0,-6.801657976741463,-7.223437369683768,1.7665605078217352,-0.42145161750708604,-0.9175692381604816,0.2437350863995691,-11.16455632946018,-2.927240865497321,9.033303698686487
121,6.08,-4.3,-5.15,1.72,-0.9359999999999999,-0.42,-0.20600000000000002,-11.9,-2.84,11.6,90.0,6080000000.0,-5.8051869530491675,-6.378262232115468,1.7429028810128349,-0.8076620008916735,-0.567789855661988,-0.07144218670047581,-11.502078462557096,-2.8904436427854283,10.411465741540987
122,6.13,-3.66,-3.63,2.17,0.19899999999999998,-0.294,-0.49700000000000005,-12.9,-4.47,12.7,90.0,6130000000.0,-4.950706949610829,-5.258014784965079,1.9599132346045498,-0.05208033194510109,-0.375322080601356,-0.3696758756153429,-12.143636197160891,-3.5566821289238177,11.640271157885223
123,6.18,-6.03,-4.72,3.95,-0.409,-1.1,0.19,-12.4,-4.51,13.6,90.0,6180000000.0,-5.38061565489782,-5.038708947815328,2.9710869153407753,-0.3199775655747178,-0.8847534870803104,0.022548615614696732,-12.261290855398409,-3.958780660696373,12.692528110696724
124,6.23,-7.18,-6.29,4.89,-0.483,-0.491,0.36700000000000005,-11.6,-5.11,14.5,90.0,6230000000.0,-6.097354051074099,-5.548760574660897,3.9460967787644234,-0.442339163210479,-0.6079541222027798,0.2639423950969222,-11.957800192455116,-4.4443516991446,13.663032014828918
125,6.28,-7.14,-6.23,5.51,-0.36700000000000005,0.172,0.275,-13.3,-7.21,13.1,90.0,6280000000.0,-6.5126651894892715,-5.826447605891783,4.7407244289645245,-0.3857910067259663,-0.05966486882519406,0.2716916406917584,-12.57378542638779,-5.610870132562609,13.360717825845514
126,6.33,-6.5,-6.73,6.32,0.233,0.0641,0.212,-13.1,-7.1,10.9,90.0,6330000000.0,-6.5076203370693175,-6.194753917623742,5.543162822679305,0.07866194493132905,0.027338896643016322,0.22985934899810823,-12.815284936610155,-6.238967821040882,12.039459862553391
127,6.38,-8.14,-8.82,4.89,0.015,0.778,0.0502,-11.1,-5.19,9.22,90.0,6380000000.0,-7.157836919443189,-7.264857406347606,5.211287255144114,0.030878479612533094,0.5550358464145162,0.10395290927665568,-12.028077397261715,-5.796525369012008,10.525579308618836
128,6.43,-7.83,-8.91,2.85,-0.21899999999999997,-0.0421,-1.55,-11.7,-5.8,9.08,90.0,6430000000.0,-7.425575760739742,-7.93545087265085,4.011504609582879,-0.15667563078540953,0.1352635082203062,-1.055148010889014,-11.877510454891612,-5.797991008564003,9.749389955360535
129,6.48,-5.58,-6.78,1.3,-0.586,1.72,-2.25,-12.9,-7.72,8.37,90.0,6480000000.0,-6.690438103655788,-7.464465719148539,2.633774690163223,-0.478918490763519,1.2492956959129236,-1.8925080543345452,-12.346768559097265,-6.608672049006295,9.00874029104984
130,6.53,-5.87,-6.61,1.27,-0.275,1.63,-0.684,-12.5,-7.19,7.54,90.0,6530000000.0,-6.363637645321257,-7.116168195113804,1.9408335162552475,-0.325861090370831,1.5169217889429802,-1.0455777622757925,-12.417092136128472,-6.853869469040042,8.220114901035412
131,6.58,-6.32,-8.03,1.14,-0.648,1.0,-0.473,-12.4,-6.84,6.88,90.0,6580000000.0,-6.346255780266636,-7.488664486798119,1.53392574548279,-0.5676525317535444,1.153538031458526,-0.6443115362916805,-12.409247747464548,-6.848019552016181,7.500553706157536
132,6.63,-5.42,-7.22,0.79,-0.265,1.45,-0.33399999999999996,-13.3,-5.99,6.54,90.0,6630000000.0,-5.9773056485974045,-7.379151300782406,1.155933133495709,-0.340487191805546,1.3619437974983282,-0.42684318785523323,-12.818046997089942,-6.486116747332104,6.984794006383912
133,6.68,-4.84,-6.62,0.591,-0.475,0.7659999999999999,-0.48,-13.4,-8.39,6.65,90.0,6680000000.0,-5.524289261544501,-7.069705768118246,0.8688876179537304,-0.44144998509696515,0.9430094231048882,-0.4640958199374607,-13.085126584420518,-7.289152794426359,6.805029773454997
134,6.73,-5.44,-5.49,0.735,-0.39399999999999996,1.01,-1.55,-13.2,-8.73,5.64,90.0,6730000000.0,-5.490714825349108,-6.425785525210373,0.80085861535115,-0.4058349091836048,0.9901022031025691,-1.225104496956077,-13.137846157039505,-7.8968852625596755,6.179478648795235
135,6.78,-5.29,-7.31,1.18,-0.386,0.556,-1.47,-12.9,-10.4,6.24,90.0,6780000000.0,-5.410765222882709,-6.786209277240829,0.993502340176126,-0.390947202910404,0.6849386461599343,-1.3967288779625597,-13.02868958137905,-8.952669903005406,6.211974858470454
136,6.83,-4.97,-7.02,0.5529999999999999,-0.45899999999999996,0.5429999999999999,-1.59,-12.9,-12.2,6.52,90.0,6830000000.0,-5.235197651499195,-6.881507115568198,0.7696807476894744,-0.4420263530342501,0.5851591322856635,-1.5321745604159633,-12.969628996539392,-10.322356041919216,6.377365858841494
137,6.88,-4.75,-7.87,1.39,0.618,1.06,-1.75,-13.7,-14.0,6.86,90.0,6880000000.0,-5.041931648776141,-7.284436841589345,1.084868247552813,0.3536095779009475,0.9189609599800697,-1.6848280448775341,-13.304823182585498,-11.873543663334999,6.636511492369782
138,6.93,-4.8,-9.06,1.95,0.855,0.21,-1.54,-13.1,-15.4,7.53,90.0,6930000000.0,-4.945564476173131,-8.00819261173452,1.5244463106357935,0.7299438645240022,0.42057821535505885,-1.5833315825552294,-13.210822421728883,-13.360961936424589,7.1162612985515254
139,6.98,-5.73,-10.3,2.46,1.63,-1.27,-0.575,-10.9,-16.5,5.64,90.0,6980000000.0,-5.258024195015137,-8.94237991986052,1.9998061290902773,1.4055091606601526,-0.7678581601792163,-0.8766862445110795,-12.150300348394342,-14.684971830496067,6.323597527779391
140,7.03,-5.41,-11.5,2.89,1.29,-1.09,-0.209,-9.05,-16.9,7.53,90.0,7030000000.0,-5.3185597865606375,-9.984917801211223,2.452118416763903,1.3188101166380486,-0.9943162566073891,-0.40876738718277605,-10.727457910363476,-15.61924489364591,6.971363349086834
141,7.08,-3.69,-12.8,0.00718,1.16,-0.515,0.315,-8.94,-16.0,7.81,90.0,7080000000.0,-4.669864913218207,-11.132402548062913,1.2098322201956548,1.1996101885834778,-0.6573682863858534,0.09845350235211314,-9.907127155670494,-15.779842987017497,7.421660857525889
142,7.13,-2.09,-13.7,1.41,1.22,-0.7829999999999999,0.42200000000000004,-7.46,-12.0,8.09,90.0,7130000000.0,-3.642242058097849,-12.179007331017877,1.311538515412407,1.2149144211150773,-0.7456843960110121,0.32519698540247727,-8.784049989910777,-14.185548999021826,7.780518939347928
143,7.18,-2.08,-13.3,1.34,0.875,-1.22,0.295,-6.93,-9.35,8.45,90.0,7180000000.0,-3.0199630926772283,-12.635946784243815,1.3259999638738877,0.9597810147340593,-1.0791170361014295,0.3040347324880585,-7.93315778013378,-12.145970604865527,8.139989978339809
144,7.23,-0.907,-9.83,1.13,0.517,-1.06,0.251,-6.02,-8.31,8.9,90.0,7230000000.0,-2.178318602957297,-11.492185864518722,1.2264113386874678,0.6274378819790107,-1.0656781729076494,0.26686763808162645,-7.055138888757515,-10.528002814807019,8.548069532632223
145,7.28,-0.7879999999999999,-7.52,1.02,0.0107,-1.09,-0.156,-5.72,-8.62,9.49,90.0,7280000000.0,-1.6245209485975254,-9.873042236593516,1.1215326313862688,0.16452596420122778,-1.0827758639626535,-0.029480754621278416,-6.442394162921701,-9.723229280661265,9.05382952772855
146,7.33,-0.254,-6.69,1.14,-0.728,-0.828,-0.16399999999999998,-6.08,-10.8,12.3,90.0,7330000000.0,-1.078609188722834,-8.575569607369967,1.1309159922059964,-0.5053873187121211,-0.9036744806369705,-0.12375271966323907,-6.276078039761807,-10.177398777721123,10.796828309934455
147,7.38,-0.366,-6.85,1.47,-1.0,-0.337,0.59,-8.04,-10.5,14.6,90.0,7380000000.0,-0.794759648998704,-7.8721923560009115,1.3032063922610844,-0.8766343455439224,-0.5053157696212478,0.37644980904546055,-7.085607066144557,-10.313468236417103,12.838903412377274
148,7.43,-0.941,-8.67,4.19,-0.18100000000000002,-0.24100000000000002,0.213,-9.73,-14.3,14.8,90.0,7430000000.0,-0.8530107246964159,-8.197394983591392,2.7700015875955444,-0.3545042133420564,-0.31950805016587147,0.2619031197064834,-8.299216602788059,-11.994941236631972,13.891894660009209
149,7.48,-2.95,-8.23,6.48,0.7240000000000001,-1.17,0.49700000000000005,0.501,-12.7,9.95,90.0,7480000000.0,-1.6882924762762683,-8.210685263784303,4.655071497525117,0.45500085856409567,-0.9173836891058219,0.42666054830625555,-4.260471645446603,-12.292326775500827,11.775333752497463
150,7.53,-4.81,-12.2,6.58,0.0467,0.52,0.0367,-7.37,-14.3,11.1,90.0,7530000000.0,-2.9317443393626252,-9.836810882120988,5.633137855767821,0.14853787197655788,0.09306293964087298,0.15337365973655898,-5.68754919190829,-13.139140166099358,11.412720271728025
151,7.58,5.27,-11.0,1.55,1.03,0.263,0.0838,-4.58,-7.16,5.97,90.0,7580000000.0,0.33520952004083915,-10.310950387038249,3.5584737980735492,0.8101468360249535,0.21252467061962038,0.10461598864842954,-5.179253858917743,-10.617208039234143,8.490306093288204
152,7.63,-2.39,-12.5,2.87,-0.758,1.19,-0.058,-8.19,-14.6,6.79,90.0,7630000000.0,-0.7503076278021352,-11.203251461537267,3.208656546065845,-0.36687485903738826,0.8996666840331098,-0.00934635243065736,-6.56099645311064,-12.297103714390662,7.577343768096066
153,7.68,0.613,-5.57,-2.19,-1.14,1.66,-0.488,-8.68,-13.5,7.08,90.0,7680000000.0,-0.2072691151608025,-8.90702384334346,0.4655704491686339,-0.9471681177811959,1.4341629484146035,-0.34478994491612597,-7.533485713423195,-12.804471433874301,7.310299978627962
154,7.73,-2.41,-12.6,-0.86,-1.57,1.67,-0.267,-8.02,-12.6,6.31,90.0,7730000000.0,-1.0846703318819588,-10.412356072251379,-0.20795894453257135,-1.4146541178578658,1.5999507720226167,-0.2902742385082786,-7.756765328226027,-12.71822791246682,6.7731989062186555
155,7.78,-2.31,-10.8,0.10800000000000001,-1.47,1.73,-0.396,-10.3,-11.7,5.0,90.0,7780000000.0,-1.5727488606725368,-10.570367686697178,-0.047418525070707346,-1.456195723221911,1.691372308243799,-0.36436753813538136,-8.923949893667906,-12.288751093213119,5.821097536635811
156,7.83,-1.14,-9.38,0.127,-1.41,1.25,-0.19899999999999998,-9.25,-13.6,5.26,90.0,7830000000.0,-1.4003744788275165,-10.085149691872495,0.04120445605937206,-1.4215220524103778,1.381098043838763,-0.24847689278274393,-9.073586349695443,-12.841820854103014,5.519821964387105
157,7.88,-3.01,-8.0,-0.38799999999999996,-1.0,0.777,-0.503,-10.3,-13.9,5.1,90.0,7880000000.0,-2.0415273936317755,-9.235200335068386,-0.17687661374200073,-1.1051354844519423,0.9564314538131291,-0.42684835605027444,-9.636433032558783,-13.288148399491941,5.294402719726182
158,7.93,-1.73,-9.44,0.5,-0.705,0.9059999999999999,-0.585,-9.94,-14.3,4.15,90.0,7930000000.0,-1.9174384780452003,-9.318680666244544,0.16704798915648797,-0.8048012618401299,0.9209793506331746,-0.5376820414672103,-9.77575095180739,-13.714935764221643,4.679927207596688
159,7.98,-2.7,-9.36,0.838,-0.633,0.7040000000000001,-0.579,-10.4,-15.1,3.25,90.0,7980000000.0,-2.2291517478464775,-9.33552312579503,0.5079622696094642,-0.6758504604187062,0.7684480106851187,-0.5666379328019727,-10.06224175906137,-14.299139975837992,3.9121421339752303
160,8.03,-2.3,-9.42,0.35200000000000004,-0.306,0.588,-0.523,-11.0,-16.8,4.02,90.0,8030000000.0,-2.2573723075208227,-9.369957646261925,0.42871701100608256,-0.39824761859590624,0.6415973386313987,-0.5360561870771461,-10.4926137082174,-15.353973443440957,3.9700553232076574
161,8.08,-2.81,-9.96,-0.165,-0.10400000000000001,0.703,-0.231,-13.4,-16.4,4.9,90.0,8080000000.0,-2.4774973096323043,-9.610470906976312,0.12704624065631714,-0.17739086159763925,0.6847619596188723,-0.3222708319022275,-11.826920661273562,-15.795175167417034,4.469379842360359
162,8.13,-3.4,-11.5,0.8809999999999999,0.5870000000000001,0.861,0.18100000000000002,-13.3,-15.8,6.38,90.0,8130000000.0,-2.84495256286575,-10.380681335291374,0.5101341416915303,0.39634663047242236,0.8086531230696744,0.03042463558295988,-12.50297135395694,-15.797210306361688,5.495268236167168
163,8.18,-5.61,-11.1,2.03,1.66,0.0702,1.12,-9.63,-16.0,2.73,90.0,8180000000.0,-3.9463381315451627,-10.673890385470981,1.2823860430361225,1.3448211879178036,0.28953809447443024,0.7940061392277014,-11.18445856650105,-15.882744650117631,4.010485199404935
164,8.23,-5.35,-10.9,3.51,2.47,-1.58,1.11,-9.39,-19.8,3.99,90.0,8230000000.0,-4.505450689533723,-10.766057100386126,2.414248522439247,2.1893593792424846,-1.024702875159221,1.015456701619297,-10.360915301858228,-17.53499725925032,3.9994858821477064
165,8.28,-1.49,-11.9,-0.915,1.68,-1.68,0.7829999999999999,-10.9,-15.1,6.44,90.0,8280000000.0,-3.3043234838871025,-11.228275097351105,0.7226396528697727,1.8070437173937637,-1.485361174976859,0.8525495282374991,-10.608321038216644,-16.507943782064217,5.309895492950041
166,8.33,-1.46,-16.6,-0.8,1.49,-0.929,1.03,-9.42,-11.5,6.45,90.0,8330000000.0,-2.5696846846570627,-13.417899404882201,-0.051021648819450816,1.5690766405869656,-1.0942524785966548,0.9769079526629136,-10.06295658682697,-14.395651104461434,5.922063071682498
167,8.38,-3.12,-12.7,0.9309999999999999,0.948,-1.35,0.9440000000000001,-7.88,-6.75,6.85,90.0,8380000000.0,-2.7888885880301277,-13.125268951575654,0.44794876437424597,1.1029081417961164,-1.2740369371869245,0.9538458494641645,-9.061117103120381,-11.170804032235969,6.420309448013831
168,8.43,-1.88,-9.83,0.397,0.495,-1.92,0.542,-6.45,-5.7,7.32,90.0,8430000000.0,-2.426856198326694,-11.782050379954018,0.42206143407510344,0.6466236650803752,-1.728133619484709,0.6652215971412262,-7.8627787786214105,-8.863282182217029,6.903389359230617
169,8.48,-0.8140000000000001,-5.6,0.153,0.0443,-1.7,0.233,-5.06,-6.57,8.35,90.0,8480000000.0,-1.7844164267673768,-9.262121069501758,0.2853498887581818,0.19453078938724172,-1.7083563857693176,0.36231788810310306,-6.576479881981296,-7.8960023944678515,7.680132639805174
170,8.53,-0.0192,-4.81,-0.0335,-0.42200000000000004,-1.15,0.12,-6.18,-8.59,11.6,90.0,8530000000.0,-1.081287873873464,-7.447346090601622,0.12334056617848885,-0.2682256821024085,-1.3158450726847402,0.1924999345785088,-6.394520517575293,-8.188722609898358,9.784866312002816
171,8.58,0.816,-5.68,0.5429999999999999,-0.878,-0.332,-0.0115,-8.49,-12.2,14.5,90.0,8580000000.0,-0.325552063288962,-6.726939865228122,0.33657174494222175,-0.725910895019918,-0.6242253121449748,0.049535453908932714,-7.356213469332874,-9.88063286783759,12.31661005849639
172,8.63,-0.639,-7.48,3.61,-0.382,-0.126,-0.125,-9.16,-9.87,14.5,90.0,8630000000.0,-0.4504059848326494,-7.033902476061536,1.999817975942055,-0.4677778095432159,-0.27398473583864613,-0.07278012710015082,-8.184037769355058,-9.876147999079995,13.488959390739128
173,8.68,-2.99,-10.7,6.46,0.0669,-0.907,0.15,-8.36,-10.5,13.1,90.0,8680000000.0,-1.461987933297062,-8.528278195216474,4.266060173494884,-0.06645864688010478,-0.718979456630662,0.08334563876749947,-8.26479318916158,-10.13928154665908,13.280111751515896
174,8.73,-3.8,-8.4,6.41,0.149,-1.05,0.486,-2.43,-13.3,13.4,90.0,8730000000.0,-2.393274875511479,-8.475989242451519,5.355407310063777,0.09526058626130637,-0.9516790140870733,0.36552843436538507,-5.586990766974488,-11.472436058447938,13.34448433937417
175,8.78,-3.45,-9.12,4.69,-0.41100000000000003,0.6709999999999999,0.102,-6.58,-13.8,10.2,90.0,8780000000.0,-2.8141941634996197,-8.738501058278382,5.0173103503612495,-0.28472915019053,0.1890258494515228,0.1808459926424948,-6.042719405396891,-12.454175648035347,11.656084906434469
176,8.83,2.39,-12.1,4.99,1.01,0.19899999999999998,0.265,-4.85,-5.6,4.04,90.0,8830000000.0,-0.7412372550297159,-10.10871644318833,5.003433699978576,0.6870703248424421,0.1960374413946336,0.23982165818153348,-5.495336301808744,-9.563163715025064,7.566704475866402
177,8.88,-1.48,-12.6,1.92,-0.9520000000000001,1.49,-0.28,-8.98,-15.1,6.35,90.0,8880000000.0,-1.0355043973503977,-11.124214366053122,3.4367246365261312,-0.5431852185954913,1.1056624371163375,-0.1244727408267409,-7.094577178043638,-11.898537284812411,6.913407158466302
178,8.93,0.462,-4.54,-4.13,-1.11,1.44,-0.66,-8.54,-12.6,7.79,90.0,8930000000.0,-0.43901203915798803,-8.440354871589344,-0.40796840262566336,-0.9686258019698533,1.340693854364735,-0.49977374467900504,-7.757935166985366,-12.194406293562961,7.384084873044166
179,8.98,-3.1,-13.4,-1.33,-1.37,1.41,-0.313,-8.92,-11.6,6.4,90.0,8980000000.0,-1.4989481012262456,-10.462006784193175,-0.8764575767358218,-1.2698897708756705,1.3894144075067578,-0.36888148540796306,-8.291249744487104,-11.943692765161327,6.85569042089007
180,9.03,-2.14,-10.4,0.7040000000000001,-1.49,1.39,-0.49700000000000005,-10.0,-11.7,5.72,90.0,9030000000.0,-1.754294675772976,-10.436731404311407,-0.07341868880640301,-1.435100398847016,1.389826055084504,-0.45866777970165823,-9.075458451999893,-11.840905899189217,6.2458927263853825
181,9.08,-2.08,-8.7,-0.0168,-1.48,0.8220000000000001,-0.433,-9.27,-13.3,5.77,90.0,9080000000.0,-1.8840309824913768,-9.728804338976659,-0.04465043197042749,-1.4688012139404574,0.9906578246008998,-0.44067963161344365,-9.1647409755312,-12.456334969899254,5.990366889358921
182,9.13,-2.87,-8.23,-0.0766,-0.9470000000000001,0.593,-0.6609999999999999,-9.09,-13.6,5.66,90.0,9130000000.0,-2.276766330892884,-9.117861068126704,-0.060884177330309416,-1.0771470031045136,0.7111138017070763,-0.5950815877597697,-9.130439646843925,-12.938719792815963,5.812979619380645
183,9.18,-2.04,-9.31,0.47200000000000003,-0.6859999999999999,0.768,-0.6,-9.39,-14.2,5.42,90.0,9180000000.0,-2.182456538621228,-9.19618096949984,0.20987710521718728,-0.7835593711150728,0.7511034545959717,-0.598528459748028,-9.249561652912439,-13.47071309367809,5.601973194845467
184,9.23,-1.81,-9.23,0.7659999999999999,-0.644,0.8290000000000001,-0.555,-11.5,-15.3,4.46,90.0,9230000000.0,-2.0340980351459113,-9.209966106489022,0.4924460882786493,-0.6788087129649472,0.8058628758145219,-0.5680234371271263,-10.282371065413173,-14.24228520161289,4.988802161011428
185,9.28,-2.05,-9.53,0.9359999999999999,-0.445,0.628,-0.55,-10.8,-17.1,5.34,90.0,9280000000.0,-2.0404321547725313,-9.340418311452751,0.7178181815787585,-0.5033162610428507,0.68082950734588,-0.5553925035460325,-10.519930220725577,-15.44763636204421,5.1773744004832825
186,9.33,-4.15,-10.3,0.366,-0.0144,0.602,-0.133,-12.5,-17.3,6.54,90.0,9330000000.0,-2.880724275090343,-9.731563371337776,0.5390574930228451,-0.13634486050961758,0.6254142319873605,-0.25937709138983545,-11.428657495165016,-16.22894156582337,5.9090225301199855
187,9.38,-3.42,-11.9,1.55,0.941,0.569,0.5379999999999999,-12.8,-16.6,6.8,90.0,9380000000.0,-3.0955309175830577,-10.615462019360923,1.0527227265483203,0.6722900285727111,0.5857563689327051,0.29942995047989207,-12.058017391018923,-16.38544987609172,6.3874240495232115
188,9.43,-5.0,-12.2,2.88,2.41,-0.40399999999999997,1.39,-9.96,-17.2,-1.75,90.0,9430000000.0,-3.854127183931588,-11.261351799174028,1.9811720735306177,1.9765826936393898,-0.11001889367325546,1.06370852254594,-11.09515961158218,-16.729018004788667,2.0181158149781746
189,9.48,-3.35,-10.9,4.93,2.3,-1.86,0.9229999999999999,-9.88,-16.4,7.73,90.0,9480000000.0,-3.6533210509407903,-11.11405731249278,3.479487119431951,2.2193336384741538,-1.340214116131186,0.9650990596224429,-10.537477963488435,-16.590241860659543,5.085054754848667
190,9.53,-2.2,-13.8,-6.7,1.62,-0.664,0.7909999999999999,-10.6,-12.5,6.43,90.0,9530000000.0,-3.0744280161021433,-12.208902172155755,-1.6927642607833198,1.7694850235655732,-0.8648516128987036,0.843089312582038,-10.566171814118448,-14.865025223276623,5.807209523832933
191,9.58,-2.3,-13.8,2.07,1.25,-0.986,0.912,-8.63,-8.28,6.92,90.0,9580000000.0,-2.7659545191221286,-12.857466034392989,0.21911621337994935,1.3795692818579344,-0.9500160566879573,0.8913823707476638,-9.677590992416564,-12.087537749312508,6.404711250989047
192,9.63,-3.21,-10.7,0.28300000000000003,0.466,-1.68,0.7440000000000001,-6.29,-6.87,7.57,90.0,9630000000.0,-2.9428286285162004,-11.978038990127748,0.25157590082512793,0.6938612602530526,-1.4631774184990622,0.78809585934413,-8.122900144477084,-9.886840715892754,7.030401450458992
193,9.68,-1.54,-7.08,0.263,0.168,-1.78,0.536,-5.25,-7.21,8.13,90.0,9680000000.0,-2.3840479170399975,-9.981498803908309,0.2573805521136021,0.29915963285541336,-1.6858961589117287,0.6114254512294488,-6.804419985164724,-8.75778032528648,7.620819925395475
194,9.73,0.20800000000000002,-6.03,0.271,-0.13699999999999998,-1.28,0.401,-5.87,-6.72,8.94,90.0,9730000000.0,-1.3515723082350832,-8.37078773526961,0.26430066483865083,-0.02821362507284031,-1.4005607659658268,0.46395792187942364,-6.3755800325610235,-7.8982681002774235,8.329140211312037
195,9.78,0.6659999999999999,-6.54,0.33799999999999997,-0.531,-0.6970000000000001,0.23,-7.3,-10.1,13.3,90.0,9780000000.0,-0.547924278053342,-7.624521461665593,0.3017476882704796,-0.4055956870615287,-0.9059742530337691,0.29999869184842703,-6.79983064209359,-8.826933272650265,10.99819362535098
196,9.83,-0.371,-6.05,0.843,-0.898,-0.34299999999999997,-0.0677,-9.46,-12.0,16.9,90.0,9830000000.0,-0.47745104005427624,-6.982714618387986,0.5767608602375365,-0.7751851553494715,-0.5102167018599985,0.04231305862432766,-8.02068079097502,-10.165296062929672,14.167109165176687
197,9.88,-2.0,-9.17,5.1,-0.0718,-0.5539999999999999,0.0257,-9.05,-12.1,12.8,90.0,9880000000.0,-1.0839192505446589,-7.874296587462191,2.8750426453893807,-0.24723741530627474,-0.5409953360964357,0.030670518542392444,-8.493073543221437,-10.981331933782473,13.43305371185432
198,9.93,-4.33,-10.8,8.59,0.376,-1.06,0.376,-0.718,-14.1,13.6,90.0,9930000000.0,-2.376911980991755,-9.066872787383828,5.778842911702264,0.2205529212873516,-0.9058432650527669,0.2726796556162121,-4.924804652792068,-12.296750159824402,13.522694051824462
199,9.98,-4.24,-11.1,4.29,0.201,0.302,-0.0531,-1.93,-6.2,7.23,90.0,9980000000.0,-3.1190250740936833,-9.89561688073579,5.022353900397337,0.20587686806496236,-0.0567581065809325,0.0443711538436789,-3.5503779806814624,-9.725211483855016,10.143895099300632
200,10.0,3.89,-13.3,4.94,0.111,0.885,-0.213,-7.14,-11.0,3.29,90.0,10000000000.0,-0.3271602018202846,-11.283312649498512,4.980509475229225,0.13466406664336567,0.6052754994024976,-0.13599622398128014,-5.197788262227333,-10.262902513412712,6.463764841800699
201,10.1,2.95,-5.48,-1.24,-0.995,2.76,-0.33,-10.8,-12.4,5.89,90.0,10100000000.0,0.9782122783380922,-8.917764575521419,1.8198355637061572,-0.7132406549628749,2.1199957117319608,-0.27195534090656764,-7.768850570188148,-11.164305317220792,6.155687492496935
202,10.1,-1.73,-10.1,-4.84,-0.9420000000000001,1.65,-0.541,-8.19,-11.6,6.95,90.0,10100000000.0,-0.10053442133966262,-9.39966789727008,-1.56406233968432,-0.8849431192819308,1.7895998567928235,-0.46050359346628894,-7.962131431384741,-11.348076448433721,6.5821855249620365
203,10.2,-4.55,-11.0,-1.56,-1.3,1.77,-0.662,-10.1,-12.3,6.81,90.0,10200000000.0,-1.8728646476855635,-10.051995759720464,-1.561998214238224,-1.1964770145088166,1.7758216089207568,-0.6017135857214877,-8.94327858309337,-11.74958685629819,6.704508191896965
204,10.2,-1.41,-9.64,0.156,-1.3,1.9,-0.574,-10.3,-11.5,4.82,90.0,10200000000.0,-1.6884944092177032,-9.884058061751638,-0.6890741942271251,-1.2741793952278968,1.8631160558762188,-0.5822917253097442,-9.565928320789446,-11.644314011408694,5.692640509842965
205,10.3,-2.76,-9.63,0.836,-1.18,1.36,-0.439,-10.6,-12.4,4.69,90.0,10300000000.0,-2.115301092932895,-9.780498883362961,0.08582411764158637,-1.2034900634282835,1.5094374113550466,-0.48187195981580155,-10.040502244957061,-11.963053446984942,5.154282774118457
206,10.3,-2.62,-8.34,-0.381,-0.92,0.8240000000000001,-0.627,-9.82,-13.3,4.18,90.0,10300000000.0,-2.31633487355534,-9.193322349001095,-0.1513717024025304,-0.9907077370345931,1.0275911687708723,-0.583578616020866,-9.939305467203809,-12.526962096934644,4.631151317300492
207,10.4,-2.67,-8.8,0.12,-0.807,0.7709999999999999,-0.696,-9.81,-13.7,3.74,90.0,10400000000.0,-2.457208308998261,-9.032996250237904,-0.01348630029322695,-0.8528201319160602,0.8472136822926819,-0.6623642388937641,-9.879962597222654,-13.021735816076975,4.152656559802157
208,10.4,-1.85,-9.29,0.079,-0.6609999999999999,0.593,-0.7020000000000001,-11.4,-14.8,3.46,90.0,10400000000.0,-2.215342509091987,-9.137756181975648,0.03350648200504328,-0.7088435389216907,0.6685074892912345,-0.6901412533787884,-10.57756382010788,-13.771787130727212,3.7807415870342522
209,10.5,-2.1,-9.5,1.19,-0.28,0.625,-0.515,-10.6,-16.6,4.47,90.0,10500000000.0,-2.169398749804077,-9.285414118159393,0.621127010673834,-0.38696160103121924,0.6379227562125764,-0.5674011141369261,-10.587860788157974,-14.96469471919462,4.150831866765931
210,10.5,-3.47,-10.1,0.12,-0.0431,0.932,-0.209,-15.7,-16.7,4.26,90.0,10500000000.0,-2.6874598111358514,-9.61745602059966,0.36650171328414477,-0.1288655148077606,0.8446520707166962,-0.3162312872888337,-12.934010508653442,-15.696626707474888,4.209448723973067
211,10.6,-2.63,-11.8,1.47,0.7,0.715,0.146,-14.9,-15.9,4.31,90.0,10600000000.0,-2.664572219113104,-10.507105344498852,0.9271950689011457,0.49326542770861964,0.753509721602083,0.007703402979593876,-13.836275642991614,-15.782407045581635,4.263438692500074
212,10.6,-7.67,-11.8,1.56,1.78,-0.774,1.37,-6.92,-17.7,2.74,90.0,10600000000.0,-4.658355640955506,-11.03411553818275,1.2487265866731723,1.4590643077930725,-0.3202933761150908,0.9624097197915178,-10.662140917648584,-16.59122586305695,3.445443569991233
213,10.7,-6.63,-11.4,1.48,2.83,-2.74,1.2,-9.33,-18.3,6.33,90.0,10700000000.0,-5.443709496243402,-11.183257319210938,1.3662378461618423,2.4880629377115238,-2.021289749784705,1.128914566499832,-10.050772132939374,-17.311966678582365,4.994277175391685
214,10.7,1.36,-14.2,-1.14,1.87,-0.9740000000000001,0.6709999999999999,-11.2,-13.5,6.06,90.0,10700000000.0,-2.7336268387334273,-12.41294281807918,0.09280509107623214,2.0241564611273954,-1.2850698787920098,0.8080050633992355,-10.578195229311547,-15.704123289590408,5.566506327387606
215,10.8,-1.54,-15.7,0.965,1.67,-1.01,0.935,-9.48,-9.38,6.41,90.0,10800000000.0,-2.258176278483013,-13.75281399678964,0.5359719439293364,1.7583332136994003,-1.0917022712935431,0.8970039424193238,-10.074192600736152,-13.03668138998902,6.019411713711228
216,10.8,-3.6,-11.7,0.163,0.866,-1.41,0.9059999999999999,-6.54,-5.34,6.66,90.0,10800000000.0,-2.792657201430572,-12.916045248183417,0.3464629193257941,1.0885645921069282,-1.3154580018526911,0.903308450766843,-8.452220851208692,-9.790310398798717,6.3633690877521065
217,10.9,-2.14,-8.37,-0.012,0.359,-1.88,0.56,-5.25,-5.2,7.38,90.0,10900000000.0,-2.532688036689674,-11.062984843443358,0.16432600586785323,0.5409670538273845,-1.7123176336188246,0.6627156577910284,-6.982603236349515,-7.854170564138336,6.909238921912422
218,10.9,0.28,-4.84,-0.371,-0.177,-1.4,0.368,-5.69,-5.67,8.48,90.0,10900000000.0,-1.4123261134431009,-8.526369915502803,-0.10767597715763694,0.002074412011406901,-1.4927657278481736,0.4561770089357312,-6.389379817560643,-6.932912752772065,7.752643084103335
219,11.0,0.9309999999999999,-4.92,-0.22699999999999998,-0.716,-0.914,0.247,-7.5,-10.3,13.0,90.0,11000000000.0,-0.47892244069970136,-7.0563403357652055,-0.16830514602410346,-0.5368988254339911,-1.0859071303370869,0.3095843966478872,-6.899084506703153,-8.353111231343151,10.570158755240998
220,11.0,0.0215,-5.34,0.515,-1.03,-0.174,-0.10099999999999999,-10.0,-13.0,18.4,90.0,11000000000.0,-0.2795920345668087,-6.356725223989427,0.17888582100571288,-0.9070113221188256,-0.44485804243590876,0.02184417920416898,-8.322209345022365,-10.313115086582636,14.774313282637362
221,11.1,-2.02,-9.62,4.91,0.0742,-0.924,0.0447,-10.1,-11.1,12.8,90.0,11100000000.0,-0.9728387678538872,-7.686902242208932,2.582789988714919,-0.17053245965469455,-0.7816834919384752,0.03786168734186487,-9.138103421071376,-10.645014189055827,13.714225667991656
222,11.1,-4.73,-12.0,10.2,0.6,-1.76,0.682,0.71,-7.8,10.3,90.0,11100000000.0,-2.4694072989782887,-9.445008472834377,6.453134759890228,0.4078148096279649,-1.4694167870853434,0.48927799230326147,-4.6184444401600615,-9.445020239871809,11.880991538667201
223,11.2,-5.29,-10.5,4.31,-0.45899999999999996,0.563,0.17300000000000001,-9.02,-20.6,16.7,90.0,11200000000.0,-3.5929178262436485,-9.875044442646677,5.364196575340003,-0.24280016624326373,-0.0406759733807589,0.26762831378331464,-6.638481332311979,-14.15006164953985,14.468510212613527
224,11.2,5.12,-7.43,1.54,0.384,0.902,-0.155,-3.63,-4.26,5.67,90.0,11200000000.0,-0.12235119631055902,-8.878394607199008,3.4211019625298604,0.22766431673109072,0.6220028849367684,-0.028552357474911805,-5.257778002593963,-9.978548304139078,9.744238433683485
225,11.3,-4.3,-19.9,8.12,-0.599,0.8740000000000001,-0.0952,-6.44,-12.7,6.71,90.0,11300000000.0,-1.7864102028569053,-13.371024621650164,5.808636956986533,-0.3928144394505914,0.799150889110843,-0.07525946026726812,-5.800343439796182,-11.126425024983451,8.115034557062703
226,11.3,1.37,-3.78,-2.75,-0.982,1.5,-0.718,-10.8,-13.8,7.66,90.0,11300000000.0,-0.5291353955756217,-9.461528212660621,1.459948057083305,-0.8350460954572956,1.291831191609435,-0.5256962062303567,-8.094870885226971,-12.254108060456659,7.870708233181789
227,11.4,-0.8190000000000001,-11.7,-1.27,-1.51,1.41,-0.36700000000000005,-7.65,-10.8,6.79,90.0,11400000000.0,-0.6445955062352231,-10.373974691287161,0.07284695793984097,-1.3416538640188647,1.3749010377635098,-0.4144808825123458,-7.890703221754566,-11.64078220471155,7.290432765131877
228,11.4,-4.6,-12.2,0.23199999999999998,-1.65,1.24,-0.514,-9.06,-11.2,6.76,90.0,11400000000.0,-2.2201290952157313,-11.118299609820843,0.15371346061317123,-1.5730926881686758,1.2800688144482604,-0.4842245261642034,-8.427336964032223,-11.454865296128782,7.005622334410412
229,11.5,-1.04,-8.55,-0.0838,-1.5,0.746,-0.551,-8.72,-12.7,5.89,90.0,11500000000.0,-1.7500550138649689,-10.07140861305399,0.03303160815351133,-1.5182306836298733,0.9046310990213393,-0.5310212117647962,-8.561650980863481,-11.9800486107155,6.4066000386468085
230,11.5,-2.17,-8.25,0.44299999999999995,-1.08,0.743,-0.691,-9.14,-13.1,6.14,90.0,11500000000.0,-1.9173293263604123,-9.328965475673057,0.24133872004107315,-1.1893029618249145,0.7910082494630235,-0.6431353761221443,-8.827076899344995,-12.45243129462361,6.2634517498927815
231,11.6,-1.69,-9.1,0.0575,-0.7959999999999999,0.8740000000000001,-0.682,-9.59,-14.2,5.99,90.0,11600000000.0,-1.8267785600636695,-9.23563465376264,0.14792929039744424,-0.8940971182843556,0.8493494907761988,-0.6703719442187319,-9.177210604622763,-13.18953545108539,6.116624452293294
232,11.6,-2.03,-9.08,0.742,-0.584,0.618,-0.594,-10.8,-14.9,4.69,90.0,11600000000.0,-1.9077265813769966,-9.17219477737219,0.4497797653138291,-0.6613440152323727,0.6867162653669076,-0.6168499764062957,-9.921968780830438,-13.910989423698982,5.350612790733172
233,11.7,-2.44,-9.77,0.9790000000000001,-0.10800000000000001,0.688,-0.445,-9.95,-16.9,5.95,90.0,11700000000.0,-2.119744027697927,-9.415872512128153,0.7186793636354406,-0.24601434981563325,0.6876187167919268,-0.4964163904807099,-9.93483325678771,-15.171719300586654,5.672447639183101
234,11.7,-3.57,-10.2,-0.012,-0.0944,0.654,-0.267,-15.1,-17.2,6.2,90.0,11700000000.0,-2.697416159712822,-9.735498721436716,0.347417297671822,-0.13221545746071078,0.6639855451805932,-0.3356398850763953,-12.305319535789682,-16.027224926745927,5.95571148617736
235,11.8,-2.67,-12.1,1.5,0.83,0.652,0.23800000000000002,-13.5,-14.7,7.77,90.0,11800000000.0,-2.6864956681640355,-10.69931761316461,0.9330506910526999,0.5900054541178283,0.6555599982262712,0.06637068029816906,-12.853602598049088,-15.467416746145783,6.929875498241136
236,11.8,-7.67,-12.4,1.95,2.05,-0.509,1.29,-8.4,-16.3,-1.29,90.0,11800000000.0,-4.671546448059626,-11.392550133699283,1.449768061023039,1.6858500152310802,-0.16309806230898627,0.9238980374115419,-10.809679429595642,-15.818590396568561,2.5162958056812474
237,11.9,-5.9,-10.4,3.32,2.58,-2.68,1.11,-8.68,-18.9,8.75,90.0,11900000000.0,-5.160869356388109,-10.987966388344336,2.4000428096590554,2.3569822114354406,-1.9324204765696735,1.0543195129391074,-9.832290891867542,-17.118293112792852,5.863420756057986
238,11.9,-0.943,-13.1,-6.81,1.75,-0.9570000000000001,0.63,-9.54,-12.7,7.62,90.0,11900000000.0,-3.4807896107332765,-11.848874332269117,-2.2796288350727867,1.9013927171498208,-1.2467230282379536,0.7569536358092682,-9.698147770773703,-15.254708176802186,6.80659830320926
239,12.0,-1.77,-16.7,2.14,1.4,-1.05,1.04,-7.95,-8.0,7.49,90.0,12000000000.0,-2.7993405719113014,-13.82629197551801,-0.03399189433543448,1.5250567043255379,-1.1084313716635754,0.955314341597979,-8.895857998460395,-12.194756302963881,7.173543867685464
240,12.0,-2.89,-11.3,0.532,0.695,-1.38,0.996,-5.51,-4.92,8.04,90.0,12000000000.0,-2.8354524646546664,-12.796524143527154,0.25359159629647904,0.9020316629221424,-1.2993376730768553,0.9838271098820575,-7.341962608108954,-9.126348393918565,7.638778777907438
241,12.1,-1.64,-7.43,0.00718,0.166,-1.66,0.626,-4.65,-5.18,8.46,90.0,12100000000.0,-2.359274722779702,-10.609019856546198,0.1283885554171381,0.34958005948166004,-1.5528747113958845,0.7330595354978504,-6.1065214217922,-7.461824281607781,8.07972529770424
242,12.1,0.196,-4.8,0.0646,-0.188,-1.34,0.45299999999999996,-5.0,-6.16,9.57,90.0,12100000000.0,-1.3414467736659983,-8.241145479054897,0.09597725070931233,-0.05391747288476484,-1.4032288616254727,0.5367919982944378,-5.598697805544422,-6.9127298149877,8.879913189528494
243,12.2,0.45299999999999996,-5.2,0.0814,-0.72,-0.765,0.326,-6.51,-10.1,13.3,90.0,12200000000.0,-0.6266750600661949,-7.001512748579704,0.08857047196786326,-0.5538665801210219,-0.9545690991012838,0.3890675987320754,-6.016928201269629,-8.257083620082497,11.25323457652295
244,12.2,-0.4,-6.12,0.903,-0.986,0.0,0.0184,-9.74,-11.7,17.4,90.0,12200000000.0,-0.5363848834985964,-6.6421902050427475,0.5023864398217094,-0.8782178430892034,-0.283529662517895,0.12930133557575763,-7.725583479797834,-9.709265787553424,14.553678420964088
245,12.3,-2.05,-9.67,4.54,-0.0883,-1.0,0.162,-7.45,-10.6,13.2,90.0,12300000000.0,-1.1392945082832495,-7.87638699322828,2.553919317498413,-0.28532028336146553,-0.7871913168133787,0.15221677256017524,-7.5991079381656785,-10.084967321415563,13.826834266225676
246,12.3,-5.49,-11.1,8.6,0.309,-1.18,0.6890000000000001,-1.17,-6.73,11.0,90.0,12300000000.0,-2.8722860274634536,-9.190397271051765,5.625965221880909,0.1607653936374135,-1.0633264677431136,0.528397956112902,-4.648552440638992,-8.669880975655332,12.30899395681749
247,12.4,-3.75,-10.1,4.1,-0.515,0.586,0.0667,-8.06,-24.6,18.6,90.0,12400000000.0,-3.2219008091553474,-9.56116996984659,4.850614138512645,-0.3464514598806694,0.09611093878635746,0.2048370239074444,-6.214192124794131,-15.389020813996321,15.686886765097437
248,12.4,2.31,-6.43,1.86,-0.33799999999999997,1.31,-0.254,0.281,-3.18,6.55,90.0,12400000000.0,-1.0184104532485327,-8.284841436603969,3.331067216357157,-0.3401079518211076,0.9494461180638587,-0.11671895169691321,-3.233308174294507,-10.239397286380822,10.780927151280151
249,12.5,-4.2,-23.8,9.66,-0.322,0.3,0.23,-3.72,-9.22,6.57,90.0,12500000000.0,-2.2857147265557263,-14.609134816888869,6.546831504435407,-0.3265164595675043,0.49290090874613424,0.12626394710218394,-3.456669071417167,-9.809427431835088,8.519912140246753
250,12.5,4.36,-2.64,-2.36,-0.922,2.23,-0.632,-13.4,-17.8,8.26,90.0,12500000000.0,0.36143482636226487,-9.730272455301066,2.0212231587241565,-0.7734752596810534,1.71404038349032,-0.4051323779919651,-8.020031313246633,-13.179758060243199,8.380355046051863
251,12.6,0.804,-8.32,-2.08,-1.15,1.84,-0.725,-7.33,-9.3,6.58,90.0,12600000000.0,0.5377192862306995,-9.155416640220837,-0.0626300744746473,-1.056087668964284,1.8025870299016185,-0.6292977041299516,-7.703350380858157,-11.543321132180028,7.413672418564632
252,12.6,-7.96,-16.3,0.22699999999999998,-1.39,1.35,-0.514,-8.95,-11.1,7.59,90.0,12600000000.0,-2.847128602068791,-12.067693589203103,0.0845325038636501,-1.3067160080638305,1.4844290989176403,-0.5484963223545294,-8.275483923380525,-11.356333574750069,7.508349826987465
253,12.7,-1.31,-7.18,-0.8640000000000001,-1.39,0.823,-0.616,-8.16,-12.4,6.6,90.0,12700000000.0,-2.2348529434089444,-10.075370359607243,-0.3974219111839532,-1.369227403844764,1.019460139608034,-0.5958033362492046,-8.222484008582375,-11.796539822678618,7.020620445866404
254,12.7,-2.61,-8.28,0.63,-1.08,0.848,-0.825,-9.04,-12.9,6.65,90.0,12700000000.0,-2.384283080925557,-9.343540834234437,0.1246166169603693,-1.1521387567363408,0.8989277210466998,-0.7564258401934989,-8.597672323561167,-12.261966382608124,6.821619565554654
255,12.8,-1.66,-9.0,0.10300000000000001,-0.976,0.789,-0.9059999999999999,-9.91,-14.6,7.44,90.0,12800000000.0,-2.095783534588405,-9.203506614038336,0.11363309911949664,-1.0199323088418188,0.8216511226063359,-0.8612483966842789,-9.199947973845532,-13.248122040638709,7.153652768921476
256,12.8,-2.44,-8.9,0.608,-0.691,0.524,-0.606,-9.92,-14.9,5.89,90.0,12800000000.0,-2.232893331378996,-9.0797909994601,0.364823537518146,-0.7730418590594554,0.6124094352736136,-0.6823686648898166,-9.53040652200443,-13.944864868418286,6.475147015919292
257,12.9,-3.29,-10.1,1.77,-0.19899999999999998,0.61,-0.315,-10.8,-17.0,6.57,90.0,12900000000.0,-2.6539645634686084,-9.495649060598103,1.0788011524778782,-0.3421767778329249,0.6107156694784335,-0.4249143140643507,-10.113070025233968,-15.233485477667033,6.5260774666287835
258,12.9,-3.24,-10.2,0.488,-0.0638,0.639,-0.266,-14.7,-16.5,6.68,90.0,12900000000.0,-2.887396707597192,-9.782756728756176,0.7786119514525078,-0.13323237517681455,0.6305988819931378,-0.3135461312721161,-12.218181796706562,-15.767686632476883,6.608724535087607
259,13.0,-4.0,-12.2,1.4,0.7120000000000001,0.23,0.32,-11.6,-16.0,7.53,90.0,13000000000.0,-3.330573607309693,-10.768074094471427,1.0943425075154476,0.5011832448431925,0.34898737212768677,0.13044711211882293,-11.934475475617647,-15.865673719889045,7.1033942693113294
260,13.0,-7.87,-11.7,1.64,1.91,-1.03,1.52,-4.41,-16.8,1.83,90.0,13000000000.0,-5.13873728811577,-11.147945940107034,1.3715939706203386,1.558614724257025,-0.6204080240995637,1.104254798090371,-8.481215241672352,-16.25976140024342,4.27189812542483
261,13.1,-4.62,-11.7,2.16,2.75,-3.12,1.16,-8.76,-17.5,9.2,90.0,13100000000.0,-4.932111588371968,-11.372974307538431,1.7721873056410882,2.4528462273375835,-2.3775618183941853,1.1433213746776107,-8.609159985960273,-16.78287967527851,6.917992901466437
262,13.1,2.35,-13.8,-4.6,1.94,-0.48700000000000004,0.7120000000000001,-9.28,-12.4,7.84,90.0,13100000000.0,-2.031469808083113,-12.362279342285007,-1.465554863899328,2.067913484848426,-1.0485416916006929,0.8410485593422476,-8.9170331635966,-14.934231636568988,7.413055448301666
263,13.2,-2.82,-15.5,1.65,1.74,-0.9790000000000001,0.9840000000000001,-6.99,-7.56,8.06,90.0,13200000000.0,-2.3455604984346397,-13.641277998952628,0.11747509964385094,1.821787763909437,-0.9996555123252913,0.9412298775388631,-8.03264624914028,-11.823866127769817,7.7604260625478165
264,13.2,-3.53,-11.4,-0.0407,0.961,-1.42,0.946,-4.06,-3.97,8.31,90.0,13200000000.0,-2.8173514926781857,-12.727687418245571,0.03710549142700176,1.1756965883451675,-1.2951476874311532,0.9445727963419911,-6.209451891003081,-8.51119638264551,8.055514501987883
265,13.3,-1.62,-7.44,-0.139,0.335,-1.85,0.47200000000000003,-3.09,-4.56,8.85,90.0,13300000000.0,-2.340417329440146,-10.572318674695753,-0.05237464348333584,0.5446854606478555,-1.6851957201639942,0.6133907097851239,-4.777819974631109,-6.844627493116381,8.482105727211444
266,13.3,0.594,-4.36,-0.311,-0.336,-1.54,0.28300000000000003,-2.67,-4.98,9.91,90.0,13300000000.0,-1.1715676816154326,-8.040051485956095,-0.18378355557416562,-0.1163405694702132,-1.5831265457658072,0.38185074666880214,-3.810463444434968,-6.058149223535184,9.248799154945097
267,13.4,0.7809999999999999,-5.04,-0.146,-0.907,-0.602,0.0325,-5.67,-11.0,16.0,90.0,13400000000.0,-0.39381256839925727,-6.817169563747072,-0.164585529196683,-0.7097947526579138,-0.8934178527152442,0.1370234709288314,-4.663873598398692,-8.142564636966517,12.87378874204842
268,13.4,0.6629999999999999,-5.25,0.6920000000000001,-1.26,-0.428,-0.331,-8.78,-14.1,19.9,90.0,13400000000.0,0.02714152668931008,-6.17835942560604,0.27065011393352223,-1.1227685125515292,-0.5662401430281399,-0.19097042096879843,-6.552916157742057,-10.655342025856513,16.646442207497454
269,13.5,-2.52,-10.7,6.73,0.40299999999999997,-0.789,0.0703,-3.5,-6.74,11.8,90.0,13500000000.0,-0.987446767433338,-8.021471865336597,3.5526801117292717,0.022444791283084964,-0.7228350213850563,-0.007870412507200858,-5.151819990245543,-9.00389601629615,14.044193770742266
270,13.5,-5.92,-13.5,10.5,0.359,-1.13,0.5660000000000001,2.62,-9.14,10.5,90.0,13500000000.0,-2.952202487656448,-10.254631183557436,7.082650249969285,0.27505683370371853,-1.0090623410245996,0.394301693453447,-1.5850443305704767,-9.061303244867284,12.141174469660772
271,13.6,-1.15,-6.41,2.26,-0.998,1.28,-0.645,-9.05,-19.6,11.6,90.0,13600000000.0,-2.2343414790169533,-8.687481379376633,4.632236035996886,-0.6804758324404621,0.600094173546198,-0.33404767796897505,-5.010988741026397,-13.50640362176151,11.850596470349789
272,13.6,4.98,-8.77,0.9840000000000001,0.58,0.924,-0.561,-2.04,-4.61,9.99,90.0,13600000000.0,0.6393058671868661,-8.721117831412913,2.7785479410929868,0.2656137376299197,0.8277923047061655,-0.49309733364482505,-3.6474920784604477,-9.754003682184225,10.851567732306282
273,13.7,-6.09,-18.9,2.3,-0.494,0.972,7.64e-05,-3.31,-11.2,7.82,90.0,13700000000.0,-2.0411400738096326,-12.870236746792198,2.53539516602809,-0.30453811611408765,0.9291668962490197,-0.14747797426458065,-3.4926044518665815,-10.36390809884603,9.223797933695197
274,13.7,1.43,-4.03,0.84,-0.9590000000000001,1.53,-0.48100000000000004,-8.7,-14.3,8.26,90.0,13700000000.0,-0.6585007416798447,-9.266776818762693,1.6739558631860203,-0.7957649579902504,1.351538297756471,-0.38121238295761256,-5.882470829096684,-12.024106149360087,8.706296421859475
275,13.8,0.615,-10.3,-1.12,-1.36,1.73,-0.498,-6.71,-9.45,7.79,90.0,13800000000.0,-0.15123447834995196,-9.687939646479917,0.25433204564875433,-1.2192692372289977,1.6175879116399003,-0.4630579015472064,-6.2622545975933965,-10.938377912348551,8.214300227040892
276,13.8,-4.13,-12.8,-0.275,-1.44,1.11,-0.46299999999999997,-8.77,-10.5,7.76,90.0,13800000000.0,-1.7360734153958488,-10.956478719830379,-0.014624381497853334,-1.3849456619389433,1.2607656585785312,-0.4630173234322511,-7.413151946945591,-10.753475186884057,7.970368399127062
277,13.9,-1.5,-7.22,-0.213,-1.68,0.27699999999999997,-0.561,-6.1,-13.8,7.91,90.0,13900000000.0,-1.6420396433819906,-9.43341403275431,-0.11542008675485615,-1.606407889719061,0.5692017401941666,-0.5316842129475534,-6.810497894635896,-12.038464143991588,7.937954110709691
278,13.9,-3.36,-7.55,0.136,-1.46,-0.217,-0.705,-5.44,-14.3,8.73,90.0,13900000000.0,-2.3263449149757776,-8.665696304928815,0.012327798582433408,-1.4965168948916676,0.016520568765262533,-0.6531450317968069,-6.181525735444596,-12.99235385193506,8.363234961878542
279,14.0,-0.785,-10.1,0.551,-0.805,0.515,-0.6679999999999999,-8.69,-14.2,6.52,90.0,14000000000.0,-1.7123898297732156,-9.250347772432187,0.2860300049754204,-0.9774772537958004,0.36693977613306605,-0.6635554780772914,-7.332757183938838,-13.501724927932537,7.373528424347535
280,14.0,-0.242,-9.97,1.61,-0.374,0.892,-0.603,-9.59,-15.8,7.05,90.0,14000000000.0,-1.1266978664665825,-9.5436927429583,0.9587461994246851,-0.5245185248176085,0.736044674088357,-0.6211177949218998,-8.368689489011283,-14.47111081163987,7.199813183919026
281,14.1,-3.4,-9.59,-0.304,-0.267,0.462,-0.293,-10.3,-16.6,8.46,90.0,14100000000.0,-2.0322093284523066,-9.562568583471501,0.3171381529656795,-0.33122992928515993,0.5433977766006064,-0.3911707195235118,-9.255039418919361,-15.369051772135835,7.87645787709637
282,14.1,-4.14,-11.0,0.48100000000000004,-0.00336,0.366,-0.0775,-11.8,-15.6,9.12,90.0,14100000000.0,-2.871793466183535,-10.1484948182596,0.4003972310004257,-0.08513689315912928,0.41869134475284575,-0.17134824006802823,-10.423016067992126,-15.466463220352502,8.544165287268408
283,14.2,-4.76,-11.7,2.06,1.01,-0.0538,0.524,-7.51,-15.6,11.7,90.0,14200000000.0,-3.6239120558217293,-10.780919758456248,1.2436501843894252,0.7368523671243568,0.08654113452720524,0.3159563203594248,-9.086125332331473,-15.522787648079905,10.238658984525063
284,14.2,-6.12,-10.8,2.69,2.33,-1.38,1.35,-6.12,-18.2,3.34,90.0,14200000000.0,-4.618164430721778,-10.788697330112598,1.9785482375452343,1.9326391232287004,-0.9444024968623504,1.0406208715871172,-7.724860632923436,-16.65200512834663,6.534493182179996
285,14.3,-1.83,-11.6,4.74,2.03,-1.82,1.31,-7.23,-15.3,9.26,90.0,14300000000.0,-3.5075708726096897,-11.119400928689716,3.381656430125653,2.0057163547212395,-1.5599268113723332,1.2294034763052424,-7.497750789847058,-16.081745106653056,7.997926857258367
286,14.3,-0.922,-15.5,-4.52,1.64,-1.41,0.951,-6.57,-12.7,9.28,90.0,14300000000.0,-2.477675225931701,-12.90502206543088,-0.6332171646167533,1.7312164888641142,-1.4545317954168488,1.0342964924263558,-7.0719717090046075,-14.655364112766222,8.686323030180816
287,14.4,-2.49,-13.6,0.848,1.42,-1.51,1.14,-4.51,-7.46,9.47,90.0,14400000000.0,-2.482584486424643,-13.18830933972703,0.11939713961669085,1.4976231814236562,-1.4935246209621997,1.1083741878416151,-5.896188216578062,-11.620442893814435,9.107110663140174
288,14.4,-2.41,-11.9,0.44299999999999995,0.8240000000000001,-1.59,0.94,-2.8,-4.24,9.12,90.0,14400000000.0,-2.4536723576880393,-12.663168136117644,0.28382146620844884,0.9920142223017437,-1.5613445477260168,0.9903764604850374,-4.475232878546998,-8.507457476252645,9.11403140185418
289,14.5,-0.986,-7.38,0.321,0.384,-1.65,0.55,-1.05,-4.48,9.0,90.0,14500000000.0,-1.869062830571462,-10.509641567058853,0.30271208168094565,0.535650122469002,-1.6236672112201134,0.6817577818013312,-2.90326677212299,-6.808722572992668,9.05280338423018
290,14.5,-0.0766,-4.6,-0.294,-0.239,-1.53,0.456,-0.375,-5.21,10.4,90.0,14500000000.0,-1.1550813733795042,-8.100751620452023,-0.00048049653549608884,-0.04578776405830731,-1.5578213631811908,0.5235452605012324,-1.7429516171040491,-6.1343999266467515,9.776166891434938
291,14.6,0.917,-4.96,-0.599,-0.983,-0.777,0.21600000000000003,-3.88,-11.2,17.0,90.0,14600000000.0,-0.32972106447617655,-6.820517497373582,-0.30459142385242227,-0.7492417231031404,-1.0089224711102271,0.30801554606790194,-2.7237222326938975,-8.271011279602057,13.654931632481183
292,14.6,0.9390000000000001,-5.49,0.682,-1.25,-0.0299,-0.231,-7.44,-13.4,19.6,90.0,14600000000.0,0.1756413377771171,-6.2781714537992634,0.19670090976775917,-1.1251015190455194,-0.3206928936277984,-0.06973005788740738,-4.88819660518378,-10.434359149166701,16.847076675163823
293,14.7,-2.73,-10.9,7.31,0.42200000000000004,-1.04,0.205,-2.87,-8.01,13.4,90.0,14700000000.0,-0.9817461488485026,-8.162122467572546,3.8110059331043593,0.03612393577628503,-0.8263487023552628,0.12280255184799632,-3.9619714673105,-9.411792639227185,14.99620321975594
294,14.7,-6.46,-12.7,9.89,0.504,-1.44,0.711,3.03,-9.87,12.9,90.0,14700000000.0,-3.1638676570942925,-10.011853421115715,6.899775283545226,0.38730296403321823,-1.2577310504902115,0.535015165953989,-0.7530971059348208,-9.60505914807215,13.870667718548416
295,14.8,-2.57,-7.67,3.58,-0.838,0.8140000000000001,-0.311,2.5,-10.0,12.9,90.0,14800000000.0,-2.9273157265967327,-9.057266442579246,5.212979789115474,-0.5323865210888632,0.1986467488976149,-0.05787775617408497,0.7398695043864769,-9.771640624605727,13.349477216909516
296,14.8,3.18,-9.57,3.14,0.451,0.6709999999999999,-0.203,-1.26,-6.54,5.03,90.0,14800000000.0,-0.4946235915424686,-9.266266928087,4.159687800243844,0.20572501112835906,0.5306998840203737,-0.1595803642051956,-0.17794459202143875,-8.408572026866345,8.882417472571248
297,14.9,-3.45,-12.9,-0.175,-0.92,1.64,-0.24100000000000002,-4.11,-12.6,8.62,90.0,14900000000.0,-1.671821775530775,-10.747450161635483,1.9572099053123906,-0.6392231380360782,1.3105115455652419,-0.21663977205887686,-1.9825103465044678,-10.17646795529789,8.741514980966564
298,14.9,-0.223,-6.06,-4.71,-0.861,1.88,-0.512,-6.17,-12.2,10.1,90.0,14900000000.0,-1.0947208942607183,-8.836750266037047,-1.430434882071454,-0.8056847033580258,1.7108484187833974,-0.42363015741060717,-3.9043042997908732,-11.029970251657371,9.470940092746927
299,15.0,-2.28,-11.6,-0.97,-1.41,1.68,-0.49700000000000005,-5.29,-9.91,9.19,90.0,15000000000.0,-1.5668463232280558,-9.963107125429616,-1.1964854872743187,-1.2592724362310255,1.689162675156448,-0.47504822636383226,-4.540251302956451,-10.557579708358585,9.320091902138055
300,15.0,-3.48,-10.7,0.7809999999999999,-1.55,0.958,-0.5429999999999999,-6.14,-11.9,9.53,90.0,15000000000.0,-2.328901881923391,-10.263479547179926,-0.19171459790891388,-1.4774870717389808,1.175172658959686,-0.5226692591515671,-5.274435101497608,-11.123796876506397,9.432799806773852
301,15.1,-2.03,-7.64,0.22699999999999998,-1.4,0.42100000000000004,-0.603,-4.96,-12.9,9.25,90.0,15100000000.0,-2.209841995139886,-9.194095955255463,0.021036512461888618,-1.419326707194112,0.645007169555556,-0.5789655543262421,-5.130129218393064,-11.872978618392594,9.334647283794908
302,15.1,-2.67,-8.89,0.867,-0.9309999999999999,0.445,-0.7879999999999999,-6.02,-13.0,8.86,90.0,15100000000.0,-2.3931341291610733,-9.070140408669715,0.4508750458599394,-1.052797810642925,0.5044068680192855,-0.7254582444039734,-5.53852383211051,-12.348343182267518,9.079790000574675
303,15.2,-1.4,-9.24,0.85,-0.894,0.912,-0.7090000000000001,-6.19,-13.5,8.55,90.0,15200000000.0,-1.9975446877745444,-9.139378534077665,0.6536725672581614,-0.9336071396386979,0.7909351730074541,-0.7139241936915323,-5.83751037319251,-12.834098687734661,8.795324675353388
304,15.2,-2.37,-8.93,0.742,-0.636,0.506,-0.669,-7.73,-15.6,7.58,90.0,15200000000.0,-2.1459026343697607,-9.054031716207659,0.698552196777307,-0.7102287705535285,0.5906324919581099,-0.6824410473533368,-6.706043884388497,-14.000723983244178,8.142768238242283
305,15.3,-2.83,-9.58,-0.0982,-0.251,0.361,-0.373,-7.97,-17.7,9.07,90.0,15300000000.0,-2.4183951911147954,-9.26842703823426,0.29371817296144814,-0.365540235598537,0.42920629744798344,-0.4655827463998203,-7.286120009641528,-15.561036078232494,8.640635869806847
306,15.3,-3.89,-10.8,-0.0718,0.0999,0.5710000000000001,-0.132,-11.5,-15.9,9.54,90.0,15300000000.0,-3.0045711513588023,-9.892727356307505,0.10799644721727109,-0.016189500981921012,0.5288838932575954,-0.23180578811330424,-9.220025429811386,-15.70400697313543,9.123540399461012
307,15.4,-4.02,-12.9,1.53,1.11,0.315,0.536,-6.67,-15.1,12.9,90.0,15400000000.0,-3.4090411036224237,-11.118552598003092,0.8305239912959175,0.8291072837887801,0.378528587433378,0.30627751017924254,-8.049724456831276,-15.449243989299898,11.151272303670876
308,15.4,-7.36,-11.2,2.0,2.45,-1.92,1.42,-4.23,-16.4,4.45,90.0,15400000000.0,-4.98280399441631,-11.151752135233197,1.4247409633808308,2.045719073527626,-1.2372824637900206,1.0867814429055538,-6.296711601544278,-15.850261700601992,7.553091243725655
309,15.5,-2.41,-11.3,4.94,2.24,-2.4,1.34,-5.38,-16.5,11.4,90.0,15500000000.0,-3.957993743034833,-11.212181053076476,3.21086278143335,2.191542710066182,-2.054645381921202,1.2642386776526702,-5.875998786348431,-16.124313789024356,9.618650115584977
310,15.5,-0.7490000000000001,-14.0,-4.38,1.67,-0.679,0.9520000000000001,-3.98,-11.3,9.76,90.0,15500000000.0,-2.6797736422674268,-12.348552667095278,-0.6460949773636204,1.8000824751488103,-1.0875993195114408,1.0454197974062,-5.005854809524719,-14.089474195851832,9.694546641343399
311,15.6,-2.6,-15.1,2.14,1.4,-0.992,1.14,-2.82,-6.67,9.93,90.0,15600000000.0,-2.6479978260668977,-13.47009862814933,0.7695347332110976,1.4997880349598125,-1.0203952538840155,1.1117022083627452,-4.002685141043791,-10.960025955930574,9.820971124813314
312,15.6,-1.6,-10.8,0.259,0.703,-1.38,0.846,-1.08,-4.69,9.72,90.0,15600000000.0,-2.2305548613848747,-12.381712284315146,0.5101293250867938,0.9017338466597891,-1.2731888580911987,0.9254963840519392,-2.661356824705231,-8.315401660893839,9.766755835345542
313,15.7,-0.929,-6.77,0.309,0.247,-1.59,0.42200000000000004,0.258,-4.85,10.1,90.0,15700000000.0,-1.7121139729411654,-10.094264394398122,0.4079344392549696,0.4103028636070448,-1.4958996003185905,0.5726428377943021,-1.3215559824070309,-6.853735341691408,9.945688152333856
314,15.7,0.0622,-5.11,-0.0144,-0.389,-1.27,0.19899999999999998,0.35100000000000003,-5.3,11.0,90.0,15700000000.0,-1.0053616467397783,-8.062577067971453,0.1933440674247906,-0.1896389137621377,-1.3370975256820041,0.31079150813901224,-0.5539581607972724,-6.198387852757181,10.511790325423384
315,15.8,0.6659999999999999,-5.26,0.278,-0.94,-0.5529999999999999,-0.0396,-2.42,-12.0,16.8,90.0,15800000000.0,-0.33961772726540906,-6.920189837422457,0.23635819499081043,-0.7528459077794017,-0.7858955432648679,0.06523486097901227,-1.4103538300854637,-8.645440653310208,13.888181037145673
316,15.8,0.254,-5.43,1.21,-0.917,-0.45299999999999996,-0.396,-4.72,-12.0,17.9,90.0,15800000000.0,-0.10316537324782385,-6.312758128958735,0.7310707873222559,-0.876056895672535,-0.551877878200768,-0.2580015272522708,-2.9292728016122584,-10.060354928101873,16.04228679057161
317,15.9,-2.68,-11.6,7.01,0.24600000000000002,-0.602,0.11599999999999999,-1.29,-8.09,13.6,90.0,15900000000.0,-1.1295811841113879,-8.467945437239536,3.9214281892092675,-0.0338619727835755,-0.5871125397085419,0.004101172636674255,-2.1769498505075386,-9.229282107455642,14.730925596480768
318,15.9,-5.27,-11.4,8.15,0.223,-1.07,0.6509999999999999,5.5,-9.82,11.8,90.0,15900000000.0,-2.7788104991901794,-9.663110261720275,6.069987793916557,0.15893382304651868,-0.9265710082360268,0.4574520933264439,1.3462864448397651,-9.478439943212239,13.15719459361959
319,16.0,-2.34,-7.63,3.83,-0.774,1.23,-0.16399999999999998,-7.91,-16.3,9.08,90.0,16000000000.0,-2.6040215910874602,-8.834373280040944,4.93183805861898,-0.5413088457493105,0.5894472752809086,0.021934422181643487,-2.9017657712146976,-12.3556946356141,10.967985805103753
320,16.0,4.45,-9.3,2.07,0.895,0.406,0.077,2.01,-4.46,8.26,90.0,16000000000.0,0.20576636843090323,-9.024172264160681,3.4777229055064227,0.536757693360147,0.46048818347437354,0.06052473688603276,-0.6475747522849757,-9.025382114425378,9.513960107879718
321,16.1,-8.44,-15.7,-0.6990000000000001,-0.574,0.74,-0.0909,-1.64,-13.2,8.92,90.0,16100000000.0,-3.2380520842006315,-11.745375135212708,1.3555078106755052,-0.29695625524066604,0.6569783678474855,-0.045594700875686706,-1.103035406692813,-10.786187501295425,9.195039225644214
322,16.1,1.82,-4.03,-1.53,-1.29,1.54,-0.68,-2.35,-14.0,8.77,90.0,16100000000.0,-1.223307134394759,-8.600431642229672,-0.11063402073006667,-1.0423162865159203,1.2777216052834308,-0.49019006470926696,-1.6753135462797768,-12.141736385952399,8.966818921872513
323,16.2,-1.3,-12.4,-0.843,-1.64,1.44,-0.317,-2.09,-9.94,9.59,90.0,16200000000.0,-1.2538557454844084,-10.149212705852063,-0.48275306233847526,-1.4909264914307394,1.3917995081403027,-0.3688173423692449,-1.86562846183671,-11.213069305249832,9.301429833926205
324,16.2,-2.7,-11.3,0.14400000000000002,-1.54,1.02,-0.759,-5.51,-11.8,9.64,90.0,16200000000.0,-1.8298901260779505,-10.618297053324497,-0.16429650530578538,-1.5277601204091866,1.1304332587002093,-0.6422598883229633,-3.5381654893572816,-11.460629954015328,9.483221873480433
325,16.3,-0.45,-7.53,0.23199999999999998,-1.33,0.8640000000000001,-0.622,-4.11,-12.5,9.21,90.0,16300000000.0,-1.2802463873995307,-9.359444546956231,0.037063850709347174,-1.3793251053496267,0.9431370127451563,-0.6280616121436238,-3.800601562597774,-11.899024199836544,9.336518149093605
326,16.3,-3.52,-8.65,0.56,-1.0,0.599,-0.674,-4.34,-13.9,9.23,90.0,16300000000.0,-2.1723946135256287,-9.070260387682715,0.30277048712533783,-1.0946107765600148,0.7012168387983027,-0.6602555504427445,-4.048151530608402,-12.743012453080823,9.279324051398643
327,16.4,-1.94,-8.82,0.38799999999999996,-0.8009999999999999,0.917,-0.746,-5.53,-14.0,8.64,90.0,16400000000.0,-2.0798262203915736,-8.968249047318267,0.3460760611567777,-0.8742320189553585,0.8529072802482798,-0.7203458125613716,-4.728226710521757,-13.27319524001715,8.936045598016394
328,16.4,-1.98,-9.78,0.6659999999999999,-0.546,0.6829999999999999,-0.608,-5.8,-15.4,8.82,90.0,16400000000.0,-2.040063021134197,-9.299135110724302,0.5086311182269622,-0.6278672079790341,0.733466511803178,-0.6416131228932833,-5.220103210877933,-14.170256690969596,8.873735914102047
329,16.5,-2.99,-9.48,0.311,-0.292,0.465,-0.33799999999999997,-6.81,-16.8,10.2,90.0,16500000000.0,-2.4184459832529672,-9.372859125758609,0.4082136919419221,-0.3757715608535593,0.5447409239000089,-0.42883907180349384,-5.9497656394164595,-15.279451635206529,9.585860011734074
330,16.5,-3.14,-10.7,0.63,0.191,0.638,-0.0378,-10.4,-15.7,10.3,90.0,16500000000.0,-2.705858505570389,-9.913828618132069,0.5209044907354378,0.049636570978121186,0.610299850562082,-0.15479634694970024,-7.992142648947798,-15.45683398359165,9.969310418857743
331,16.6,-3.99,-12.0,2.15,1.22,0.22699999999999998,0.966,-3.36,-16.0,12.9,90.0,16600000000.0,-3.2173632390238645,-10.764194436525415,1.3486566209342974,0.9280894905983097,0.34084914522734777,0.6306650352947302,-5.866280972969502,-15.685935117532319,11.542914593236693
332,16.6,-7.35,-11.2,2.19,2.47,-1.5,1.6,-2.83,-19.4,5.32,90.0,16600000000.0,-4.863492742332578,-10.941837556199603,1.7761476899879263,2.0854186989539234,-0.9532241433500604,1.3099812983299686,-4.472819272170071,-17.25248450207208,8.20158310312574
333,16.7,-0.182,-12.4,4.35,1.94,-2.11,1.04,-4.24,-14.8,10.7,90.0,16700000000.0,-2.998740538759065,-11.536214023186556,3.0839356721244497,1.9762701865282057,-1.7664100608867033,1.1207766221842481,-4.365969789974157,-16.218055027978018,9.54308289728964
334,16.7,-0.455,-17.1,-3.92,1.75,-1.25,0.899,-2.57,-10.7,9.65,90.0,16700000000.0,-1.985506938313523,-13.804126324663386,-0.47480128539064204,1.8064360169097728,-1.4033860360888522,0.9653541155781213,-3.5417327807709134,-13.890603255288454,9.600490758510125
335,16.8,-2.35,-13.5,1.2,1.26,-1.05,0.885,-1.16,-5.3,9.74,90.0,16800000000.0,-2.1306933348335555,-13.680158258944942,0.3761741682110229,1.396291356558898,-1.1549640006653137,0.9090414221981878,-2.448667480093396,-10.267186392176413,9.675398723717771
336,16.8,-1.19,-10.2,-0.0455,0.723,-1.58,0.619,0.613,-4.06,9.81,90.0,16800000000.0,-1.7559923671125013,-12.261575004509409,0.16191928394926308,0.8909314507418642,-1.453754257533697,0.7057785199034362,-1.0435550181752147,-7.649067048957296,9.747671754433108
337,16.9,-0.37799999999999995,-5.4,-0.0335,0.239,-1.36,0.297,1.3,-4.65,10.3,90.0,16900000000.0,-1.2071045531325368,-9.4646577359697,0.06262570731585906,0.401603892661988,-1.3878472481693236,0.4193038687401364,0.03198905765736981,-6.384095347718034,10.044238969097071
338,16.9,0.63,-4.44,0.00718,-0.369,-0.884,0.027,0.56,-7.2,12.5,90.0,16900000000.0,-0.47534121596545154,-7.416505232166202,0.03445344900666387,-0.1767969658779583,-1.0336545850985028,0.1443747670778816,0.2743128139704514,-6.728234398544002,11.362835226229286
339,17.0,0.728,-5.02,0.515,-0.968,-0.154,-0.184,-1.98,-12.2,16.8,90.0,17000000000.0,0.003978795469267826,-6.439641026776867,0.27862169688135824,-0.7706591598799752,-0.4152782744802378,-0.08575240518451777,-0.7602747434723673,-9.036161666422071,14.2822659134489
340,17.0,-0.304,-7.27,2.74,-0.43799999999999994,-0.21899999999999997,-0.29600000000000004,-4.42,-10.1,17.3,90.0,17000000000.0,-0.11869663103101621,-6.778112198293689,1.529261091974449,-0.5209714120404594,-0.27729930050692975,-0.2330952894310223,-2.4398580903332983,-9.484876513420467,15.902607557226194
341,17.1,-2.89,-11.9,7.07,0.5479999999999999,-0.888,0.16699999999999998,-0.375,-7.04,12.2,90.0,17100000000.0,-1.2225740778262573,-8.86589751913738,4.344540049849339,0.2813785182358167,-0.7066074159426529,0.04729408799807988,-1.4922183232032793,-8.453655904272578,13.914529459783996
342,17.1,-5.52,-9.76,7.56,0.188,-1.23,0.66,5.51,-11.4,14.7,90.0,17100000000.0,-2.934343134672309,-9.230351939856533,5.978332301436205,0.21129034426387142,-1.0745400023290075,0.47668239360372644,1.7213588175969188,-9.696389553882806,14.336279886588901
343,17.2,-2.12,-6.93,2.52,-0.9390000000000001,0.816,-0.494,-3.22,-13.1,10.9,90.0,17200000000.0,-2.60997045043874,-8.292681706765576,4.221135279298194,-0.6520960798041299,0.2544647695165976,-0.20357813113527323,-0.5464135626201434,-11.131993175127532,12.49120365852716
344,17.2,3.67,-11.1,5.03,0.667,0.82,0.514,3.22,-3.74,7.09,90.0,17200000000.0,-0.10850574390103596,-9.437001805801835,4.632123847046604,0.33799276074972284,0.6520226183818949,0.299305288184481,1.1821329729593393,-8.014136083263114,9.591081603767496
345,17.3,-4.72,-12.8,1.24,-0.743,1.35,-0.265,-3.02,-14.7,8.18,90.0,17300000000.0,-1.9453757661567541,-10.80782823871861,2.908567706809275,-0.47338016363951496,1.1426841800737144,-0.09616351712231336,-0.7463812975913298,-10.834155956981224,8.833415651983831
346,17.3,2.2,-3.32,-2.66,-1.09,1.58,-0.674,-2.02,-11.2,9.86,90.0,17300000000.0,-0.29417195086560954,-7.755637368727135,0.07914883206144507,-0.9362035039752054,1.4501068595701612,-0.501115099058138,-1.3308920289285031,-10.988464656110985,9.38462963786699
347,17.4,-3.23,-13.8,-1.58,-1.41,1.18,-0.349,-2.68,-11.2,9.61,90.0,17400000000.0,-1.4635835374046322,-10.219442395714275,-0.7638735244375869,-1.291826266462461,1.2602281067052972,-0.39451185336141203,-1.950047617773285,-11.077687733387409,9.50563980926944
348,17.4,-1.62,-9.73,0.168,-1.48,1.24,-0.6859999999999999,-4.52,-11.0,9.64,90.0,17400000000.0,-1.5258880133517938,-10.019935549693846,-0.29038363786426963,-1.433065965377431,1.2460082341576522,-0.5987886345638218,-3.1294938326754727,-11.044919947342866,9.577783350550346
349,17.5,-1.75,-9.03,0.0886,-1.45,0.9670000000000001,-0.428,-3.22,-12.7,9.53,90.0,17500000000.0,-1.6151572579328202,-9.61641760852139,-0.09782003723460408,-1.4457763708040847,1.0498720683128502,-0.47909885108744144,-3.1710304742688873,-11.743013461432838,9.55212641630502
350,17.5,-3.12,-8.17,0.35700000000000004,-1.0,0.364,-0.545,-2.56,-13.1,9.44,90.0,17500000000.0,-2.214572606440679,-9.026828450496529,0.13327643622084515,-1.11118496513698,0.5677202663302672,-0.5252828164608783,-2.890605958278817,-12.315374825604382,9.491921036257883
351,17.6,-1.6,-9.21,0.496,-0.7070000000000001,0.7390000000000001,-0.631,-4.13,-13.8,9.25,90.0,17600000000.0,-1.9697734280954082,-9.101492909223458,0.3175782015855556,-0.807811303479877,0.6881258725111065,-0.5993700937424775,-3.459409787959034,-12.941572607412521,9.362023962024278
352,17.6,-0.852,-9.2,0.5820000000000001,-0.787,0.718,-0.748,-4.93,-14.9,9.44,90.0,17600000000.0,-1.5245371370722056,-9.141646322025204,0.45193233064682703,-0.7921907287217513,0.7091266719060368,-0.7035309165528922,-4.134317962004105,-13.76761443520205,9.403892188297895
353,17.7,-2.25,-9.61,0.601,-0.38,0.465,-0.5379999999999999,-5.6,-16.5,10.2,90.0,17700000000.0,-1.8135066059244476,-9.332556651914798,0.5276744108404018,-0.4828080742022996,0.5375114141680541,-0.5875257651861254,-4.806973628415987,-14.92010301576101,9.83135419134787
354,17.7,-2.96,-10.4,0.9620000000000001,0.00214,0.919,-0.0671,-10.3,-16.3,10.8,90.0,17700000000.0,-2.270182771007348,-9.767668081293833,0.7483575560571751,-0.11881512067455963,0.8056888627982512,-0.22280800725218075,-7.327926732517509,-15.502127257834537,10.35145894633218
355,17.8,-3.45,-11.9,1.88,0.8290000000000001,0.6659999999999999,0.524,-7.07,-14.6,13.0,90.0,17800000000.0,-2.7401326322696486,-10.636849716373323,1.3233510904984447,0.5925971771343994,0.707490911368871,0.30055989263297345,-7.209554691741138,-15.121620591198473,11.773566503329832
356,17.8,-7.81,-11.8,2.47,2.2,-0.912,1.41,-3.56,-17.5,1.48,90.0,17800000000.0,-4.759583852635155,-11.110973469408142,1.905969506761803,1.7990837052568245,-0.4309727892265267,1.0780627105731035,-5.534639002074554,-16.124793475799414,6.246539212041838
357,17.9,-4.26,-10.8,4.38,2.42,-2.26,1.08,-0.698,-17.3,11.6,90.0,17900000000.0,-4.5605875679450545,-10.984214446196594,3.1630376001633413,2.2651319191006527,-1.7167355315666293,1.0794204056759706,-3.3149264387894686,-16.620481652867028,9.121026498011517
358,17.9,-1.37,-15.1,-7.76,1.85,-0.58,0.684,-3.48,-12.2,10.0,90.0,17900000000.0,-3.2896990902953034,-12.661892371222375,-2.3870159421377117,1.9535416835721422,-0.9176374017778784,0.8023072248665739,-3.3906848116829855,-14.755973616024095,9.592982504827972
359,18.0,0.759,-15.9,2.04,1.56,-0.502,0.9079999999999999,-1.98,-7.87,10.2,90.0,18000000000.0,-1.6770039594817305,-13.981810640323014,-0.13762564574663294,1.6581566141415638,-0.6254541481471732,0.8763774035963292,-2.74326937203573,-11.85154966040393,9.918914358771854
360,18.0,-2.2,-11.6,0.33299999999999996,0.953,-1.02,0.732,-0.518,-4.6,9.81,90.0,18000000000.0,-1.8853259970972798,-13.010936412236385,0.1015017469230664,1.1288792563396428,-0.9028105109121498,0.7751967756694279,-1.7220109363768703,-8.792929971970757,9.860434111421927
361,18.1,-0.982,-8.0,0.42100000000000004,0.5670000000000001,-1.48,0.409,1.3,-3.99,9.72,90.0,18100000000.0,-1.5255093216340687,-10.96837697529643,0.2638405083713926,0.7071431753805999,-1.3085610456016563,0.5185637006169517,-0.3350983401880896,-6.7671097487040655,9.785029567062264
362,18.1,-0.184,-5.16,0.0215,-0.195,-1.04,0.27699999999999997,1.71,-5.07,10.7,90.0,18100000000.0,-0.9911535939471945,-8.60076450931197,0.14070600916634435,0.030011387919715138,-1.1197689733498155,0.34927429548401756,0.6034729640949053,-6.051288587628807,10.27631366253163
363,18.2,1.01,-4.68,-0.0551,-0.7659999999999999,-0.63,-0.0561,-0.49700000000000005,-10.5,15.5,90.0,18200000000.0,-0.19404554344674618,-7.002581207766376,0.04121593511123808,-0.567459850038822,-0.7754729978757773,0.06518535349195226,0.09842520479875017,-7.927703529580547,13.081119653970438
364,18.2,0.965,-5.55,0.91,-0.97,-0.41600000000000004,-0.41,-3.55,-10.5,19.0,90.0,18200000000.0,0.26763042179170327,-6.410479688175672,0.4826497466435029,-0.869598978550163,-0.5227720122383498,-0.2678276296023987,-1.5759720733801683,-9.012668384527638,16.259203096323304
365,18.3,-1.47,-10.5,5.7,-0.0932,-0.494,-0.0109,-1.65,-10.5,14.2,90.0,18300000000.0,-0.42450996743192104,-8.077451211717001,3.1336130271587566,-0.28684842641737407,-0.5025459614900364,-0.08777107619283356,-1.6099462166290728,-9.640007631382048,15.15353454273814
366,18.3,-4.8,-10.2,9.3,0.632,-0.8390000000000001,0.528,4.77,-4.63,10.2,90.0,18300000000.0,-2.1673739380193076,-8.942645121920844,6.266787099796472,0.4028220372003485,-0.7390651612956369,0.34376529602450534,1.318047119696394,-7.52684449431352,12.493783745759998
367,18.4,-3.09,-10.4,4.52,-0.10800000000000001,-0.33,0.429,0.59,-19.9,21.3,90.0,18400000000.0,-2.5348782609854354,-9.536692408720867,5.379235286055522,0.019408568914373092,-0.4515020641654239,0.40349832395523744,0.9839193503104361,-12.745698000882548,17.22219283777137
368,18.4,2.79,-4.66,0.63,-0.518,1.19,-0.46399999999999997,0.622,-6.6,6.35,90.0,18400000000.0,-0.4138500038716728,-7.5488534914613865,2.966123607638638,-0.3839602556823705,0.7024349946837283,-0.20445013298845072,0.8178211616087889,-10.153513732768548,11.384477877702516
369,18.5,-1.07,-19.6,11.6,-0.00214,1.31,0.301,0.377,-6.67,8.13,90.0,18500000000.0,-0.6752104962067944,-12.461145682203904,7.353042258141999,-0.09737311372250318,1.129538743214741,0.14977260621048455,0.6155120242168755,-8.684208023855891,9.637018681325035
370,18.5,-0.5670000000000001,-6.56,-3.38,-0.856,1.4,-0.48200000000000004,-5.69,-16.4,9.2,90.0,18500000000.0,-0.6321076175610013,-10.055718846336358,1.899526416493737,-0.6667842690798063,1.3196665752835346,-0.2929777396191589,-2.2783207425299605,-11.938639542378638,9.402365780760663
371,18.6,-0.16,-6.41,-1.66,-1.41,1.48,-0.602,-0.565,-10.5,10.2,90.0,18600000000.0,-0.44405569169045034,-8.569649750049306,0.09091215361984184,-1.2246280697858545,1.4323771835439303,-0.5095425477620729,-1.4920144683455696,-11.331838047929025,9.830647373029672
372,18.6,-5.51,-15.6,-0.575,-1.53,1.63,-0.575,-3.96,-9.89,8.98,90.0,18600000000.0,-2.4619443762182125,-11.435363430258572,-0.24744134279209906,-1.4538345071405074,1.5713013330222567,-0.5554155475705735,-2.624664349514565,-10.723687605697808,9.373900551288092
373,18.7,0.33799999999999997,-9.04,0.565,-1.48,1.15,-0.5329999999999999,-3.67,-12.3,9.74,90.0,18700000000.0,-1.346658562953451,-10.458964638738214,0.1653644178226576,-1.47347385097083,1.2751364714024107,-0.5397065807301982,-3.104407586754662,-11.388557994800788,9.57047385582883
374,18.7,-2.41,-7.67,-0.44799999999999995,-1.14,0.742,-0.563,-4.6,-12.9,9.52,90.0,18700000000.0,-1.7702133040387331,-9.322126048569547,-0.14628930798919554,-1.223174605331903,0.9003541653252971,-0.5560307767933469,-3.7907902309035846,-12.026066563859025,9.543372670926898
375,18.8,-1.75,-9.44,0.5720000000000001,-0.764,0.768,-0.685,-4.93,-13.3,8.77,90.0,18800000000.0,-1.7621618543639026,-9.37017369375293,0.21867731840152382,-0.878526734368823,0.807312330917187,-0.6464132487045605,-4.313615660253728,-12.56339701102563,9.128118217087739
376,18.8,-2.46,-9.52,0.565,-0.83,0.66,-0.71,-4.83,-13.7,9.72,90.0,18800000000.0,-2.0401277429261095,-9.431246125242783,0.3946457113188705,-0.8421034627187178,0.7037552746131293,-0.6909752424449972,-4.550603502400585,-13.042802905449339,9.445923347918844
377,18.9,-2.56,-9.6,0.0192,-0.43200000000000005,0.593,-0.578,-5.0,-15.2,9.03,90.0,18900000000.0,-2.247205459980311,-9.500033786913846,0.2038797515558431,-0.5342874830085982,0.625896939721766,-0.6118014642718567,-4.756848180583488,-13.952683571521694,9.222597334100135
378,18.9,-2.31,-9.66,1.17,-0.195,0.736,-0.295,-6.28,-15.4,10.3,90.0,18900000000.0,-2.27221802680987,-9.565239201547119,0.6947705598551421,-0.27962463927483433,0.7032967807230126,-0.3897849289317882,-5.455878995841731,-14.563144715119657,9.801097992879528
379,19.0,-2.33,-10.9,0.594,0.127,0.8440000000000001,-0.132,-10.6,-15.8,10.8,90.0,19000000000.0,-2.295233958994158,-10.109314652016883,0.6435684939094904,0.025580212082749687,0.8022077939947423,-0.20912757399909998,-7.816706606604175,-15.084836027580442,10.337448510197127
380,19.0,-3.33,-11.1,2.01,1.12,0.531,0.5770000000000001,-7.3,-13.5,10.9,90.0,19000000000.0,-2.7074063615929878,-10.513138272846376,1.3378595955656756,0.8470312373223048,0.6115551599512877,0.3417957569939518,-7.579570916795126,-14.416370549144222,10.6395046860869
381,19.1,-7.37,-11.7,2.56,2.34,-1.28,1.39,-2.83,-19.0,3.58,90.0,19100000000.0,-4.56463054624224,-10.996927136267866,1.958835597791631,1.9676256001463024,-0.7181632342399354,1.0763840963730096,-5.399817077570314,-16.349692356901482,6.848974402503139
382,19.1,-3.9,-10.3,2.32,2.27,-3.05,1.18,-4.45,-15.9,10.7,90.0,19100000000.0,-4.299892103812231,-10.712845561019765,2.142345115079348,2.1945821544393866,-2.357389141485006,1.1489987586342474,-4.96391079463176,-16.16001716888627,8.916743873382961
383,19.2,-0.00958,-17.2,-5.62,1.87,-1.17,0.889,-4.96,-10.9,9.41,90.0,19200000000.0,-2.590956646030426,-13.357141753687177,-1.8017436120327588,1.9509568642137516,-1.5226827068692357,0.9667899369494821,-4.962116003802358,-13.941402695722317,9.181592721857358
384,19.2,-2.61,-15.0,1.14,1.26,-1.27,1.29,-1.33,-5.72,9.87,90.0,19200000000.0,-2.5985420344063943,-14.026804135825302,-0.30702806397382254,1.4323375591426633,-1.3450527435584623,1.1932976240619524,-3.2952036191315957,-10.47371018304467,9.551226044488242
385,19.3,-3.71,-11.0,-0.321,0.601,-1.86,1.12,0.645,-3.63,9.32,90.0,19300000000.0,-3.0412627378429464,-12.793017305822477,-0.31412728385213906,0.8083511456723477,-1.707048461581724,1.141930175846217,-1.4868984191353944,-7.587112550435148,9.427071374966012
386,19.3,-0.871,-6.34,0.0958,0.0015300000000000001,-1.95,0.8390000000000001,2.08,-5.72,9.64,90.0,19300000000.0,-2.1767944031913884,-10.162636475028386,-0.1058410547574197,0.2027662853473794,-1.8778376643837131,0.9296347294652414,0.15008318788686736,-6.799586015922927,9.541401449096634
387,19.4,0.12,-4.48,-0.441,-0.598,-1.53,0.7759999999999999,2.27,-6.86,11.0,90.0,19400000000.0,-1.2619254389836372,-7.846278460293684,-0.2761371025334859,-0.39827390256446615,-1.6333160160830542,0.8219665280925968,1.1229914305868964,-6.82506799091421,10.32458131296657
388,19.4,0.654,-6.4,-0.0383,-1.01,-0.732,0.342,1.53,-8.93,15.4,90.0,19400000000.0,-0.49876583398041197,-7.25674602968681,-0.1552908074516534,-0.8574240617891455,-0.9997122291334675,0.48560286958917037,1.3097827072523582,-7.712904058521085,13.049776271629128
389,19.5,0.19899999999999998,-7.11,1.38,-0.879,-0.833,-0.18600000000000003,-1.79,-10.3,17.4,90.0,19500000000.0,-0.22082876372101728,-7.196929422489956,0.6247986046015339,-0.8736185635161215,-0.8825174890828846,0.014939208419607275,-0.1128222361365332,-8.804111239380681,15.38558507009514
390,19.5,-0.8140000000000001,-8.67,5.91,-0.0742,-1.12,-0.0445,-0.35200000000000004,-11.0,14.1,90.0,19500000000.0,-0.45710327048985794,-7.797382934104924,3.310237430184992,-0.27358994055031016,-1.0494620650952768,-0.026716175884920416,-0.22258975948540877,-9.730311682464441,14.695303264448652
391,19.6,-4.7,-9.81,8.07,0.344,-0.534,0.3,6.35,-12.0,12.1,90.0,19600000000.0,-2.1471519578296796,-8.617766690710557,5.728697919914984,0.18996152555975937,-0.6871044444407925,0.20224865298816644,2.793814790495344,-10.687639923796016,13.301781409285812
392,19.6,-3.61,-10.6,4.85,-0.584,0.888,-0.22,-0.461,-12.6,10.1,90.0,19600000000.0,-2.7298398017496366,-9.42576539558206,5.282226790852038,-0.3909595121129325,0.4201566303542028,-0.09366594784523832,1.3000598732624025,-11.494251412956197,11.582617196519173
393,19.7,3.09,-11.6,2.83,0.779,0.624,0.38299999999999995,5.21,-3.97,7.27,90.0,19700000000.0,-0.41165636679458384,-10.312027727250292,4.036237293833233,0.4871902017455075,0.5634536935909293,0.24038463838181792,3.0944760632609345,-8.320609336438018,9.267000633113735
394,19.7,-3.39,-12.2,0.79,-0.898,1.57,-0.337,-0.72,-15.1,7.7,90.0,19700000000.0,-1.5980029767196602,-11.081603486260478,2.3868068922658514,-0.5525076550980641,1.2710319110098305,-0.16425027930476635,1.3438718680639943,-11.180077949946252,8.425615255933877
395,19.8,2.8,-3.48,-2.22,-1.07,1.36,-0.917,-0.912,-11.3,10.2,90.0,19800000000.0,0.1538283510551608,-7.9830355499635814,0.0460638251753025,-0.940927768843438,1.3335743775168316,-0.6917821752849506,0.3085688115550942,-11.230659761987898,9.37835324684318
396,19.8,-2.43,-14.3,-1.92,-1.29,1.56,-0.308,-1.59,-10.3,9.02,90.0,19800000000.0,-0.875373229970333,-10.557958613907408,-0.9529036259953325,-1.2029348275121188,1.4927461796263009,-0.42282513014764567,-0.5627546689863049,-10.838118335157336,9.185939310606317
397,19.9,-1.96,-9.88,0.51,-1.43,1.62,-0.382,-2.49,-11.7,9.68,90.0,19900000000.0,-1.307406416888822,-10.28160896246154,-0.20959452777162502,-1.3733656593520955,1.5822026005462868,-0.3942146129751683,-1.4472388542538912,-11.201649957305257,9.451220406786423
398,19.9,-1.89,-8.29,-0.5720000000000001,-1.23,1.2,-0.498,-2.99,-12.6,9.32,90.0,19900000000.0,-1.53946757775265,-9.469788690914346,-0.3937346868164297,-1.2657580914169473,1.3135232708098654,-0.4669480842219862,-2.1552690229002485,-11.791457968382382,9.380762761488596
399,20.0,-2.16,-9.06,0.239,-0.7859999999999999,0.856,-0.631,-2.9,-12.3,8.53,90.0,20000000000.0,-1.7866407390929675,-9.30275067010802,-0.07223883521880392,-0.9056606519081245,0.9918952671405673,-0.5819167211758292,-2.497053663399865,-12.005955187056076,8.923954085484379
400,20.0,-2.25,-9.5,0.0479,-0.825,0.8640000000000001,-0.785,-3.03,-12.7,8.32,90.0,20000000000.0,-1.9712079807181246,-9.383153502444328,-0.011195655534694135,-0.8451182663978213,0.9019879434637459,-0.7242388218959661,-2.741642440498264,-12.298695169216481,8.599666832375616
401,20.1,-1.88,-8.83,-0.601,-0.882,0.484,-0.753,-4.3,-15.2,9.43,90.0,20100000000.0,-1.934877626032913,-9.15767687105664,-0.3108783814727783,-0.8728010275980524,0.6081523310345281,-0.7443948572331717,-3.456830463565312,-13.522431859036848,9.045506063322012
402,20.1,-1.62,-9.36,1.49,-0.35600000000000004,0.578,-0.536,-2.86,-16.7,9.85,90.0,20100000000.0,-1.8094542258562893,-9.240147746972807,0.6041574949661401,-0.48489984771218697,0.5869559638269778,-0.5983503955618422,-3.182922835933038,-14.862693615235154,9.477471219314276
403,20.2,-3.1,-11.0,0.642,-0.0602,0.941,-0.195,-8.6,-15.6,10.6,90.0,20200000000.0,-2.323509897597346,-9.9574992620036,0.6233854827205706,-0.16612808477934077,0.8358405134564191,-0.315679810569972,-5.669020126497461,-15.173681068617134,10.080201995278953
404,20.2,-1.42,-12.4,1.15,0.612,0.88,0.251,-7.86,-14.8,10.9,90.0,20200000000.0,-1.963619955665668,-10.953112006314235,0.8909611041249466,0.41792029216054166,0.8668835817876167,0.08145307646732164,-6.674541907077028,-15.016066802870414,10.520384107472346
405,20.3,-6.77,-11.4,1.94,1.72,-0.47200000000000003,1.33,1.07,-14.4,9.95,90.0,20300000000.0,-3.8781177941854725,-11.135272471842084,1.4239833685135044,1.3952369869048344,-0.07431982311962981,0.9564429091800584,-3.1202850923279795,-14.756216800749053,10.214121978837428
406,20.3,-5.73,-11.1,2.02,2.68,-1.78,1.24,-0.6709999999999999,-18.8,9.69,90.0,20300000000.0,-4.615767438638823,-11.120894851548455,1.7268225752218322,2.3595561231156843,-1.2733725127198634,1.1551615689285566,-1.99621755384687,-16.461837391106148,9.932699713322176
407,20.4,2.93,-11.8,0.675,1.96,-0.7829999999999999,0.46399999999999997,-3.69,-13.2,10.6,90.0,20400000000.0,-1.6101050683875955,-11.397711978152628,1.19238594370184,2.0596567994449795,-0.9286522613719537,0.6707910378166048,-2.7735570061705705,-15.086032082682262,10.291000114838713
408,20.4,0.34,-17.4,0.0311,1.72,-0.423,0.602,-1.87,-9.06,9.9,90.0,20400000000.0,-0.8333308795928327,-13.844366306701522,0.6023303868050918,1.8047167805450202,-0.5731907200147084,0.6225818298671151,-2.3588812711135105,-12.544321729925613,10.081056319623597
409,20.5,-2.84,-12.7,0.871,1.1,-0.6970000000000001,0.7490000000000001,-0.23199999999999998,-4.77,9.35,90.0,20500000000.0,-1.6326358677814845,-13.377899284100968,0.7388428402789785,1.275769564708623,-0.660225726157303,0.7111765145478657,-1.3827767687106118,-9.265202870294557,9.688523165267961
410,20.5,-1.2,-9.32,0.115,0.7240000000000001,-1.44,0.44799999999999995,1.5,-3.86,9.65,90.0,20500000000.0,-1.460306518439519,-11.723817009180854,0.4218649804436402,0.861621633122738,-1.208388586521683,0.5267407115490665,-0.05976386115152876,-6.985350866691803,9.66783833319328
411,20.6,-0.12,-5.54,-0.426,0.0272,-1.11,0.337,2.23,-4.09,10.2,90.0,20600000000.0,-0.9264298952521364,-9.203167608105641,-0.008939719353196152,0.23532036344951057,-1.139223753793901,0.3937691958026418,0.991093493355053,-5.764125473867444,9.953577100812824
412,20.6,0.96,-4.83,-0.091,-0.457,-0.866,0.13,1.25,-8.0,13.5,90.0,20600000000.0,-0.17501908359816454,-7.4205756555758215,-0.05063498290157349,-0.28432234200106543,-0.9471539327411245,0.20891802489395705,1.1099152675070294,-6.707191449668334,11.85779331005726
413,20.7,1.17,-4.97,0.51,-0.853,-0.442,-0.324,-2.64,-11.3,18.8,90.0,20700000000.0,0.36073465052640497,-6.421671169868369,0.23422662506498299,-0.7111611438698409,-0.592042700234527,-0.16455439289789142,-0.6110596251043239,-8.644384975707897,15.585341160355178
414,20.7,-0.139,-8.55,3.83,-0.271,-0.293,-0.209,-2.56,-11.3,18.8,90.0,20700000000.0,0.16167820877622976,-7.289221297997785,2.061258138255203,-0.38078442089604314,-0.38182278342672127,-0.19570216778856514,-1.505500437980686,-9.764492712005179,17.311419575381176
415,20.8,-4.22,-11.6,9.17,0.501,-0.48700000000000004,0.285,3.27,-6.05,11.7,90.0,20800000000.0,-1.583650503066219,-9.046382389886256,5.673247677429469,0.28106646196489715,-0.4557598640820175,0.14117703463771308,0.686153374011814,-8.197762793472524,14.298424007942835
416,20.8,-3.51,-9.42,4.42,-0.161,-0.0128,0.51,0.474,-22.3,21.6,90.0,20800000000.0,-2.350962265863255,-9.19867654578817,5.0364659142493515,-0.05074035435826185,-0.14436958534841188,0.39965056033655144,0.5887883452316334,-14.145922771685337,18.21893221543631
417,20.9,1.24,-6.5,2.15,-0.0608,0.998,-0.523,2.22,-4.95,8.47,90.0,20900000000.0,-0.9205948212735295,-8.09864118465533,3.5698372992483103,-0.05829093698051681,0.6586891569916165,-0.24694895318179821,1.3374117334506002,-10.267188987394945,12.984340976124912
418,20.9,-1.22,-22.5,11.9,-0.11699999999999999,1.07,0.401,0.698,-6.94,8.08,90.0,20900000000.0,-1.0398551833911873,-13.968927481086787,7.802437022114509,-0.10235686054417348,0.9478309611944342,0.20713788162429603,1.043962040263551,-8.86381923724337,10.351004232833706
419,21.0,0.848,-5.42,-1.23,-0.978,1.46,-0.489,-5.22,-15.0,9.02,90.0,21000000000.0,-0.2878766403142259,-10.484211070849794,3.213007782681145,-0.7595982109972937,1.3078736748725135,-0.280720067246681,-1.8308017791550226,-11.451989204334202,9.636335104221098
420,21.0,-0.0622,-7.15,-1.7,-1.37,1.14,-0.685,-0.628,-9.72,10.4,90.0,21000000000.0,-0.19798415565724892,-9.125118970600846,0.7166824069909596,-1.2177543798206676,1.1898624529410795,-0.5640420746049102,-1.2787915546481265,-10.721456333126286,10.046377106517442
421,21.1,-5.38,-14.8,-0.7829999999999999,-1.61,1.09,-0.47,-3.02,-9.51,10.1,90.0,21100000000.0,-2.2621069050289133,-11.438315793732126,-0.04531418618853755,-1.512166616100047,1.1196615404852392,-0.4981367763815904,-2.0778965175160287,-10.210478181295281,10.075169586224336
422,21.1,-0.218,-8.71,0.622,-1.5,0.889,-0.575,-3.56,-12.0,9.69,90.0,21100000000.0,-1.4478895021487035,-10.326198888813092,0.29375168581553546,-1.5030345816322177,0.9575119472558674,-0.5520030149390985,-2.7580886098222903,-10.96527775544352,9.868356414392691
423,21.2,-2.14,-7.75,0.532,-1.11,0.7240000000000001,-0.602,-3.14,-11.9,8.87,90.0,21200000000.0,-1.723573956151085,-9.27608790777373,0.41480692245326456,-1.2080301871181498,0.7933585705873074,-0.5870412258364616,-2.9333619237405637,-11.359532609913861,9.332298888583885
424,21.2,-2.38,-9.56,0.259,-0.899,0.5539999999999999,-0.684,-2.91,-13.1,9.41,90.0,21200000000.0,-1.985044429686007,-9.39181641291183,0.33564059923024464,-0.9760779008530209,0.6250951865530678,-0.6549905759342207,-2.9226403120519513,-12.093641755193788,9.374019639176955
425,21.3,-1.79,-9.07,-0.409,-0.9540000000000001,0.665,-0.894,-5.33,-13.6,10.1,90.0,21300000000.0,-1.9073534834605845,-9.260637383601113,-0.04271524937038779,-0.9595066385772043,0.6531473390442282,-0.8224899301243783,-4.027466698168331,-12.729006374805177,9.763827718013253
426,21.3,-1.36,-9.76,0.316,-0.44,0.536,-0.601,-4.02,-14.7,9.89,90.0,21300000000.0,-1.6893293097379516,-9.464187819722115,0.13954988166019347,-0.5695746712566192,0.5707955475352112,-0.6672683545498584,-4.024039945394672,-13.560348574396896,9.831574843809317
427,21.4,-3.66,-9.9,1.15,-0.0406,0.6409999999999999,-0.266,-8.03,-15.5,10.0,90.0,21400000000.0,-2.4742953177179254,-9.641833558792289,0.6529649420177198,-0.1725361788562237,0.620147593430378,-0.38605688428807056,-5.862523092494854,-14.378471077703923,9.922009042318562
428,21.4,-2.2,-10.9,1.04,0.5379999999999999,0.547,0.0526,-8.99,-14.8,11.7,90.0,21400000000.0,-2.3650368531694004,-10.154687593874414,0.8496194914617985,0.36077897709028967,0.568726563765036,-0.07864328739281445,-7.297837841392087,-14.556267174784837,10.876683353462504
429,21.5,-5.98,-11.7,1.23,1.83,-0.271,1.24,-1.87,-14.7,9.2,90.0,21500000000.0,-3.80496443506644,-10.78458823297596,1.0428928580594983,1.4635488272808828,-0.021581292757472004,0.8454705095199253,-4.8068022551705925,-14.616891935077204,9.976404939580785
430,21.5,-6.69,-11.5,2.7,2.86,-2.34,1.5,-0.28,-18.7,9.15,90.0,21500000000.0,-4.954144157359987,-11.076204596828534,1.884877823385795,2.5116988781297636,-1.651374596292396,1.3041690324998019,-2.729285231658629,-16.33909994185193,9.532674890321598
431,21.6,0.0527,-12.6,-0.196,1.7,-1.73,1.03,-3.82,-12.3,9.86,90.0,21600000000.0,-2.959796588080027,-11.697334701830027,0.8275727506505481,1.9024529188443877,-1.706646403701443,1.1120295717007025,-3.2298545592329377,-14.635454453867817,9.708428640931665
432,21.6,0.555,-17.9,-0.589,1.58,-1.59,1.32,-0.198,-8.47,9.7,90.0,21600000000.0,-1.5597677828162653,-14.225666877198451,0.10780461822971021,1.6604258216613565,-1.6246467719360407,1.2577766369308812,-1.8384243379742298,-12.034937295588652,9.703902864299646
433,21.7,-3.69,-12.3,0.0503,0.973,-1.71,1.04,2.38,-3.39,9.56,90.0,21700000000.0,-2.40829100891523,-13.440726031963964,0.07858621542541853,1.1444568507239494,-1.68464809370799,1.1051573269523325,0.09756670395592337,-8.388602927455636,9.626635889800363
434,21.7,-0.855,-9.12,-0.0599,0.556,-1.88,0.595,3.49,-3.43,9.2,90.0,21700000000.0,-1.7895775016571522,-11.67951031523254,0.008220633400671334,0.7027721413761675,-1.8219758472015135,0.7476357749970649,1.6544798510409184,-6.29712167894285,9.397557925017908
435,21.8,0.778,-4.38,-0.0694,-0.152,-1.37,0.39,3.79,-4.06,9.04,90.0,21800000000.0,-0.7668490561654744,-8.70408172881945,-0.031218821514594,0.061196164262555475,-1.5042475497517158,0.4970022883418963,2.634549033511857,-5.353529644398085,9.20557076258473
436,21.8,1.06,-4.5,-0.239,-0.604,-0.8740000000000001,0.21,3.38,-7.79,12.7,90.0,21800000000.0,-0.039170753284609505,-6.990412645352756,-0.1367935382467531,-0.4380876133631239,-1.0611984792839397,0.29586921385632126,2.9766641125313598,-6.381204601371196,11.081869394163192
437,21.9,0.792,-4.93,-0.254,-1.36,0.214,-0.301,-2.66,-14.6,21.1,90.0,21900000000.0,0.2919047326372033,-6.150546541063879,-0.19634676816366015,-1.1300578171150937,-0.16476419190102232,-0.12242061166367973,0.3897903833717322,-9.847797458741287,16.461004357659895
438,21.9,0.156,-8.23,3.44,-0.42100000000000004,-0.5760000000000001,-0.368,-1.6,-10.4,12.4,90.0,21900000000.0,0.23777057983426986,-6.998173811057967,1.6513003694845387,-0.5978522853963874,-0.453853194038931,-0.2945242443810318,-0.5233980468438609,-10.08070993328946,14.280488590112409
439,22.0,-5.85,-14.6,11.9,0.667,-1.15,0.846,8.77,-4.76,9.19,90.0,22000000000.0,-2.187136184229585,-10.096832688759758,6.858718897313311,0.3515221777065787,-0.9432278709401878,0.504762573321422,3.741686336427826,-7.836496212575977,11.547201567989775
440,22.0,-5.18,-10.5,3.31,-0.29600000000000004,0.645,0.332,-1.44,-22.8,19.5,90.0,22000000000.0,-3.3792664251837,-10.261171871797194,5.055595946308874,-0.13449585982428947,0.17325863997461322,0.38368942970062964,1.3636187537664712,-14.14792845810284,15.817376928790237
441,22.1,4.85,-4.89,0.196,0.0816,0.8740000000000001,-0.369,6.08,-3.99,6.96,90.0,22100000000.0,-0.10134988129118438,-8.071773091943077,2.5864094300180476,0.02770165269128927,0.665863205222107,-0.14380020844468183,3.5281405552896556,-9.863431903176453,11.061497236490794
442,22.1,-5.04,-22.7,10.4,-0.8959999999999999,0.924,0.423,2.9,-8.3,7.91,90.0,22100000000.0,-2.068534093681501,-14.034535740883737,6.556536109294759,-0.6656115507141971,0.8473272669972722,0.253417068742511,3.2398636601595125,-9.203994516928255,9.369332319258111
443,22.2,2.7,-4.05,-2.25,-0.996,1.47,-0.629,-3.38,-16.1,9.56,90.0,22200000000.0,-0.16911118942287562,-9.964636298213064,2.0818883333045877,-0.9135949347393231,1.2850514501098111,-0.3649865565943069,0.2017632719714766,-12.112649910494333,9.471709643567596
444,22.2,0.105,-7.86,-1.48,-1.27,1.25,-0.5539999999999999,1.34,-10.3,9.41,90.0,22200000000.0,-0.05992604995619463,-9.106743859380103,0.2720739413018052,-1.1811058958419047,1.2604111120187675,-0.49744842082042345,0.7241422308783168,-11.348095255583958,9.438575187398992
445,22.3,-5.5,-15.2,0.0215,-1.55,1.14,-0.45299999999999996,-1.05,-10.6,9.2,90.0,22300000000.0,-2.2268395615821364,-11.590478718145476,0.1447559910901857,-1.4579908744587926,1.175764946075598,-0.4662986848346598,-0.09007725142358669,-11.03255750326272,9.310474530742045
446,22.3,-0.261,-8.84,-0.156,-1.58,0.816,-0.489,-0.19899999999999998,-12.3,9.98,90.0,22300000000.0,-1.4437979465630535,-10.46932780182934,-0.008059727184035942,-1.549568674117657,0.9228587110177455,-0.48220790893726645,-0.14006593078275392,-11.567150147376845,9.669969271111048
447,22.4,-2.21,-8.41,-0.299,-1.08,0.8190000000000001,-0.764,-1.98,-12.4,9.25,90.0,22400000000.0,-1.7489948391302734,-9.62990390956488,-0.15588802268426974,-1.1971192428304829,0.8498485044737437,-0.6796896376931507,-0.9844797523064266,-11.918436406971717,9.444470982788603
448,22.4,-1.07,-9.58,0.611,-0.784,0.8320000000000001,-0.823,-1.6,-12.8,11.0,90.0,22400000000.0,-1.4785347330567729,-9.609562031546243,0.2337718559502944,-0.8870396511780307,0.8373014412197185,-0.7801224811585505,-1.2669647761016891,-12.290269799341619,10.27969668844342
449,22.5,-2.63,-9.3,-0.0239,-0.821,0.738,-0.79,-3.82,-13.5,8.78,90.0,22500000000.0,-1.9371913461843813,-9.483378339068775,0.10284741703952441,-0.8374715092451566,0.7674948661383146,-0.7870447256284797,-2.4386470593124603,-12.800519985032077,9.474449448409166
450,22.5,-1.98,-9.37,1.82,-0.324,0.7509999999999999,-0.562,-3.03,-15.9,10.7,90.0,22500000000.0,-1.9542430797729349,-9.437162979082093,0.9753417923223171,-0.45206939961929304,0.7558993574111197,-0.6293319021894903,-2.710040787780331,-14.107844591523286,10.132496423833949
451,22.6,-4.0,-9.82,-0.304,0.0638,0.494,-0.165,-7.05,-16.2,11.1,90.0,22600000000.0,-2.7691177216712504,-9.593214998548287,0.32530143695899083,-0.06486747787487462,0.571790312226677,-0.30392509043059734,-4.701808714701506,-14.990291830070817,10.651987970953286
452,22.6,-3.04,-12.1,1.68,0.802,0.401,0.5429999999999999,-4.94,-16.3,12.1,90.0,22600000000.0,-2.8770166935785477,-10.615031625030712,1.013630946122765,0.5857870258603679,0.45172876860657507,0.2896055080090426,-4.811123533678055,-15.542711243302772,11.42948371290907
