,Time (s),Acceleration x (m/s^2),Acceleration y (m/s^2),Acceleration z (m/s^2),Gyroscope x (rad/s),Gyroscope y (rad/s),Gyroscope z (rad/s),Linear Acceleration x (m/s^2),Linear Acceleration y (m/s^2),Linear Acceleration z (m/s^2),Still,Walk,Run,Cycle,SPM/RPM,Timestamps,Acceleration x (m/s^2)_kalman,Acceleration y (m/s^2)_kalman,Acceleration z (m/s^2)_kalman,Gyroscope x (rad/s)_kalman,Gyroscope y (rad/s)_kalman,Gyroscope z (rad/s)_kalman,Linear Acceleration x (m/s^2)_kalman,Linear Acceleration y (m/s^2)_kalman,Linear Acceleration z (m/s^2)_kalman
0,0.0562,-3.05,5.6,9.28,0.10300000000000001,-0.39799999999999996,0.0789,-5.46,-0.358,1.87,,,,,110,56200000.0,-1.7581659756755694,3.5284139252390343,6.431742063414129,-0.06564176304301607,-0.3215166452540998,0.18206455103068034,-3.68418559495659,-0.4739357464216201,1.3186816380770259
1,0.106,-1.67,5.66,7.97,-0.495,-1.32,0.265,-4.51,-0.158,0.602,,,,,110,106000000.0,-1.7391171302582153,3.919379587677781,6.670524667368714,-0.30091871025881606,-0.6348619381851155,0.22630007530073493,-3.875161357508169,-0.4150970742970106,1.19221866044133
2,0.156,-1.7,3.45,13.0,-0.444,0.701,0.7559999999999999,-4.7,-2.11,5.52,,,,,110,156000000.0,-1.7266988840497777,3.7865285591288096,8.22915562995587,-0.3897228585941153,-0.0873562537889464,0.5456537487112354,-4.152334615626452,-0.9006529166051458,2.381337135412359
3,0.20600000000000002,-0.618,3.08,10.4,-0.11599999999999999,0.586,0.738,-3.59,-2.28,2.7,,,,,110,206000000.0,-1.325741828432611,3.552787545484184,8.868777186764762,-0.21704927287824394,0.20993278866264903,0.663670481717636,-3.9390862343028847,-1.3615046125750838,2.484274650315475
4,0.256,0.0958,2.19,9.73,0.0058,2.04,0.805,-2.72,-2.97,1.87,,,,,110,256000000.0,-0.7867543597103166,3.0736738852852947,9.142580253619991,-0.07616048830425082,1.0356672986156794,0.7506094375223393,-3.4570256963981736,-1.9318423657288606,2.2726882688284
5,0.306,0.91,0.172,10.6,-0.512,1.4,0.562,-1.31,-4.85,2.48,,,,,110,306000000.0,-0.13208931283745395,2.0285692768549985,9.62146789487366,-0.35178646877276043,1.2011146900033982,0.6345419014987137,-2.595436149684275,-2.9911169806672433,2.3459785133845346
6,0.35600000000000004,-0.898,0.855,5.8,-1.5,1.77,-0.18899999999999997,-2.56,-3.75,-2.69,,,,,110,356000000.0,-0.4295245285173802,1.6017702195078145,8.347550585650389,-1.077948479752605,1.4599435329320716,0.12771751356984817,-2.581141537852582,-3.2691649545841366,0.5466316133390261
7,0.406,-4.0,4.31,9.4,-0.32799999999999996,0.42100000000000004,0.605,-4.92,0.314,0.488,,,,,110,406000000.0,-1.8194350974308389,2.590521427041354,8.700618030474663,-0.6036577560635648,0.9869829962598208,0.42144930064854375,-3.526356072356788,-1.9514495028132162,0.5255915126336768
8,0.456,-0.601,1.92,2.89,0.609,0.142,1.09,-1.71,-2.41,-5.84,,,,,110,456000000.0,-1.3446985423952178,2.345337654870619,6.7458998302670485,0.1632652782075601,0.6022551676869303,0.8328929250714054,-2.7918228543717105,-2.1203315249178347,-1.7627798910717996
9,0.506,1.03,0.862,7.96,-1.45,1.08,0.19399999999999998,0.121,-3.15,-0.9390000000000001,,,,,110,506000000.0,-0.41914033200646306,1.8025983404813641,7.154826768493077,-0.8570147032647211,0.8197872057092194,0.43970142368295195,-1.613606010252841,-2.499776844580694,-1.466423025358691
10,0.556,-1.65,-1.93,9.12,-1.01,2.96,-0.355,-1.6,-5.37,-0.0669,,,,,110,556000000.0,-0.8989375916880469,0.436531640905218,7.817080707955695,-0.9537674354777583,1.7943067431685469,-0.04937873465091541,-1.6081020297329298,-3.5577368522944237,-0.9627910016720992
11,0.606,-3.13,-1.13,2.36,-2.62,0.813,-0.0885,-1.94,-3.95,-6.96,,,,,110,606000000.0,-1.76866081195982,-0.13685000409389603,5.977637887865888,-2.0075455162933364,1.347478869977627,-0.07345499106376582,-1.742367452906707,-3.7023380087357487,-3.121208822474784
12,0.6559999999999999,-4.48,-3.53,10.7,-3.26,0.578,-1.2,-3.13,-4.63,1.08,,,,,110,656000000.0,-2.825625940553357,-1.3788607113951226,7.569590245217549,-2.7996373233852467,0.9971041690797928,-0.7667604617813714,-2.303723642224196,-4.044317611448402,-1.609102480934932
13,0.706,-7.49,-4.63,4.87,-2.88,0.9329999999999999,-2.11,-5.67,-4.31,-4.76,,,,,110,706000000.0,-4.643956929702782,-2.5689100793153834,6.659491761102584,-2.850461293202203,0.9679149619611471,-1.593425353886139,-3.665530039483393,-4.142261989063277,-2.7432022806142227
14,0.7559999999999999,-13.4,-6.74,6.77,-3.34,0.18600000000000003,-1.62,-11.5,-4.64,-2.61,,,,,110,756000000.0,-8.05736725125417,-4.095708735099516,6.696747550670019,-3.16006099437661,0.611877428176902,-1.6097800933017021,-6.834920724364039,-4.3257552420129395,-2.695258462866381
15,0.8059999999999999,-15.6,-6.35,9.2,-3.25,2.07,-1.22,-13.4,-2.53,0.428,,,,,110,806000000.0,-10.997750890171492,-4.920878671908005,7.540679859590209,-3.2169412650484768,1.2758196551531216,-1.369899185150822,-9.490787628276937,-3.66374061825007,-1.5710935368968773
16,0.856,-16.8,-6.04,3.1,-3.34,2.25,-0.733,-14.0,-0.8490000000000001,-4.75,,,,,110,856000000.0,-13.259672086606264,-5.330526829508784,6.043568366745491,-3.294767445380268,1.7194034225514216,-0.9779346557558692,-11.314965227651395,-2.6260707031603556,-2.71528964643052
17,0.9059999999999999,-11.8,-3.48,7.85,-3.05,2.73,0.993,-8.23,3.01,1.43,,,,,110,906000000.0,-12.690640392250781,-4.653151438050665,6.652581856097145,-3.1399687441865534,2.1795689856436016,0.23503037498708212,-10.06695888859031,-0.5483008705825023,-1.2232586539304713
18,0.956,-5.3,-1.86,11.4,-1.52,3.57,0.379,-0.583,5.17,6.42,,,,,110,956000000.0,-9.809507501329678,-3.6307331986782376,8.25310949678537,-2.115449281295745,2.8126885139596727,0.32363307550261106,-6.230274057377613,1.5597839321789335,1.527811289083531
19,1.01,-9.19,-1.72,2.73,0.446,3.38,-0.961,-3.78,5.45,-1.19,,,,,110,1010000000.0,-9.568001403205715,-2.931319424812954,6.391067285000845,-0.49550776672670116,3.071008464058024,-0.46696393745290404,-5.239028776671807,2.99393465887497,0.5495780388208832
20,1.06,-5.56,-2.84,3.8,0.504,0.9690000000000001,0.9790000000000001,0.342,4.23,0.43200000000000005,,,,,110,1060000000.0,-8.005540670406281,-2.8978923998698347,5.517523593839398,0.13661255056033517,2.113878862258802,0.42292030049552515,-2.9812534160133666,3.4496173594422332,0.5072576839379158
21,1.11,-10.2,-3.51,-0.436,0.489,0.525,1.06,-3.86,3.12,-3.84,,,,,110,1110000000.0,-8.861018463059429,-3.1219511555743398,3.510372629852559,0.359473510009117,1.3903979493653589,0.8149958759268761,-3.3367456070112955,3.3281019550703,-1.0574690855439086
22,1.16,-12.7,-0.991,1.07,0.585,-0.242,1.28,-5.9,5.19,-2.39,,,,,110,1160000000.0,-10.35758918193401,-2.341927717528591,2.687633584909499,0.5021035789644754,0.6471010448605872,1.101171631995488,-4.373696509390071,4.014501553277748,-1.5370926008289096
23,1.21,-15.0,-5.26,-2.8,1.05,0.18100000000000002,0.9570000000000001,-7.93,0.389,-6.56,,,,,110,1210000000.0,-12.167365127954296,-3.410072779110515,0.8375511539631912,0.8486105677885012,0.4348663575417304,1.0124446266207272,-5.812380008392033,2.677939250904676,-3.345008850336874
24,1.26,-12.4,-4.1,1.34,1.13,-0.113,1.23,-4.93,0.929,-2.63,,,,,110,1260000000.0,-12.258054281027981,-3.6626169669752873,1.00694509088056,1.026570138124308,0.18540061503233796,1.146333939703003,-5.455417822917836,2.033182598270648,-3.087652736514876
25,1.31,-6.77,-4.7,0.682,-0.359,-2.0,2.01,0.872,-0.456,-3.76,,,,,110,1310000000.0,-10.118616593654284,-4.042345488721366,0.8973941818012511,0.15029177818541084,-0.8097008026074821,1.6778567531119237,-2.8956947714733516,1.1155309085731693,-3.3296535230892097
26,1.36,-2.76,-13.9,0.0599,-0.741,-2.25,-0.402,4.62,-10.1,-5.17,,,,,110,1360000000.0,-7.249967555729098,-7.6506878271879675,0.6150441900391663,-0.4133893193489552,-1.4655273651572767,0.39785817350940866,0.14473933032302844,-3.0191401462169836,-3.9920572302704342
27,1.41,-12.4,-6.29,3.67,-0.86,-3.66,1.65,-5.84,-2.15,-2.37,,,,,110,1410000000.0,-9.257632218666567,-7.152615205699952,1.644981817266782,-0.6958400429030163,-2.464759679952732,1.1684591866497538,-2.276355038807109,-2.6987265948649166,-3.408223279752288
28,1.46,5.04,-3.42,4.62,0.512,-3.31,-0.213,10.7,0.303,-2.45,,,,,110,1460000000.0,-3.683909464606436,-5.786311110611627,2.647969475652886,0.0680362027337944,-2.849631807287073,0.31827285294140795,2.973159955827481,-1.5921225688323455,-3.0633259449579726
29,1.51,-17.7,-6.33,0.7879999999999999,-0.79,-2.46,-1.19,-13.2,-2.31,-6.96,,,,,110,1510000000.0,-9.147877624244192,-5.985325535093282,2.020905572567455,-0.47461303315668113,-2.6722166811258146,-0.6099579833777975,-3.5696053809347763,-1.856772251701924,-4.465872308208866
30,1.56,-3.49,-6.94,4.62,-1.38,-1.46,1.94,0.2,-2.48,-3.3,,,,,110,1560000000.0,-6.942236801857744,-6.334779112237271,2.8971555513574643,-1.047208372727725,-2.120245343871903,0.9593532922250918,-2.04463167156808,-2.0865288048077866,-4.046234947301858
31,1.61,-1.19,-5.81,5.07,-0.841,0.138,-0.522,2.46,-1.05,-2.69,,,,,110,1610000000.0,-4.699811452991147,-6.142686463143352,3.629701131935495,-0.9167956912889168,-1.091974772257629,0.04768948802681816,-0.2223069908449251,-1.7044063949738417,-3.5580795955015505
32,1.66,-8.77,-4.03,2.89,-0.568,0.371,-0.873,-5.2,1.11,-4.65,,,,,110,1660000000.0,-6.286515096141695,-5.369348795173446,3.380320797400086,-0.696206280338677,-0.425823105709798,-0.5189270649887268,-2.2360060145636576,-0.66685904954189,-3.9510991525478074
33,1.71,-13.4,-1.23,4.51,-1.36,0.39299999999999996,-0.38299999999999995,-9.88,4.41,-2.73,,,,,110,1710000000.0,-9.059602978285387,-3.8541619924142996,3.7611771491510773,-1.1160104242315514,-0.05297977697344025,-0.43527396416237407,-5.328342970205666,1.2047546073561999,-3.5115837843440163
34,1.76,-15.9,-1.96,6.78,-0.898,2.13,0.0978,-12.1,4.17,0.139,,,,,110,1760000000.0,-11.726231544414633,-3.1608139923700413,4.77893307656252,-0.9781337405264241,0.9410193871540341,-0.10720621883930237,-8.067780781144743,2.297909652309124,-2.1976137457763016
35,1.81,-13.5,-1.98,8.33,-0.0669,3.22,0.276,-8.86,4.29,2.38,,,,,110,1810000000.0,-12.417709229427,-2.728583261008852,5.976127897093006,-0.4018407133955779,1.978731581196489,0.12862896734052187,-8.388268692798894,3.032305369187133,-0.5499738563398551
36,1.86,-5.36,1.72,4.09,2.18,3.93,0.0935,0.39899999999999997,7.75,-1.07,,,,,110,1860000000.0,-9.666364581389598,-1.100202794418335,5.340245086720857,1.230997023567077,2.867223156984201,0.10700967846635369,-4.833426115876969,4.7715110235736695,-0.7371490813436036
37,1.91,-5.48,-0.33799999999999997,3.19,1.67,1.24,1.17,1.12,5.08,-1.64,,,,,110,1910000000.0,-8.03437159659337,-0.8212024785909833,4.61531865672108,1.5086363582600524,2.126282548793946,0.7612018665466657,-2.4249994000777413,4.885237256704889,-1.0621160203751114
38,1.96,-12.9,-2.05,-5.69,-0.237,-0.396,0.0978,-5.93,2.89,-10.6,,,,,110,1960000000.0,-9.93116550458398,-1.270997317383673,1.1410179129385472,0.404640732992549,0.9777851426006072,0.35292690260793796,-3.8429285889590163,4.149681438066412,-4.495127020002426
39,2.01,-4.13,-3.74,-1.66,-0.67,-0.23199999999999998,1.13,2.89,0.879,-6.72,,,,,110,2010000000.0,-7.669666039014679,-2.174762739792062,0.1966920970723991,-0.2749960529964488,0.4269209689942891,0.8311581310464502,-1.1191582736378698,2.9439256437996466,-5.295934872526477
40,2.06,-3.8,-4.2,1.21,-0.182,-0.301,0.419,3.36,0.317,-3.73,,,,,110,2060000000.0,-6.161133322145481,-2.9160900949167066,0.5383153530900422,-0.21618240657696386,0.09546906848482484,0.5775051718765766,0.692861222238432,1.9754941771662184,-4.732301327279032
41,2.11,-10.8,-8.89,5.22,0.685,1.02,-0.5479999999999999,-3.56,-4.35,0.37799999999999995,,,,,110,2110000000.0,-7.969527711656813,-5.102808455427015,2.1166828129894615,0.3537538406735743,0.5164454401827054,-0.11516031297932927,-1.0276110303514805,-0.35643612667321056,-2.892928991288437
42,2.16,-3.82,-3.34,3.87,0.6579999999999999,-0.96,-0.6709999999999999,3.42,1.17,-0.965,,,,,110,2160000000.0,-6.351895008201543,-4.45754167990739,2.707790276854169,0.5461687260667702,-0.15583996100881425,-0.4572386846104626,0.7716462701773583,0.20629344267874083,-2.1990013577531182
43,2.21,-5.96,-0.795,-0.654,0.703,-0.665,-3.65,0.5489999999999999,4.1,-6.12,,,,,110,2210000000.0,-6.199120486922837,-3.116887607772661,1.5744075325782045,0.6453537878165145,-0.3876811595850194,-2.4221480683880796,0.6815759216614933,1.6417310504716627,-3.6103029174981334
44,2.26,-15.7,-4.85,4.97,0.87,3.59,-5.37,-10.4,1.26,-0.574,,,,,110,2260000000.0,-9.902899308058235,-3.7512842295466404,2.7191861690942325,0.7874271578417513,1.423518145561028,-4.236333643930951,-3.8014162316453577,1.5010036677187868,-2.517433585467211
45,2.31,-7.46,-7.52,5.99,0.32299999999999995,0.858,-2.75,-2.7,-0.616,0.91,,,,,110,2310000000.0,-8.950570763395294,-5.1308027670549095,3.8218973462762404,0.4937087486181914,1.1660148191994715,-3.3216048093413715,-3.3558442015385475,0.7205579136844802,-1.2837829304612642
46,2.36,-8.65,-12.4,-2.17,1.77,-1.57,-3.73,-5.12,-5.03,-7.56,,,,,110,2360000000.0,-8.833397499445129,-7.791653961718602,1.8018090549998167,1.3008756752108839,-0.07980357159658613,-3.5729419675733753,-4.069523954024255,-1.3994188942535872,-3.5428082261783134
47,2.41,-2.57,-11.3,4.46,1.38,-1.86,-2.0,-0.6990000000000001,-3.91,-1.67,,,,,110,2410000000.0,-6.391703581757096,-9.075865607861752,2.6979826878803346,1.3509163967900575,-0.8903991171599986,-2.6049120916767654,-2.7059965043989176,-2.3249593002961606,-2.868720436414665
48,2.46,-3.31,-8.49,3.01,0.92,2.21,-4.32,-2.54,-1.32,-3.63,,,,,110,2460000000.0,-5.190346498500616,-8.86141250616931,2.8031751595086374,1.0783912541427163,0.5213381970302639,-3.660422425462687,-2.638843490370335,-1.9544752094305107,-3.1427310460544047
49,2.51,-1.59,-10.1,-0.857,-0.8420000000000001,-4.22,-2.84,-2.3,-3.0,-7.58,,,,,110,2510000000.0,-3.7868040963873453,-9.314791069857565,1.5691959290886488,-0.13612489497832936,-1.6375850320293193,-3.1555128241152595,-2.501766148183237,-2.339914024330333,-4.739855973194313
50,2.56,3.4,-7.71,-1.56,-0.245,-4.43,-2.49,0.16,-0.556,-7.43,,,,,110,2560000000.0,-0.9851336136907936,-8.72736577086514,0.5142292806175557,-0.20498095660991195,-2.909084592948446,-2.745938726287654,-1.4249628816321769,-1.6822637076391045,-5.708130812314965
51,2.61,4.67,-3.82,-2.0,2.71,0.33799999999999997,-0.361,0.159,2.76,-7.7,,,,,110,2610000000.0,1.2194375297821645,-6.931050370624055,-0.3334095845319883,1.6385451846443626,-1.4305554578601654,-1.2781846797692267,-0.7841791664813254,-0.04459727379353029,-6.425072632687571
52,2.66,3.31,-4.64,-0.737,2.4,-3.63,-0.17600000000000002,-1.35,0.9079999999999999,-7.34,,,,,110,2660000000.0,2.0344127049023215,-6.092423408728754,-0.4694747058355051,2.12011334437828,-2.4320516964578713,-0.5998712253057119,-1.0130789699907392,0.30658326698266836,-6.754386358957059
53,2.71,5.13,-8.45,13.0,-0.23800000000000002,-0.687,0.48100000000000004,-0.568,-3.26,6.9,,,,,110,2710000000.0,3.2411821730146504,-6.955401824371048,4.0715790245587815,0.6287679077080552,-1.6374589667285435,0.06532537168495223,-0.8330246591695887,-1.0082584626359252,-1.8397053756075579
54,2.76,-1.22,-17.1,8.13,0.856,-1.27,0.129,-6.83,-11.9,1.99,,,,,110,2760000000.0,1.5020555516767367,-10.668778658369018,5.439821560530562,0.772476670973884,-1.4701400069090382,0.1045124092480582,-3.2590689483580033,-5.023562395349817,-0.4612633422609176
55,2.81,-0.158,-6.47,-1.99,0.0162,-1.3,0.59,-5.99,-1.25,-7.89,,,,,110,2810000000.0,0.8549071759803137,-9.13183778363526,2.934956323113328,0.29418339403856725,-1.3926683486885736,0.40329423116255886,-4.363852415767887,-3.632416598776284,-3.1351198533572346
56,2.86,8.9,-6.93,7.74,-2.74,3.15,-0.409,3.12,-1.31,2.15,,,,,110,2860000000.0,3.9911687778640137,-8.325866605042426,4.554912628077153,-1.6247301192611894,0.675792590442835,-0.09661301843417425,-1.3362999687648829,-2.7762441467549293,-1.232824309459563
57,2.91,8.48,-10.8,-8.07,-0.6579999999999999,-1.78,-2.7,3.07,-5.34,-14.2,,,,,110,2910000000.0,5.741073786934732,-9.231510163988162,0.29859183963732683,-1.0133394228324837,-0.44242923254909017,-1.698805899537854,0.4462451047378464,-3.7213877583591164,-5.900154551637247
58,2.96,3.37,-5.01,-3.14,-3.38,1.74,0.9059999999999999,-2.82,0.711,-8.14,,,,,110,2960000000.0,4.816745311505054,-7.686248702010765,-0.860683567762115,-2.5100904686563528,0.5513191986355687,-0.09573979717239656,-0.875096867162954,-2.0873621380112626,-6.706351707024319
59,3.01,5.65,-10.2,-2.14,-3.8,4.31,0.282,0.547,-3.29,-6.95,,,,,110,3010000000.0,5.14157749980806,-8.606394045917282,-1.2919880737074858,-3.325870007959049,2.2627987833057217,0.13673121675804378,-0.2997951843836506,-2.530721589414402,-6.794048997467779
60,3.06,1.87,-16.4,1.52,-1.32,-1.23,-1.54,-2.81,-8.92,-2.77,,,,,110,3060000000.0,3.8662008713168055,-11.459202289019952,-0.34396380964411466,-2.057294430421864,0.6723860160213824,-0.8951732706318477,-1.3152851022448755,-4.8861663863822296,-5.345656040097069
61,3.11,-1.05,-7.25,-2.42,-0.941,-1.17,-1.02,-6.66,0.0168,-5.87,,,,,110,3110000000.0,1.9496918963841994,-9.918445976024149,-1.0438717451050072,-1.3513145301581,-0.16652694166100002,-0.9719949127306626,-3.4774608846818107,-3.0786592184263295,-5.534385334866102
62,3.16,2.51,-6.79,-1.83,-2.43,1.44,0.063,-3.21,0.629,-4.72,,,,,110,3160000000.0,2.1681198104490136,-8.773294801233968,-1.3089044147007667,-2.033509367273733,0.5649898718089414,-0.33503180884016104,-3.3692610288053837,-1.7118090095960867,-5.2412601063606035
63,3.21,8.07,-10.4,10.8,-1.65,-1.33,-0.75,2.39,-2.72,8.49,,,,,110,3210000000.0,4.468881348302632,-9.368741525941878,2.773451254721101,-1.7909659032821033,-0.2978757911658708,-0.5904141527986076,-1.0393827206511737,-2.0834845117616454,-0.2989097471541129
64,3.26,0.239,-11.8,-2.05,-0.428,1.5,-0.446,-5.83,-4.33,-3.86,,,,,110,3260000000.0,2.8199239781893235,-10.25869094606769,1.1472890193369356,-0.9289831764154871,0.5207698778357062,-0.5015378891915205,-2.977401304100743,-2.911675527263433,-1.5806679637263004
65,3.31,0.953,-14.4,3.39,-0.564,0.643,-0.40299999999999997,-5.17,-6.91,1.64,,,,,110,3310000000.0,2.0921309789380858,-11.774595158560802,1.9033891467531523,-0.6981562829603105,0.5764262063140457,-0.4408950775804256,-3.8644054178607496,-4.385681118947025,-0.42143934677951256
66,3.36,1.48,-13.6,2.31,1.22,1.69,0.511,-4.59,-6.16,0.23600000000000002,,,,,110,3360000000.0,1.853500678732479,-12.442775119478595,2.0404725529318855,0.5149464129929757,1.0834814849029977,0.14492618672437801,-4.157940889460869,-5.0397940717175,-0.18480442560147822
67,3.41,3.02,-13.9,5.58,2.63,1.28,1.72,-3.94,-6.08,-0.9570000000000001,,,,,110,3410000000.0,2.3082433676723846,-12.976184466951127,3.233776992927841,1.8525732434214506,1.172964311598615,1.1142680741692061,-4.069774090680737,-5.423272028872339,-0.4627440461024933
68,3.46,6.96,-14.6,-5.47,2.85,-0.225,1.66,2.26,-7.24,-9.97,,,,,110,3460000000.0,4.121662657891463,-13.570573724023426,0.2994147484684886,2.4833773986574696,0.5364145399999141,1.450125840707357,-1.5090978190571307,-6.093019312038573,-3.8847309298866013
69,3.51,11.4,-17.3,0.627,1.99,-1.56,0.932,7.07,-10.2,-4.64,,,,,110,3510000000.0,6.959015851559338,-14.935710276868326,0.4098557377459926,2.1713499391358337,-0.418167887324869,1.1312575533701865,1.9615304174558958,-7.607081637433504,-4.156578067979143
70,3.56,4.03,-9.32,-1.57,1.83,0.525,1.35,-0.156,-2.62,-7.39,,,,,110,3560000000.0,5.8171819504402675,-12.880109016312995,-0.2576262330116811,1.9554694726323498,0.011294643054462594,1.2658774255010585,1.1048948040593305,-5.768564848937277,-5.3203972316907775
71,3.61,1.85,-4.49,-1.51,1.57,-0.597,1.23,-1.87,1.95,-7.9,,,,,110,3610000000.0,4.270634109886933,-9.808953747776762,-0.6798473401688528,1.7116864242918548,-0.26568654763871413,1.24379752553809,-0.09858298991662306,-2.9230708603533366,-6.248884584902487
72,3.66,1.61,-2.52,-2.33,1.3,-1.5,0.985,-2.04,3.66,-9.01,,,,,110,3660000000.0,3.233424828548833,-7.140870638370321,-1.2361742726471427,1.4513228835165202,-0.8277194572151279,1.0845267273485681,-0.8839728489598108,-0.4961833424432771,-7.242704599715115
73,3.71,2.34,-1.98,-3.22,0.8190000000000001,-2.13,0.304,-1.75,3.95,-9.87,,,,,110,3710000000.0,2.8851361950565617,-5.251761148912265,-1.9049946644078948,1.0514219040507973,-1.420700588114655,0.6041700352084789,-1.234319503962324,1.1429281087394025,-8.18835808785787
74,3.76,3.99,-0.85,0.0886,-0.688,-2.33,0.414,-0.7140000000000001,5.03,-6.19,,,,,110,3760000000.0,3.315851190739898,-3.640519688875229,-1.2328808147189776,-0.04864351648872778,-1.8347414059317706,0.48713439435709427,-1.0238270243622933,2.575919920679226,-7.46908064218495
75,3.81,12.0,-26.7,27.6,1.98,1.33,-0.815,6.95,-20.6,21.8,,,,,110,3810000000.0,6.701239568812271,-12.081321199401849,8.487740484435566,1.234334793085928,-0.3937064393680316,-0.31423337371565974,2.2019420007488044,-5.968018335062508,3.065862891444646
76,3.86,0.249,-9.89,3.35,0.301,-1.62,0.732,6.68,-21.1,21.5,,,,,110,3860000000.0,4.185928358073412,-11.279199749546477,6.755619779267701,0.644064360980526,-0.9520875695730777,0.3296461700522637,4.01351635949672,-11.546511814758667,9.700939714188376
77,3.91,6.68,1.89,-11.4,-1.52,0.547,-0.142,1.27,7.51,-17.3,,,,,110,3910000000.0,5.158205636476834,-6.4586835956649455,0.6346948735421147,-0.7245583479968919,-0.26949228412656223,0.03938270364625723,2.9036414727541953,-4.521217451127024,-0.01762227614228884
78,3.96,11.2,-17.7,-6.23,-0.997,5.04,-2.45,6.06,-11.7,-12.0,,,,,110,3960000000.0,7.513510712945876,-10.573508496584362,-1.6796454426860556,-0.8968590489822171,2.1481345915042653,-1.4926489450144877,4.180529420936912,-7.167717457154956,-4.330490095706837
79,4.01,4.02,-10.9,-3.15,-2.97,0.18100000000000002,0.446,-1.1,-4.49,-8.55,,,,,110,4010000000.0,6.151616658546649,-10.69301885097799,-2.175355901065597,-2.2079789490172734,1.2524185324331367,-0.29955336628356233,2.0443194586990554,-6.180561207153327,-5.849236184551985
80,4.06,2.45,-8.07,-1.52,-2.6,2.25,-0.348,-2.31,-0.904,-6.22,,,,,110,4060000000.0,4.70859557153666,-9.73287651367687,-1.9544113942546342,-2.4559053955005217,1.7066577807241798,-0.3293686932933931,0.28280281884745073,-4.2353261224941825,-5.98268669498325
81,4.11,0.79,-12.7,2.97,-1.73,-0.0287,-1.37,-3.68,-5.2,-1.55,,,,,110,4110000000.0,3.1809884191283864,-10.818976357592655,-0.2942117687927277,-1.9968198851910883,0.916479094258382,-0.9698005846589326,-1.3203279071792544,-4.590958706195531,-4.3872110350402025
82,4.16,0.551,-7.86,-1.1,-1.25,-1.2,-0.721,-4.64,-0.344,-4.66,,,,,110,4160000000.0,2.1557259060866136,-9.735858706263391,-0.5658725307312373,-1.5245073783052197,-0.0472395850834767,-0.8166821678177856,-2.6632834545332704,-3.025292601568815,-4.485397064351692
83,4.21,2.81,-5.6,-1.74,-1.57,0.38799999999999996,-0.153,-2.54,2.06,-4.72,,,,,110,4210000000.0,2.4107850683078853,-8.221949390264314,-0.9617139487546327,-1.5532783837341273,0.15094263218984943,-0.40823469641606036,-2.6134097765248248,-1.150569831346506,-4.569838614265671
84,4.26,5.11,-9.69,4.2,-1.68,-1.27,-0.953,-0.409,-1.92,1.9,,,,,110,4260000000.0,3.463034576276251,-8.759321424894459,0.7784889936754997,-1.6334211071246167,-0.49607009351861614,-0.7434976043063983,-1.7216275878543525,-1.434224736985994,-2.2411222862151976
85,4.31,1.53,-11.5,0.292,-0.6990000000000001,0.682,-0.946,-4.45,-3.87,-1.44,,,,,110,4310000000.0,2.7094693127680625,-9.762532372370543,0.6144757171921281,-1.0424636568824621,0.040352928224077045,-0.8681228947661426,-2.8253759867641763,-2.3321874587661915,-1.9527709789375254
86,4.36,2.64,-13.2,1.03,-0.639,0.574,-0.316,-3.53,-5.69,-0.518,,,,,110,4360000000.0,2.6823877583058082,-11.02079921022927,0.7545641768984314,-0.7873004834401998,0.2833440553153196,-0.528331946187082,-3.110427853500238,-3.5700646667269402,-1.4363478033942771
87,4.41,2.91,-11.4,4.17,0.326,0.879,0.0153,-3.29,-3.99,2.55,,,,,110,4410000000.0,2.7711190945868114,-11.159603521085138,1.9060328325508427,-0.08321405638809054,0.5545703371103891,-0.19376654178348424,-3.183072790114043,-3.724876281264552,-0.001524820058854015
88,4.46,1.72,-14.1,3.65,1.9,2.03,1.36,-4.09,-6.64,1.12,,,,,110,4460000000.0,2.36135570290783,-12.235920294258195,2.493988132772593,1.1710331991780514,1.226393210500401,0.7624622813199882,-3.5499654070387283,-4.799553601313657,0.4021503466995217
89,4.51,4.95,-14.5,-4.57,3.09,0.654,1.97,-0.00829,-6.98,-8.49,,,,,110,4510000000.0,3.3705007400452387,-13.064674737551911,0.11245870108554534,2.384648419876352,0.9657593903408347,1.5056127851196874,-2.1171995516272792,-5.6033878965828645,-2.798438799602741
90,4.56,8.3,-16.6,-1.7,2.42,-1.33,1.59,4.01,-9.26,-6.64,,,,,110,4560000000.0,5.292193990198175,-14.35876205632285,-0.49858759003066655,2.4070059250743947,-0.07959286721748093,1.5575469181922237,0.36152636944246863,-6.9514193699845634,-4.181148098547878
91,4.61,3.91,-13.0,0.687,1.56,0.633,1.31,-0.222,-5.95,-4.78,,,,,110,4610000000.0,4.753365915868246,-13.861394367057901,-0.09888255624908665,1.8713325628919604,0.24487953551895986,1.4051999957835037,0.12546389449958734,-6.582240205432231,-4.396695468098006
92,4.66,3.92,-5.87,-1.05,1.62,-0.465,1.2,0.446,0.99,-7.13,,,,,110,4660000000.0,4.428490434120515,-10.936186536318083,-0.41953909956496327,1.7123819069931596,-0.0783573716404053,1.27891454826666,0.2551350666555815,-3.790689664574506,-5.3805053530766065
93,4.71,1.43,-2.46,-2.49,1.78,-1.7,0.9329999999999999,-2.05,4.02,-8.97,,,,,110,4710000000.0,3.2595727810536803,-7.833523143006166,-1.117567377890439,1.7551457087333366,-0.8167569651685571,1.0660296504773066,-0.6773949842278586,-0.9112333497487173,-6.672487417041368
94,4.76,2.38,-2.45,-2.58,1.41,-2.04,0.527,-1.46,3.64,-9.24,,,,,110,4760000000.0,2.916684243717034,-5.862912888204639,-1.6106070036116171,1.5368646292784667,-1.3737490478768244,0.7342966261701946,-0.9939936757345864,0.7666054207105883,-7.596622982070709
95,4.81,2.38,-2.18,-2.19,0.133,-1.74,-0.0164,-1.99,3.64,-8.76,,,,,110,4810000000.0,2.7074657867497987,-4.514802060967695,-1.8059416432256692,0.6490162539049169,-1.5405179453745341,0.2722981691854606,-1.3969227143793679,1.8258991378990337,-8.015362267829925
96,4.86,6.98,-6.06,9.69,-1.3,-1.07,-0.109,2.1,-0.0657,3.66,,,,,110,4860000000.0,4.373050756873928,-5.080413601529617,2.0697615982115254,-0.5836032150932624,-1.326272090838095,0.03763724432827692,0.01773863994646918,1.1285500770922443,-3.812999787084596
97,4.91,-1.41,-25.2,6.17,1.04,-0.457,-0.0616,-6.48,-19.3,0.14300000000000002,,,,,110,4910000000.0,2.1186130291086247,-12.445082440249,3.452102308821102,0.4432147659185175,-0.9304572930696458,-0.023435966870042353,-2.61088680387927,-6.402553832438917,-2.389100073863082
98,4.96,0.615,-5.07,-2.49,0.7140000000000001,-1.19,0.652,-4.57,0.8390000000000001,-8.36,,,,,110,4960000000.0,1.5324514888838603,-9.745472446727984,1.448801772722752,0.6144679006658936,-1.0486376261253447,0.39224510614974645,-3.403435645273872,-3.732912761047365,-4.538231177725486
99,5.01,12.0,-4.39,5.09,-2.91,2.22,-1.05,6.79,1.69,-0.5429999999999999,,,,,110,5010000000.0,5.613072152437482,-7.78512993512928,2.676383237264102,-1.6145170837326637,0.4397054911984244,-0.49535045283532636,0.720264245256113,-1.7337243067595531,-3.1002107406080155
100,5.06,3.95,-13.9,-7.27,-1.72,-1.01,-1.52,-0.914,-7.83,-13.3,,,,,110,5060000000.0,4.964747820486121,-10.023445753882765,-0.6769071918962482,-1.681227833026758,-0.22040413357191524,-1.1259467341754779,0.05913139027126302,-3.9811518859933814,-6.771464034367764
101,5.11,3.35,-5.35,-4.26,-2.99,1.22,0.397,-1.69,1.32,-9.39,,,,,110,5110000000.0,4.335261966671859,-8.312755532493373,-1.8848992151415165,-2.5089367356515724,0.4354702236981123,-0.18868523134661763,-0.6484703876318771,-2.0268512905523455,-7.713964866966906
102,5.16,3.63,-10.9,0.759,-2.28,3.46,-0.542,-0.8590000000000001,-3.46,-3.85,,,,,110,5160000000.0,4.060325950433343,-9.259802593933266,-0.993543860083698,-2.36414988785739,1.8126611539787165,-0.4061244341579476,-0.7336390280213607,-2.5551899390765516,-6.323191639313096
103,5.21,0.29,-13.0,0.7759999999999999,-1.17,-2.37,-1.47,-4.26,-5.46,-3.55,,,,,110,5210000000.0,2.590519529246613,-10.628882141447628,-0.39696574353810476,-1.6089317173388813,-0.09187383211106814,-1.0608614688979359,-2.1602096032835916,-3.626065132274875,-5.325025043336198
104,5.26,0.584,-6.27,-2.76,-1.33,-0.228,-0.45899999999999996,-4.73,1.24,-6.16,,,,,110,5260000000.0,1.8083072395976392,-9.033336300387228,-1.1936312198391197,-1.432526507717093,-0.15385759006877484,-0.6904600787870774,-3.1998045803557678,-1.832161823235596,-5.625561050933097
105,5.31,2.52,-4.12,-1.41,-1.85,0.49700000000000005,-0.264,-2.82,3.57,-4.31,,,,,110,5310000000.0,2.0857502438773547,-7.2348354018283105,-1.2665770567165393,-1.6965499581758259,0.1425042370865701,-0.42800532391473456,-3.046156640437699,0.15937663103674593,-5.152045585239744
106,5.36,6.42,-12.0,7.71,-1.6,-2.25,-1.25,0.78,-4.22,5.72,,,,,110,5360000000.0,3.7753941378971096,-8.979098787850226,1.7597561740175203,-1.6354887271759653,-0.94689984821386,-0.9338824768436931,-1.4983054340875914,-1.4551060412287944,-1.2388243771331822
107,5.41,1.42,-11.8,-1.23,-0.456,1.12,-0.358,-4.67,-4.24,-2.76,,,,,110,5410000000.0,2.857178172159742,-10.01167487861473,0.7517997532876604,-0.8895427654921078,-0.005756627298332373,-0.5794692536236279,-2.7813975487536626,-2.4817733651913647,-1.7863475400505884
108,5.46,4.25,-13.2,1.59,-0.738,0.688,-0.311,-1.85,-5.65,0.0332,,,,,110,5460000000.0,3.4001493869859964,-11.178744415186067,1.0343877971313788,-0.7937023140321087,0.3101388757154218,-0.41424620421684794,-2.404605658408728,-3.6497586365380608,-1.1314301096151662
109,5.51,0.912,-13.1,3.09,0.879,1.33,0.32799999999999996,-5.2,-5.6,1.34,,,,,110,5510000000.0,2.4301807463042517,-11.882010035528024,1.727410002984341,0.2641675187199033,0.7745229736678715,0.042551646266791754,-3.5354674206408054,-4.36872646008783,-0.24187782060687135
110,5.56,-1.07,-14.0,5.02,2.3,1.38,1.75,-6.66,-6.45,2.24,,,,,110,5560000000.0,1.0656864639600305,-12.657289099006288,2.837462794836382,1.5516923146958894,1.0502211858684571,1.0933602914923664,-4.799480313136612,-5.136000024928441,0.651434948561195
111,5.61,7.68,-13.1,-8.5,2.96,0.0189,1.87,3.02,-5.57,-12.7,,,,,110,5610000000.0,3.6441797722298004,-12.819341230610737,-0.9848115582527766,2.442350644126576,0.5806188770380063,1.571324806876739,-1.6361513556176415,-5.2959967115033955,-4.154203351205741
112,5.66,16.2,-19.2,4.84,1.59,-1.43,1.11,12.1,-11.8,-0.111,,,,,110,5660000000.0,8.538882913864148,-15.154948022699918,0.9789460140375386,1.9032971699343744,-0.3348973120380645,1.2874133906214495,3.9207354093242075,-7.693735546346146,-2.69891609377925
113,5.71,1.84,-9.85,-2.73,1.87,0.462,1.36,-2.28,-2.84,-8.22,,,,,110,5710000000.0,5.927421416856939,-13.213099898731345,-0.2714756681230188,1.8822389899587253,0.02796231736118887,1.3320851088188181,1.412261054242395,-5.904377582979004,-4.6861432375626135
114,5.76,1.98,-4.24,-0.498,0.8290000000000001,-0.136,1.63,-1.37,2.72,-6.53,,,,,110,5760000000.0,4.388576929397161,-9.928543890380773,-0.34784532368530785,1.2161373510450926,-0.04669637023966447,1.5154297689952225,0.28671221411955505,-2.7249504514148977,-5.349810464781196
115,5.81,1.31,-2.45,-2.91,1.32,-2.18,0.8,-1.94,4.39,-9.14,,,,,110,5810000000.0,3.188438725825274,-7.191062332958582,-1.2116416256633709,1.2818234071427075,-1.0180759507426278,1.0751354712839096,-0.6140923333822359,-0.1019824994939027,-6.7140295149496785
116,5.86,2.06,-2.19,-2.83,0.956,-2.0,0.257,-1.73,4.35,-9.09,,,,,110,5860000000.0,2.748533373510769,-5.360449845378955,-1.7572495388849148,1.0757623645210412,-1.4651857422882197,0.5716333740973384,-1.0655268230560855,1.5392667920381469,-7.569222661039302
117,5.91,4.07,-2.85,-0.44299999999999995,-0.473,-1.95,-0.0494,-0.289,3.56,-6.45,,,,,110,5910000000.0,3.2636878738225548,-4.441512876073652,-1.3141678335885478,0.09627608579037938,-1.685941332486505,0.18943309325007446,-0.7513870491891699,2.2842218594606067,-7.166376053163884
118,5.96,10.3,-22.0,30.2,1.09,0.78,-0.9009999999999999,5.52,-15.5,24.7,,,,,110,5960000000.0,6.006691300567376,-10.86870454453205,9.31041374742427,0.7247385278661185,-0.5630983761767565,-0.48164813914741417,1.7856690530221266,-4.272035303693118,4.30342353616526
119,6.01,-0.498,-11.4,3.02,0.34600000000000003,-1.71,0.996,-5.52,-5.29,-2.82,,,,,110,6010000000.0,3.4709325518588665,-11.063182306140636,7.189684652643559,0.4852122997330584,-1.0853291570549919,0.4277354022666316,-1.1698003055598787,-4.647313914960997,1.7394596423238444
120,6.06,6.36,-0.618,-10.7,-1.09,0.27,-0.414,1.18,5.49,-16.3,,,,,110,6060000000.0,4.597193286125997,-7.239778364406713,1.1584161632991528,-0.5110017817106098,-0.4681928906178977,-0.09029071578280595,-0.2192011729442661,-0.9101340712369499,-4.753558978541889
121,6.11,14.1,-17.5,0.6459999999999999,-0.183,5.44,-1.95,9.18,-11.2,-4.98,,,,,110,6110000000.0,8.301723621365763,-10.995478416887977,0.9856618981854632,-0.30356308378227737,2.222046664383318,-1.234804773438163,3.5831955459101326,-4.703553119085216,-4.83506285859342
122,6.16,3.27,-7.16,-4.65,-2.87,-0.644,0.193,-1.64,-0.622,-10.1,,,,,110,6160000000.0,6.340179766215452,-9.591521701693848,-0.914326369952216,-1.9266588578070931,0.917019534362485,-0.35609614355427066,1.4701797117945898,-3.1988647372814683,-6.730094056718647
123,6.21,2.91,-7.59,-2.12,-3.07,2.55,-0.41,-1.79,-0.26,-6.62,,,,,110,6210000000.0,5.002974395863907,-8.858875287805251,-1.3208031134967995,-2.6497439018354125,1.6605816610071544,-0.3892699929900918,0.1512914506150933,-2.1154350994749116,-6.690467396730261
124,6.26,2.17,-15.5,3.05,-1.17,1.26,-1.25,-2.26,-7.76,-1.11,,,,,110,6260000000.0,3.8985807992660644,-11.289823986184143,0.15275483885826402,-1.7139070475240323,1.4781806012211933,-0.9189858878185011,-0.8241836134210762,-4.196336971651865,-4.681866203674028
125,6.31,0.371,-9.15,-1.19,-1.17,-1.7,-0.81,-4.75,-1.55,-4.68,,,,,110,6310000000.0,2.5234050243812467,-10.50655255450092,-0.2999370636107901,-1.3699230073391764,0.031026222528864222,-0.8519131061606865,-2.4123516489612835,-3.2207493875424076,-4.681194431317255
126,6.36,2.62,-5.82,-2.81,-1.78,0.43799999999999994,0.0832,-2.72,1.91,-5.62,,,,,110,6360000000.0,2.561061117982989,-8.791064755570066,-1.1461712820866803,-1.629268644416481,0.21633786457396809,-0.2764198947221329,-2.536809156555003,-1.3292686991316158,-5.019102643338441
127,6.41,5.96,-6.84,3.84,-1.79,-0.6609999999999999,-0.5870000000000001,0.624,1.1,1.68,,,,,110,6410000000.0,3.886087734964855,-8.076887840873157,0.534849827172555,-1.7309202112519022,-0.18314960699875893,-0.46755907147976034,-1.2581207017174647,-0.4337046091150737,-2.607866355346229
128,6.46,1.79,-10.7,-1.71,-0.32799999999999996,0.354,-1.14,-4.05,-2.94,-3.12,,,,,110,6460000000.0,3.068958579031267,-9.037064151604902,-0.22197136130838246,-0.8436691205975765,0.061436366789174746,-0.8813969041238338,-2.3875606262885833,-1.3576650508185875,-2.7922007397795627
129,6.51,2.03,-12.9,0.596,-0.848,0.22399999999999998,-0.358,-4.0,-5.26,-0.8740000000000001,,,,,110,6510000000.0,2.6639357641461485,-10.451071319396892,0.05379677770242847,-0.8464080993240419,0.13545817662684598,-0.5592846834161183,-3.039864356368666,-2.796283685155615,-2.101774650969014
130,6.56,3.9,-12.5,4.43,-0.125,1.23,0.0984,-2.15,-4.92,2.97,,,,,110,6560000000.0,3.1457973620271344,-11.201070863907365,1.5291752629112665,-0.3901668092406565,0.6338474108902937,-0.1545282254841272,-2.6798745259417465,-3.579204125079207,-0.2762693708202135
131,6.61,-1.57,-14.8,2.73,2.01,1.84,1.15,-7.38,-7.14,0.612,,,,,110,6610000000.0,1.3074127245715816,-12.51843997557966,1.9340173118857376,1.1277745586734116,1.1830575539973651,0.6483127560478152,-4.581285210404211,-4.891912253138456,0.0434491711458555
132,6.66,5.11,-15.3,3.63,3.27,0.735,2.31,0.185,-7.58,0.171,,,,,110,6660000000.0,2.7897958001716163,-13.536615431926332,2.5057952913856467,2.4825856444014147,0.9790388080223145,1.6709587749803998,-2.653110003561457,-5.882891458448401,0.08935908103634449
133,6.71,9.23,-14.6,-8.35,2.02,-0.26899999999999996,1.52,5.06,-7.04,-13.0,,,,,110,6710000000.0,5.300415019127825,-13.925861888060705,-1.1540914163907718,2.1900318456907795,0.4107561909032945,1.5780547609188205,0.4671873983404162,-6.309466260199258,-4.621949213554102
134,6.76,6.63,-13.0,2.02,2.79,-1.43,0.18600000000000003,2.44,-5.78,-3.07,,,,,110,6760000000.0,5.8187343188306935,-13.586955023756996,-0.08398884036711407,2.5694706509706857,-0.4274146370458093,0.7213476344234258,1.265278214725413,-6.114275511177227,-4.0633495547130964
135,6.81,1.59,-6.07,-2.23,0.789,1.3,1.54,-2.25,0.768,-8.12,,,,,110,6810000000.0,4.1702241172712355,-10.835413318792417,-0.8074878840462584,1.4434447038737297,0.3591471928091807,1.22516781804198,-0.15680879773489598,-3.577084482000006,-5.52347684082729
136,6.86,1.08,-3.05,-1.93,1.11,-1.09,1.13,-2.14,3.83,-8.14,,,,,110,6860000000.0,2.9655454669228627,-7.98560378956854,-1.1859278532878492,1.2325637399882596,-0.30070823563227467,1.1665990357196547,-0.9590982408110005,-0.8464195939458317,-6.465253195496729
137,6.91,1.29,-2.29,-3.27,1.38,-2.17,0.264,-2.19,4.3,-9.64,,,,,110,6910000000.0,2.3123585623241936,-5.900758027518222,-1.8885449720923555,1.325807089155432,-1.1518725246098325,0.6111158380370192,-1.4570529914185357,1.050838090115259,-7.607953344387127
138,6.96,2.88,-1.71,-2.38,0.174,-1.8,0.041,-1.15,4.61,-8.71,,,,,110,6960000000.0,2.5336453177282214,-4.366753153196833,-2.054232517911535,0.5973678672224345,-1.4469911942421485,0.26025155046460435,-1.332836335305958,2.3629439458711676,-8.00461766516804
139,7.01,8.73,-8.66,19.6,-0.5670000000000001,-0.602,-0.16399999999999998,4.13,-2.21,13.9,,,,,110,7010000000.0,4.949203369393698,-5.938273477752372,5.246203262554369,-0.13901516692335958,-1.0622324770542004,-0.0008440198722377557,0.8771249513532946,0.677101462075872,-0.12039625603649551
140,7.06,-2.72,-19.3,4.03,0.897,-1.47,0.623,-7.35,-13.3,-2.21,,,,,110,7060000000.0,1.9594766128703096,-10.829262768021461,4.836176626014748,0.5161935886895841,-1.2479055595224,0.3830860211027765,-2.4511144348145444,-4.4756386215516875,-0.8725161703971309
141,7.11,1.95,-0.40700000000000003,-3.43,0.82,-1.44,0.0654,-3.0,5.54,-9.45,,,,,110,7110000000.0,1.9557823125593188,-7.014248414984156,2.0493454149543933,0.7083303638359294,-1.3353739649329721,0.18757368251194081,-2.673163156394365,-0.7833150144283114,-3.959846081993777
142,7.16,7.85,-7.73,7.31,-3.57,1.68,-0.715,2.75,-1.51,1.69,,,,,110,7160000000.0,4.25355681784611,-7.276245517241334,3.822904918172909,-1.9974209799194385,0.0376479123303346,-0.36789389511897297,-0.4792514885054837,-1.0512116712028017,-1.9262730999977506
143,7.21,4.58,-12.7,-5.16,-1.68,-1.64,-1.14,0.126,-6.28,-11.1,,,,,110,7210000000.0,4.380815887324706,-9.261582189554007,0.7944383976586509,-1.796673883450073,-0.7262531272055143,-0.8430682997998316,-0.23440023310489433,-2.9788350770372394,-5.228211504004591
144,7.26,3.61,-5.6,-5.49,-3.28,2.0,0.016,-1.05,1.37,-10.6,,,,,110,7260000000.0,4.08032454856029,-7.921279292788295,-1.3242761040577689,-2.734776198367339,0.5151203459538961,-0.3143750628455493,-0.5643467400977672,-1.3756116477650289,-7.161702161454446
145,7.31,4.76,-11.8,0.113,-2.28,2.42,-0.8370000000000001,0.624,-4.04,-4.31,,,,,110,7310000000.0,4.34528616996473,-9.341064634407356,-0.839717637781544,-2.447161334201112,1.382489242556332,-0.6360122087066882,-0.08360741294513907,-2.357853947018055,-6.135276938235546
146,7.36,-1.09,-12.9,2.65,-0.831,-2.36,-1.63,-5.58,-5.17,-1.3,,,,,110,7360000000.0,2.2264193531415657,-10.643794027725667,0.33679414729005275,-1.4250497911258693,-0.32161764785216307,-1.2477384474800828,-2.3071436247290933,-3.394568027037931,-4.394895271771241
147,7.41,-0.32799999999999996,-6.61,-2.64,-1.38,-0.312,-0.28800000000000003,-5.66,1.03,-5.71,,,,,110,7410000000.0,1.2306163318600016,-9.167245033147166,-0.6667923279632423,-1.3965588759059815,-0.31723834616237234,-0.6570901455328474,-3.6635236884608884,-1.7634252161355384,-4.868246484441225
148,7.46,2.93,-5.45,-1.55,-1.9,0.607,0.0477,-2.34,2.43,-4.03,,,,,110,7460000000.0,1.8930962216416662,-7.806567010950408,-0.9645539975808011,-1.7149509445218794,0.10360480521868509,-0.2233437453017061,-3.1280992198603226,-0.21749451608132042,-4.566532962630291
149,7.51,9.1,-10.0,8.24,-1.05,-2.25,-1.35,3.68,-2.04,6.53,,,,,110,7510000000.0,4.70260238286118,-8.609461595947483,2.1386385278007958,-1.2944149139306333,-0.9680867931670538,-0.9167176649866884,-0.37391904303032497,-0.8893717833664818,-0.5725109136630899
150,7.56,0.441,-12.0,-2.15,-0.306,1.36,-0.758,-5.52,-4.33,-3.53,,,,,110,7560000000.0,3.041279040004107,-9.850550308677173,0.6927812213080795,-0.6693100689717968,0.09198542726197356,-0.8190386475703338,-2.4557385804416407,-2.1577794240893002,-1.6370124406335766
151,7.61,0.594,-14.2,3.0,-0.728,0.505,-0.0885,-5.53,-6.68,1.71,,,,,110,7610000000.0,2.087243098975765,-11.442643374284547,1.470629257005831,-0.7064274275489535,0.280047688828808,-0.36944594141545356,-3.6994146905469005,-3.8249223642200976,-0.4323081036410854
152,7.66,3.59,-12.4,5.22,0.64,1.56,0.501,-2.31,-4.78,3.63,,,,,110,7660000000.0,2.673070860448537,-11.79307858167654,2.7346795201521372,0.1450958372960054,0.8628617933260314,0.16624938717956123,-3.1373343808166743,-4.177017385075698,1.0298556497210372
153,7.71,-1.98,-14.5,2.89,2.46,1.65,1.7,-7.37,-6.74,0.182,,,,,110,7710000000.0,0.8591392450570943,-12.783932899832038,2.7870437835105064,1.6091144420293164,1.2212776902681735,1.1101599014591799,-4.849636586988743,-5.121875797229885,0.7246833836210216
154,7.76,8.31,-15.2,-9.06,2.97,-0.344,1.95,3.89,-7.41,-13.2,,,,,110,7760000000.0,3.763748479768478,-13.668321457977589,-1.2070291441775627,2.4697815128028986,0.5085433524551523,1.6270196262823102,-1.314063277001579,-5.965406080013172,-4.2872866463886234
155,7.81,17.1,-18.1,5.65,1.82,-1.57,0.7090000000000001,13.2,-10.5,0.7509999999999999,,,,,110,7810000000.0,8.962691195595992,-15.290514170443016,1.1047267993684935,2.0588391737572183,-0.4379016492630533,1.0620461870012905,4.55752336628257,-7.63711058892266,-2.4738348600908164
156,7.86,1.9,-8.77,-3.43,1.99,0.536,1.18,-2.06,-1.72,-8.98,,,,,110,7860000000.0,6.209404339582772,-12.903714492747891,-0.42409587571458385,2.015303109882083,0.005555224704740069,1.1346380349762277,1.8804396825361653,-5.455733253282655,-4.815626191751393
157,7.91,1.68,-4.43,-0.807,0.581,0.115,1.56,-1.51,2.56,-6.91,,,,,110,7910000000.0,4.443682295295138,-9.801955901156521,-0.5531868874648752,1.1082044575039802,0.05538986480523474,1.396416945648454,0.5088554348639582,-2.5006864370703767,-5.569462946843669
158,7.96,0.8740000000000001,-2.07,-2.48,1.2,-1.86,0.763,-2.18,4.82,-8.75,,,,,110,7960000000.0,3.052093876240056,-6.971714170925394,-1.2027862334047166,1.166258890947146,-0.8167647282361021,1.0065954971466953,-0.5789066862734682,0.1981273989799579,-6.714247080812227
159,8.01,2.17,-2.37,-2.7,0.7879999999999999,-1.87,0.133,-1.35,4.23,-9.04,,,,,110,8010000000.0,2.7082225119535552,-5.2872809104293905,-1.7075518998478145,0.9270360014213507,-1.2963454099547715,0.46896184196359403,-0.8908483744611085,1.6845007671995842,-7.551365137684085
160,8.06,3.85,-2.89,0.9359999999999999,-0.353,-2.1,-0.10400000000000001,-0.278,3.62,-5.12,,,,,110,8060000000.0,3.153327726111054,-4.409768906605824,-0.8163136421705164,0.11750077379536428,-1.6622818526580767,0.11634604666992293,-0.6429238391152612,2.398033811226007,-6.676233574053043
161,8.11,10.3,-27.6,29.3,2.0,0.47200000000000003,-0.7390000000000001,5.7,-21.1,23.6,,,,,110,8110000000.0,5.939353442048626,-12.898430912215883,9.336999529478561,1.3080528016272406,-0.6904568767422833,-0.4100564310888563,1.9230720196488542,-6.26465360986789,4.221219179785065
162,8.16,-0.165,-9.6,2.8,0.8759999999999999,-2.04,1.01,-4.99,-3.59,-3.26,,,,,110,8160000000.0,3.559660547044611,-11.691057801048892,7.1331373177920145,1.034808941935091,-1.3049585053784347,0.4638836568865445,-0.8735742226524621,-5.27862691778347,1.528472368254445
163,8.21,3.84,4.16,-13.4,-1.14,-0.00244,0.0367,-1.29,10.1,-19.3,,,,,110,8210000000.0,3.6689467484012854,-5.88886169295613,0.21066408719253893,-0.34060898275481644,-0.7118690725597497,0.2009835933533184,-1.0420370296333217,0.3907937736011249,-5.968407381948937
164,8.26,18.5,-23.2,0.591,-0.22399999999999998,5.35,-2.27,13.7,-16.7,-4.89,,,,,110,8260000000.0,9.450615903931638,-12.225512909934189,0.33888927388216794,-0.2668617797185557,2.048345403110706,-1.3197247176105342,4.9217751767489,-5.909827360664302,-5.580251610448103
165,8.31,3.28,-9.56,-1.04,-2.74,0.517,0.5429999999999999,-1.58,-2.95,-6.42,,,,,110,8310000000.0,7.045091548879125,-11.249816111626577,-0.12598483921320475,-1.830952587104902,1.351061824257729,-0.17335492280968223,2.2915167638900966,-4.818669750521017,-5.8825058222865545
166,8.36,2.64,-4.49,-2.51,-3.08,2.36,-0.242,-1.69,2.94,-7.22,,,,,110,8360000000.0,5.327831088892898,-8.775420968276137,-0.9297237475471969,-2.6208896127081505,1.8104721940067985,-0.21560090877354582,0.6808154152812345,-1.9583908524319447,-6.363915674819767
167,8.41,1.95,-14.4,1.04,-1.57,1.54,-0.907,-2.04,-6.48,-3.2,,,,,110,8410000000.0,4.011033069747028,-10.834268338459966,-0.2656576726806842,-1.9562738298306914,1.6873152314814348,-0.6411061056277142,-0.419875902668166,-3.6253084562519335,-5.22511416091629
168,8.46,0.067,-9.86,0.0503,-0.862,-2.13,-1.31,-4.46,-2.04,-3.75,,,,,110,8460000000.0,2.4735094730570344,-10.477642422445761,-0.1591367583823351,-1.264220455997617,-0.05086306231832727,-1.0527609737122767,-2.0542865270461945,-3.0408752291843024,-4.694170091098434
169,8.51,1.54,-5.56,-2.83,-1.61,0.102,-0.0329,-3.52,2.28,-5.86,,,,,110,8510000000.0,2.109594445866324,-8.677565311548287,-1.059582648451932,-1.4829023808533204,0.018741680662623564,-0.4251116958796566,-2.647233070514692,-1.0793035380701863,-5.113792221938642
170,8.56,4.78,-5.41,0.335,-1.82,0.22,-0.363,-0.21,2.66,-2.12,,,,,110,8560000000.0,3.15061306917076,-7.481490195337351,-0.5894177077771746,-1.6960936060675025,0.11038274469482583,-0.38688652725595013,-1.6612634562967268,0.2992125625015791,-4.036223902562258
171,8.61,4.84,-10.4,0.67,-0.758,-1.14,-1.55,-0.637,-2.41,-0.848,,,,,110,8610000000.0,3.8091959106079534,-8.549795187485692,-0.16482182109902227,-1.102813561034116,-0.4589671580390638,-1.102697134211679,-1.246903159620249,-0.699554489129986,-2.8886730048187683
172,8.66,-0.7659999999999999,-13.5,-0.0838,-0.659,0.5529999999999999,-0.506,-6.58,-5.73,-1.57,,,,,110,8660000000.0,2.0256227232569444,-10.361791568700118,-0.13750639583831822,-0.8221318204392906,0.0018224656440578024,-0.735474005980932,-3.4043789499092796,-2.5540575874481153,-2.414037479895471
173,8.71,2.25,-13.0,2.45,-0.312,0.893,0.0838,-3.65,-5.32,1.16,,,,,110,8710000000.0,2.113092922314276,-11.32749386011232,0.7348368873547838,-0.499508332914095,0.4076116963917213,-0.2312712232188029,-3.503743671449235,-3.5737384609732796,-1.1276190874665408
174,8.76,0.316,-15.0,4.24,1.48,1.32,0.7120000000000001,-5.38,-7.23,2.47,,,,,110,8760000000.0,1.412522540816897,-12.67179537641347,1.9165557989361957,0.752395333107793,0.8230590703462531,0.34924271561356124,-4.262773186793547,-4.921640619419763,0.16728715488002277
175,8.81,1.45,-14.8,6.09,3.05,1.12,2.21,-3.58,-6.89,3.16,,,,,110,8810000000.0,1.427132598632899,-13.450813531841021,3.3235768940151535,2.205473135466052,0.9582683051045187,1.4944017342800904,-3.9865609126627177,-5.647287741639517,1.2444669593017097
176,8.86,6.88,-13.7,-10.7,2.19,-0.8440000000000001,1.49,2.68,-5.89,-14.9,,,,,110,8860000000.0,3.55285323293392,-13.542026855338126,-1.4042849337599055,2.1956874715860026,0.13762255484267527,1.4916927970498077,-1.2896393014814294,-5.736764982740165,-4.5664790793072285
177,8.91,10.6,-15.3,5.56,2.82,-0.8420000000000001,0.209,6.67,-7.69,0.8,,,,,110,8910000000.0,6.300080460290893,-14.18552372923664,0.9436308171369499,2.590522410628581,-0.30843927654999076,0.7022899019505797,1.9303902641972557,-6.456836490483542,-2.634899595642575
178,8.96,0.807,-8.21,-3.13,1.24,0.502,1.39,-3.08,-1.13,-8.69,,,,,110,8960000000.0,4.1586833905847,-11.998214776535757,-0.42973951408145483,1.7364093460012278,0.060586540426335767,1.125524783302801,-0.09653630557708892,-4.493067133301036,-4.814337305775654
179,9.01,1.91,-4.19,-1.7,0.953,-0.9740000000000001,1.44,-1.29,2.94,-7.63,,,,,110,9010000000.0,3.282067052397151,-9.140058932281255,-0.8579909092296354,1.240956513014762,-0.410502605971705,1.3190611417055862,-0.5793456486111166,-1.7528235400096541,-5.82779071194382
180,9.06,1.49,-1.79,-2.8,1.38,-2.04,0.457,-1.9,5.12,-8.88,,,,,110,9060000000.0,2.583455930814695,-6.449608585164414,-1.5127133540290179,1.3288920071736854,-1.152478753376592,0.7885260237824742,-1.1136092978684853,0.780882920192052,-6.926385332641857
181,9.11,2.57,-2.08,-1.59,0.614,-1.66,0.0019100000000000002,-1.32,4.51,-7.72,,,,,110,9110000000.0,2.5782103070010294,-4.850136364970723,-1.5387695270598905,0.8767717139528914,-1.3835737184408137,0.30442182439923693,-1.1971035744681968,2.1556437762219636,-7.212034336035628
182,9.16,4.5,-5.11,6.51,-0.8390000000000001,-1.22,0.0392,0.0736,1.48,0.747,,,,,110,9160000000.0,3.3273919061049613,-4.945258127815668,1.1747658351965933,-0.2083365554225951,-1.3090919920610513,0.14119733512942778,-0.6830472347193464,1.9065637626261844,-4.34730550146852
183,9.21,0.718,-30.9,5.01,2.35,0.10800000000000001,-0.336,-0.0533,1.38,0.741,,,,,110,9210000000.0,2.3101586406983117,-14.445854454181271,2.467763953589105,1.4096363063966875,-0.6638326088092881,-0.15248245868461463,-0.42828635723271996,1.7124429571661879,-2.51585021398357
184,9.26,0.79,-4.08,0.8640000000000001,1.21,-1.8,0.40399999999999997,-4.07,2.1,-4.99,,,,,110,9260000000.0,1.7175470404783613,-10.65148803727416,1.927076336484677,1.2833800186463467,-1.1811756197076517,0.1899914978512044,-1.9015222157494878,1.855318087325721,-3.406381313208529
185,9.31,5.35,1.67,-9.31,-3.22,0.797,-0.28300000000000003,0.326,7.83,-15.1,,,,,110,9310000000.0,3.1336056525890275,-6.14127229821768,-1.861354202674633,-1.5646999023044998,-0.2804321400197828,-0.1010999111255303,-1.0003900075405603,4.057919409828626,-7.615315010343996
186,9.36,15.5,-24.5,-9.03,-1.31,3.18,-2.15,11.2,-17.8,-14.8,,,,,110,9360000000.0,7.954463588342427,-12.861387812475392,-4.2781674220590675,-1.4036195952955588,1.295242805308067,-1.3620469975180902,3.935212481262062,-4.000129844885572,-10.201329090547269
187,9.41,4.5,-8.01,-5.16,-2.53,0.48700000000000004,0.33899999999999997,-0.151,-0.927,-10.1,,,,,110,9410000000.0,6.6077914917083485,-11.085562957084177,-4.575465461677286,-2.1159781568300864,0.9272171137185943,-0.3151779235639489,2.282157065738602,-2.8672025901136076,-10.164857420345417
188,9.46,1.85,-6.42,-0.369,-2.91,2.95,-0.494,-2.41,1.32,-4.62,,,,,110,9460000000.0,4.753036086845653,-9.377758254751809,-3.1573117363902137,-2.6181427285630283,1.8482721144909326,-0.4252297272909531,0.38396996984449716,-1.3235659027263662,-8.169073430141607
189,9.51,1.57,-13.9,3.21,-1.23,0.14400000000000002,-1.31,-2.51,-5.86,-0.604,,,,,110,9510000000.0,3.5121760515672316,-11.033100871168266,-1.010657503926438,-1.7402373914996074,1.0722479879865614,-0.9697405989906623,-0.7867701092093602,-2.995948852951319,-5.446144590749677
190,9.56,-1.22,-8.55,-2.05,-0.976,-1.58,-1.07,-6.17,-0.636,-5.07,,,,,110,9560000000.0,1.6674064308829222,-10.12417495445431,-1.3610579468162471,-1.2569095098876084,-0.13542796731834406,-1.03144290479248,-2.9645270188075123,-2.1259399292523473,-5.310757341408947
191,9.61,1.99,-5.57,-2.0,-1.72,0.5720000000000001,-0.0219,-3.18,2.41,-4.38,,,,,110,9610000000.0,1.7931648184926423,-8.457143278314962,-1.5764687373245685,-1.5497825950184279,0.18669265207127367,-0.4101436369643202,-3.0516954886432424,-0.45373917453089585,-4.9757459618206585
192,9.66,7.67,-9.3,7.78,-1.22,-0.9670000000000001,-0.804,-3.28,2.53,-3.67,,,,,110,9660000000.0,4.084163075039284,-8.765666608768981,1.5779399640993017,-1.3412176736014556,-0.3386303451366722,-0.6525332187017809,-3.144054846841486,0.6462336723563089,-4.505763330660211
193,9.71,1.66,-11.7,-1.18,-0.462,1.39,-0.7609999999999999,-4.01,-3.79,-2.56,,,,,110,9710000000.0,3.13913854885444,-9.839763811198827,0.6481373105063593,-0.7851726272711866,0.44848506105184033,-0.7192865162224467,-3.494368422632173,-0.9892097432484144,-3.8054164968787356
194,9.76,1.17,-13.4,1.14,-0.7240000000000001,0.847,-0.247,-4.63,-5.58,-0.156,,,,,110,9760000000.0,2.3714986742034205,-11.142969363996539,0.8139622505865316,-0.7464851092731466,0.6299450555339641,-0.42862896305341286,-3.9537821535552298,-2.68163133149743,-2.4918666056617047
195,9.81,2.51,-13.2,4.15,0.201,1.19,0.42,-3.2,-5.33,2.72,,,,,110,9810000000.0,2.42549138629442,-11.895934516761887,1.938662911200685,-0.14726556727059692,0.884960782307839,0.09363962283753186,-3.648843631621314,-3.6579678668011884,-0.6159374366071988
196,9.86,-1.79,-14.4,2.66,2.31,1.47,1.73,-7.03,-6.49,0.324,,,,,110,9860000000.0,0.7821437501201711,-12.81253434941104,2.1818521178522645,1.4067868303018136,1.1513528476188803,1.1006988684714778,-5.016672452905694,-4.702012953827627,-0.27762178504926016
197,9.91,7.89,-16.1,-4.53,3.31,-0.5329999999999999,2.22,3.63,-8.12,-8.23,,,,,110,9910000000.0,3.5530374805103486,-14.015893963622652,-0.0809593663382926,2.6104389747039516,0.3843987764292742,1.7895462547559324,-1.518707282606663,-5.962073780880863,-3.1399546966302636
198,9.96,14.5,-17.0,-0.00479,1.58,-1.48,1.12,10.6,-9.18,-4.47,,,,,110,9960000000.0,7.820550682167663,-15.108210250295539,-0.05527988053674954,1.9587568158372994,-0.4645375108991967,1.3774898746452249,3.3838511279037893,-7.148381171338194,-3.618683444361964
199,10.0,2.7,-10.5,-2.77,2.91,-0.7170000000000001,0.8009999999999999,-1.15,-3.22,-8.06,,,,,110,10000000000.0,5.824378922785981,-13.421399176074637,-0.9705115512648184,2.560353134331056,-0.5794939114186547,1.0227028359392838,1.5497058973764422,-5.7001605401438535,-5.2172654203685624
200,10.1,1.94,-4.05,-1.09,0.943,0.526,1.27,-1.42,2.94,-7.09,,,,,110,10100000000.0,4.310110644299875,-9.991047970115696,-1.0107954991760808,1.5374878896318867,-0.07611774612698274,1.1748960061303555,0.3483272671543236,-2.514914918776733,-5.8913267416944635
201,10.1,1.41,-1.61,-2.74,1.28,-1.55,0.7709999999999999,-1.71,5.23,-9.04,,,,,110,10100000000.0,3.1795449205910464,-6.923209538800398,-1.5937737343247713,1.3746443893859874,-0.7472360128304482,0.9263277932036482,-0.4843580423610836,0.34029316626437733,-7.02464199168097
202,10.2,1.94,-1.95,-3.34,0.899,-1.72,0.0667,-1.6,4.56,-9.76,,,,,110,10200000000.0,2.696326488166277,-5.102792416231368,-2.1824905982912446,1.073831832607878,-1.1901748701150718,0.39729022765609867,-0.9356850428167849,1.8959126923005276,-8.009191034290046
203,10.2,3.94,-2.11,-0.929,-0.43,-1.73,-0.106,-0.14,4.27,-7.16,,,,,110,10200000000.0,3.1811544361054302,-4.007296487595481,-1.7598929698941892,0.12276103192840682,-1.435979125550516,0.0875521791775225,-0.6137949119557112,2.7711338245496284,-7.703538063990879
204,10.3,9.72,-22.8,31.8,1.09,1.21,-0.597,5.23,-16.2,26.0,,,,,110,10300000000.0,5.730227830427084,-10.886266280761117,9.554377038868475,0.734473556717211,-0.23115763939840672,-0.3337392463706448,1.7502810920675302,-4.222685641676434,4.427518732210415
205,10.3,-0.22,-11.8,3.83,0.305,-1.7,0.968,-4.78,-5.72,-2.34,,,,,110,10300000000.0,3.4106185535230393,-11.220733762607464,7.624479650833731,0.46286090571749655,-0.8999810819838662,0.4673853354729127,-0.8915093039838067,-4.774679239668584,1.991657164421572
206,10.4,4.74,0.426,-11.7,-1.47,0.6559999999999999,-0.209,0.025,6.59,-17.7,,,,,110,10400000000.0,3.9288583744799626,-6.957508254092499,1.1094891662982445,-0.7595414585694475,-0.19147986354198232,0.051119998308343184,-0.5207403636864352,-0.5850238664260186,-5.096044437547807
207,10.4,16.0,-18.3,2.84,-0.41100000000000003,5.54,-1.72,11.7,-11.6,-2.82,,,,,110,10400000000.0,8.634616355679615,-11.109367297002747,1.6929077819999225,-0.5391128291115974,2.4182950492104043,-1.03887386999755,4.423094752921509,-4.645759233394482,-4.276818126648848
208,10.5,2.48,-9.1,-2.23,-2.53,-0.413,0.14400000000000002,-1.78,-2.23,-7.79,,,,,110,10500000000.0,6.235329209054132,-10.373849128083084,0.37035174376485536,-1.7982128018656003,1.1290917399821945,-0.3109021690829379,1.9136659379981964,-3.7551755025734916,-5.541332501885276
209,10.5,2.01,-6.33,-2.0,-2.5,2.21,-0.442,-2.01,1.21,-6.82,,,,,110,10500000000.0,4.588146422999834,-8.893619440215632,-0.4287807289890121,-2.242045213701363,1.621273069320102,-0.3915832248527926,0.3263678587951244,-1.9247345666465072,-6.001568756490633
210,10.6,1.23,-14.7,3.12,-1.23,0.6809999999999999,-0.976,-2.51,-6.77,-1.34,,,,,110,10600000000.0,3.2790221717438945,-11.01901437136562,0.7676433187181203,-1.601995835752377,1.193128653368604,-0.7512486928719664,-0.8210695941193653,-3.7109699347604863,-4.323710638684128
211,10.6,-0.20600000000000002,-8.67,-0.47600000000000003,-1.3,-1.39,-0.9059999999999999,-4.55,-0.7509999999999999,-4.3,,,,,110,10600000000.0,1.920437258301045,-10.159170069301496,0.34836555882886144,-1.4110040911519808,0.016925556784294082,-0.8464867304237362,-2.329588535692526,-2.6197597415195153,-4.315176437016938
212,10.7,2.47,-5.64,-2.08,-1.44,-0.401,-0.23800000000000002,-2.25,2.39,-5.14,,,,,110,10700000000.0,2.134676265081087,-8.504951635168615,-0.47032547211746256,-1.4293420568314517,-0.17337287375658428,-0.47200798869544003,-2.2973914189821163,-0.7728825411362645,-4.612058617478944
213,10.7,5.25,-6.12,0.316,-1.61,-1.42,-0.6679999999999999,0.307,2.03,-1.99,,,,,110,10700000000.0,3.3491396509320355,-7.631952617281818,-0.20522632293096676,-1.5435958608278917,-0.7410126782643245,-0.5926266190542206,-1.243798786479119,0.26041645251363144,-3.668289988929539
214,10.8,4.05,-11.7,2.59,-0.47200000000000003,-0.462,-1.05,-1.45,-3.69,1.32,,,,,110,10800000000.0,3.622359879904618,-9.121039850975338,0.737146917933503,-0.8658847606268809,-0.6139669103472187,-0.8741062032750799,-1.3272164045452037,-1.1959276453085042,-1.8728336871895557
215,10.8,1.23,-13.2,-0.563,-0.629,0.98,-0.152,-4.46,-5.27,-1.85,,,,,110,10800000000.0,2.689733384560787,-10.614121645258834,0.29881971907945093,-0.7160713537738499,0.11183079476333069,-0.4297030418855522,-2.594567278661234,-2.6978581849004186,-1.86461507030695
216,10.9,3.44,-13.0,3.45,-0.11800000000000001,1.6,-0.29100000000000004,-2.3,-5.15,2.26,,,,,110,10900000000.0,2.9822138716948494,-11.487459842070328,1.3611981338927603,-0.33783212144884167,0.789454521670811,-0.3443415454780105,-2.4754016412628777,-3.601854608956299,-0.3800249519143226
217,10.9,-0.826,-15.1,3.02,1.94,1.32,1.07,-6.38,-7.28,1.09,,,,,110,10900000000.0,1.49763741156327,-12.809811266365703,1.920441050188085,1.1027409643860655,1.0310333910879164,0.5260814896654129,-4.054986083347378,-4.957824447461228,0.14908734942819724
218,11.0,4.36,-15.0,0.00718,3.59,0.721,2.31,-0.382,-7.11,-3.25,,,,,110,11000000000.0,2.6134876469240558,-13.611518308767089,1.2754106077945733,2.675762161519631,0.8898626376770227,1.6239518462189102,-2.569099195301755,-5.7512365725211305,-1.0743605156853488
219,11.0,8.34,-14.5,-6.57,1.96,-1.19,1.25,4.27,-6.76,-11.0,,,,,110,11000000000.0,4.845884777531516,-13.936742349036969,-1.3695649881051852,2.22309156513133,-0.05718309021035195,1.3938120402061922,0.19762182117458194,-6.123123180785958,-4.646937854427258
220,11.1,4.77,-12.4,-0.158,2.97,-0.701,0.759,0.7440000000000001,-4.94,-5.11,,,,,110,11100000000.0,4.816302199648348,-13.37422577204682,-0.9611020156445673,2.6954600917269054,-0.3503389951512252,1.003132008815486,0.4186562001419041,-5.686957937512032,-4.813609816199316
221,11.1,1.35,-5.71,-2.32,1.3,0.8170000000000001,1.64,-2.3,1.34,-8.09,,,,,110,11100000000.0,3.4650150028710183,-10.56877633699946,-1.4192363224903293,1.8129269806332011,0.1811977185091887,1.3950773197872532,-0.6811616150059359,-3.0964288777700175,-5.992894827220752
222,11.2,1.49,-2.56,-1.58,1.13,-1.36,1.47,-1.52,4.46,-7.73,,,,,110,11200000000.0,2.6950842990324446,-7.637205948720689,-1.473435666435925,1.381022363615011,-0.5205720340193252,1.4411867262491036,-1.0205091923134868,-0.31070726457005193,-6.618138435275544
223,11.2,2.43,-2.48,-2.6,0.614,-1.87,0.41600000000000004,-0.75,4.38,-8.85,,,,,110,11200000000.0,2.59174508883859,-5.7494378995938735,-1.853241772324769,0.8959331848250327,-1.135021246423996,0.8102598443094431,-0.9110761444458413,1.418549381963453,-7.421461931436588
224,11.3,3.9,-2.87,-1.96,-0.359,-1.53,-0.0354,0.233,3.94,-8.0,,,,,110,11300000000.0,3.101749165454026,-4.695434790839227,-1.889233897619181,0.1022737643763787,-1.3148710581461476,0.2898185244767665,-0.4482462572251881,2.3480968865903398,-7.629697581806059
225,11.3,6.36,-7.78,10.2,-0.93,-0.7070000000000001,-0.136,2.32,-0.7879999999999999,4.68,,,,,110,11300000000.0,4.371930642348187,-5.824523705031513,2.1864899907423663,-0.5505688051524329,-1.0380827519378162,0.027758595340074688,0.6716329427387195,1.1919564741364053,-3.1990162051804374
226,11.4,-6.59,-25.4,2.9,0.728,-1.47,0.17600000000000002,-10.8,-18.6,-2.8,,,,,110,11400000000.0,0.09858227747003045,-12.990023489230065,2.4270404051455308,0.2580385211661467,-1.23475218241362,0.11899025587862994,-3.9691549250563867,-6.104463910901053,-3.05539660011369
227,11.4,1.6,-3.27,-3.06,-0.105,-0.133,0.7190000000000001,-2.54,3.75,-8.52,,,,,110,11400000000.0,0.6838880225510922,-9.43206011409057,0.5771579423963253,0.028441484611761353,-0.7330797889121934,0.48825202940362955,-3.390997923584615,-2.4715582872841617,-5.022294545368847
228,11.5,12.5,-6.23,13.6,-2.69,3.49,-1.32,8.44,1.13,8.46,,,,,110,11500000000.0,5.290226426126367,-8.259962892994972,4.967635561591871,-1.6907868928127865,1.189859495234002,-0.6245938825717722,1.395168879476611,-1.1438228105869572,-0.1695553158785641
229,11.5,2.34,-12.1,-7.41,-1.76,-2.42,-1.41,-1.47,-5.0,-13.0,,,,,110,11500000000.0,4.140123777538593,-9.665588376460537,0.7946808862943531,-1.7345594440113472,-0.4538557816811417,-1.1079534532010273,0.23608011215591373,-2.5654250330665445,-4.787671458109057
230,11.6,3.78,-6.24,-4.2,-3.18,2.53,-0.139,-0.39899999999999997,1.4,-8.7,,,,,110,11600000000.0,3.999734779747192,-8.411669722283275,-0.8892090871485165,-2.6487017929514587,0.9048146009891245,-0.5116340010068672,-0.020838148250657607,-1.103547964329459,-6.195852324555548
231,11.6,3.73,-12.9,-0.0287,-2.07,3.06,-0.982,0.0525,-4.77,-3.99,,,,,110,11600000000.0,3.894582629086994,-10.054599224742638,-0.5990999264686157,-2.2827124406077197,1.8861577808804832,-0.8011096094881256,0.008830406965622265,-2.455206894764267,-5.401890584790455
232,11.7,-2.5,-12.3,0.79,-1.27,-2.6,-1.21,-6.55,-4.05,-2.6,,,,,110,11700000000.0,1.40174813366118,-10.876516413798647,-0.13078340795670107,-1.6422410631427264,-0.15657152097069726,-1.0527515384784085,-2.6445094541143974,-3.043136749277108,-4.393394239000057
233,11.7,-0.0862,-6.28,-3.7,-1.23,-0.2,-0.68,-4.77,1.93,-6.31,,,,,110,11700000000.0,0.8216933205025891,-9.193985883593477,-1.3340971889607798,-1.381526793441979,-0.17634626785983798,-0.8233504378349402,-3.5043652859018213,-1.2097608866971636,-5.08324622440076
234,11.8,3.53,-5.04,0.0838,-1.95,-0.297,-0.33299999999999996,-1.34,3.25,-1.85,,,,,110,11800000000.0,1.8774870501531933,-7.673441230818545,-0.85607206376616,-1.7410472523003855,-0.23128479494491316,-0.521575878369682,-2.6287828916149807,0.4343559878236487,-3.919490264399993
235,11.8,6.56,-10.8,-0.7879999999999999,-0.7759999999999999,0.6759999999999999,-1.26,1.36,-2.56,-1.93,,,,,110,11800000000.0,3.7028962036637614,-8.817901659344608,-0.8331224712875492,-1.1307208734435708,0.1818387204845187,-0.976021507213686,-1.0151420872339418,-0.6695307986879331,-3.2034046124010205
236,11.9,-0.405,-12.6,1.11,-0.466,-0.166,-0.424,-5.89,-4.56,-0.0402,,,,,110,11900000000.0,2.101492960156757,-10.202318962758277,-0.17802464419925457,-0.7103303713523197,0.02345366504152513,-0.6362929431704492,-2.9872397455145663,-2.103774950360519,-2.0648590165898733
237,11.9,3.43,-12.4,2.47,-0.741,1.96,0.214,-2.11,-4.42,1.39,,,,,110,11900000000.0,2.6193920217292517,-11.006768383771458,0.7147215527573345,-0.7297268120505009,0.905241666722907,-0.11300029110709053,-2.6323570529108,-2.957664858695156,-0.8213370249221237
238,12.0,-0.0215,-14.5,3.79,1.88,1.27,0.8170000000000001,-5.31,-6.38,2.26,,,,,110,12000000000.0,1.589878898802946,-12.285447405566305,1.7515106478491287,0.9207469301146403,1.0713309013754635,0.4593463419598075,-3.715583171895657,-4.219328720769648,0.28774162049802543
239,12.0,1.15,-15.6,5.17,3.13,1.03,2.02,-3.49,-7.44,2.41,,,,,110,12000000000.0,1.418398535535473,-13.49872205280862,2.904008760090088,2.317948491730455,1.0525112548821685,1.419813657087286,-3.6243247093146533,-5.406648002244803,1.0516150729020015
240,12.1,6.78,-14.9,-10.3,2.48,-0.956,1.78,3.02,-6.83,-14.4,,,,,110,12100000000.0,3.5085405165874155,-14.011652320207986,-1.5475467319979685,2.420435001050553,0.13795474111900508,1.6414817925441818,-0.9363986700667479,-5.931374993648406,-4.5099498600998045
241,12.1,8.6,-15.6,4.93,2.37,-0.203,0.569,5.19,-7.76,0.14800000000000002,,,,,110,12100000000.0,5.493371664991364,-14.593058756531454,0.6362716880979153,2.3885382394548706,-0.01729575990682336,0.9814482805637874,1.5420031892037391,-6.605508357028887,-2.833394294254388
242,12.2,1.86,-8.2,-2.73,1.46,0.386,1.69,-1.21,-0.789,-8.37,,,,,110,12200000000.0,4.076954877391559,-12.252913223956362,-0.49862191593764216,1.8013013242422895,0.16634113806314949,1.4175096881447915,0.4286949931496178,-4.461218601347504,-4.826208127590253
243,12.2,2.01,-3.79,-2.16,1.37,-1.44,1.22,-0.518,3.47,-8.25,,,,,110,12200000000.0,3.271182750969055,-9.15510842874952,-1.0587334051199129,1.528532733765101,-0.565091071502889,1.295957046566675,0.045714591094047075,-1.5373285730898503,-6.0585479959956565
244,12.3,1.75,-2.58,-2.88,1.35,-2.04,0.527,-1.03,4.35,-9.23,,,,,110,12300000000.0,2.678171907976192,-6.7483246150552425,-1.672749182648489,1.4156230035114685,-1.2366768290896688,0.8227206525929773,-0.38945998542013466,0.6330694240186503,-7.200061945089058
245,12.3,3.11,-1.78,-2.39,0.444,-1.64,0.0593,-0.177,4.85,-8.82,,,,,110,12300000000.0,2.8465137318014966,-4.929695565149792,-1.9145607638177853,0.8011379008331111,-1.420326198520687,0.35289149604079745,-0.3035104343598221,2.1876654523705374,-7.783132980866861
246,12.4,4.34,-2.36,3.06,-1.26,-1.43,-0.348,0.528,4.33,-3.01,,,,,110,12400000000.0,3.428727565625694,-3.9890720088902785,-0.237453976276927,-0.5023908666508335,-1.4247310482789737,-0.07845556712049301,0.03287266624550961,2.977449556199224,-6.065119065162491
247,12.4,1.19,-31.7,11.3,2.96,0.478,-0.298,-3.0,-25.1,5.46,,,,,110,12400000000.0,2.555992395479325,-14.13251142688966,3.652244800295528,1.6873346086496155,-0.5583405403801316,-0.21356899286136027,-1.194059760054782,-7.373466201130142,-1.9168342720413865
248,12.5,0.785,-7.61,2.23,0.0125,-1.31,0.975,-3.57,-1.19,-3.76,,,,,110,12500000000.0,1.865596927113815,-11.744980545309188,3.172753943350373,0.6281162506112068,-0.9006015115563206,0.5179076550081037,-2.1552336576199,-5.09389532535633,-2.580252693351759
249,12.5,8.09,-1.87,-7.15,-2.4,1.22,-0.682,3.78,4.72,-13.0,,,,,110,12500000000.0,4.292089471493819,-8.130295965231298,-0.30742488761425024,-1.286960263648049,0.06499426267103026,-0.22054707778456706,0.2458333829277346,-1.4759456248737766,-6.330676347361685
250,12.6,7.64,-13.9,-11.1,-0.71,0.6809999999999999,-1.97,4.0,-7.23,-17.3,,,,,110,12600000000.0,5.597223364403067,-10.242265577888041,-3.945997755322407,-0.9220723381449101,0.34548662300986,-1.2972064573339421,1.764561421689112,-3.5972113534094077,-10.278911062012615
251,12.6,3.25,-7.98,-3.98,-3.88,0.8109999999999999,0.192,-0.889,-0.69,-9.07,,,,,110,12600000000.0,4.682192671916914,-9.414175193515455,-3.9574611649965643,-2.7927593818518996,0.5574537139623531,-0.380709616756299,0.6910773325185904,-2.5254509229082505,-9.843782488000844
252,12.7,3.43,-12.6,-0.0192,-2.49,3.15,-0.721,-0.32899999999999996,-4.48,-4.12,,,,,110,12700000000.0,4.194043702371903,-10.580329712447941,-2.6297289452177637,-2.6012847827458847,1.7379450900916673,-0.5901332823991953,0.27841050154677077,-3.246006852413373,-7.783597242537985
253,12.7,0.278,-11.9,2.2,-0.885,-1.79,-1.58,-3.55,-3.77,-1.71,,,,,110,12700000000.0,2.6674313493474546,-11.063387926155308,-1.0014502380676715,-1.5158520179692923,0.13152881181407072,-1.19932333332962,-1.2703524845519545,-3.439179976849519,-5.5975017500165
254,12.8,-0.47200000000000003,-6.27,-2.57,-1.51,-0.336,-0.6409999999999999,-5.13,1.81,-5.6,,,,,110,12800000000.0,1.4435699615520805,-9.308793532696296,-1.5302658452195912,-1.512151010756511,-0.0813559909611086,-0.8557164460279623,-2.831752303247969,-1.5040391694127793,-5.5984009213579675
255,12.8,2.43,-4.88,-2.25,-1.7,0.614,-0.217,-2.27,3.37,-4.69,,,,,110,12800000000.0,1.8281153081704156,-7.687657044214524,-1.7729146151112467,-1.6309526807528618,0.23526776667479601,-0.462633534027894,-2.6044984038421264,0.29280376924247875,-5.271436361861344
256,12.9,6.88,-10.6,9.11,-1.34,-2.48,-1.3,1.89,-2.34,7.51,,,,,110,12900000000.0,3.7975186988944074,-8.753704973104156,1.8961147665658074,-1.4469450277814153,-1.0011036355681164,-0.9779708615875554,-0.7862731036339552,-0.6777946716088205,-0.670959909657352
257,12.9,0.613,-11.6,-1.39,-0.46,1.51,-0.563,-4.84,-3.58,-2.74,,,,,110,12900000000.0,2.5560806590690572,-9.795576405734044,0.7882450106805139,-0.8227697941915542,0.1423035552766272,-0.7225868885570733,-2.4261867139502145,-1.7477095727706504,-1.4156782510255406
258,13.0,2.64,-13.9,1.77,-0.73,0.8029999999999999,-0.20800000000000002,-2.9,-5.85,0.6,,,,,110,13000000000.0,2.588795427420509,-11.297978890123726,1.119230603462188,-0.7640992553935123,0.44314539529416724,-0.4058965795801432,-2.617865384850509,-3.2600428413358067,-0.6901666566979856
259,13.0,1.36,-13.0,3.76,0.614,1.54,0.382,-4.08,-4.96,2.35,,,,,110,13000000000.0,2.1097675109304497,-11.920994746770658,2.0095307775853026,0.1074542979389278,0.9425877065206438,0.07899570709117759,-3.2093640973751825,-3.886741981546936,0.4040933333182044
260,13.1,-2.07,-15.1,2.47,2.44,0.963,1.89,-6.99,-6.94,0.0443,,,,,110,13100000000.0,0.4803463161369228,-13.084653004177019,2.164771843459438,1.582629981980031,0.9518822503055997,1.193535393364248,-4.7388000515345,-5.012343387545063,0.2745913997357592
261,13.1,8.63,-16.0,-6.84,3.14,-0.68,2.26,4.71,-7.87,-10.6,,,,,110,13100000000.0,3.657369632995813,-14.151800406454392,-0.8710669221224951,2.567560085600996,0.20882016061456365,1.8498657684578372,-0.9163384794795486,-6.065835130562794,-3.6395463469553575
262,13.2,17.5,-18.4,2.0,1.7,-1.48,1.13,14.1,-10.4,-2.52,,,,,110,13200000000.0,9.053716586014048,-15.706831337598762,0.09687499407320999,2.0188876888049934,-0.5601680712852308,1.4068414296810943,5.158441143767725,-7.663650159810587,-3.2365832952279483
263,13.2,2.48,-9.84,-2.75,2.59,-0.268,1.23,-0.903,-2.4,-8.16,,,,,110,13200000000.0,6.491049345359231,-13.55930870387644,-0.8629109362720564,2.3800771164351495,-0.42713211747329033,1.2980085723392811,2.706317528866496,-5.7231748490518015,-5.0086894080195785
264,13.3,1.84,-4.49,-1.64,1.14,0.24600000000000002,1.49,-0.87,2.68,-7.76,,,,,110,13300000000.0,4.677905808501498,-10.239535969477854,-1.1248961438467269,1.595813132620758,-0.12062779670446516,1.416165154689355,1.259537386199041,-2.625295382051189,-5.998980331438766
265,13.3,1.2,-2.07,-2.93,1.46,-1.82,0.7120000000000001,-1.34,4.86,-9.38,,,,,110,13300000000.0,3.3220951238494187,-7.249120361534566,-1.7334628535292271,1.5099206378026429,-0.8944208162361917,0.9828033973227741,0.20790841774349222,0.13420248803092782,-7.215925061063469
266,13.4,2.17,-1.85,-3.05,0.97,-1.58,0.205,-0.795,4.69,-9.72,,,,,110,13400000000.0,2.8729677228691326,-5.272800818369782,-2.1773157753554457,1.1684577743951365,-1.2065928068910001,0.5041227190553635,-0.19781282881940082,1.8137238459467309,-8.117227425457672
267,13.4,4.36,-0.32799999999999996,-2.9,-0.9390000000000001,-1.55,-0.0518,0.92,6.13,-9.43,,,,,110,13400000000.0,3.452665555251667,-3.4627825440461555,-2.4209591541032527,-0.16436515824644515,-1.362959989589589,0.1619932488035415,0.25439238307544076,3.404944278704183,-8.589739312314673
268,13.5,6.54,-21.4,45.7,-0.509,0.188,-0.958,2.52,-14.5,40.0,,,,,110,13500000000.0,4.656217710897157,-10.028606314783092,13.802380605892685,-0.38232313027299336,-0.6567450890713371,-0.5272800696973783,1.170931827020158,-3.1958179087443144,8.899370768388447
269,13.5,-1.25,-12.6,2.44,0.182,-1.83,1.16,-5.45,-6.04,-3.57,,,,,110,13500000000.0,2.353765134829425,-10.969851560178473,9.971705564470797,-0.02542734336006952,-1.1909755911552424,0.5111164622994708,-1.5075306772867365,-4.244342219021494,4.411217509606649
270,13.6,6.06,0.687,-12.6,-1.19,0.21,0.0703,1.87,7.35,-18.5,,,,,110,13600000000.0,3.7985865584170107,-6.702922493392766,2.3619559843502467,-0.7619399467885934,-0.5530546622767405,0.2398264108558144,-0.14116869290196332,0.02997966028098631,-3.8353137700310285
271,13.6,16.0,-20.7,-3.71,1.06,5.08,-2.43,12.3,-13.8,-9.57,,,,,110,13600000000.0,8.555129101440343,-11.826479221364082,0.31487700399436713,0.39031244190765313,2.01190325234865,-1.4032550550016663,4.891839680413163,-5.068523112628327,-5.899423494356057
272,13.7,2.85,-6.6,-5.93,-3.14,-0.867,0.244,-1.4,0.35,-11.4,,,,,110,13700000000.0,6.3310679409867845,-9.913354014005366,-1.7904999208409156,-1.8423688272161474,0.7010220016426738,-0.3894909480031681,2.3465095774893756,-3.0709529511367286,-7.879269089423677
273,13.7,2.93,-6.91,-1.22,-3.4,3.17,-0.18100000000000002,-1.06,1.26,-10.3,,,,,110,13700000000.0,5.005211382405641,-8.813992050715585,-1.5981634919613754,-2.827464087335135,1.825247722687849,-0.2611801290277249,0.9684243589982902,-1.4743218771973594,-8.75057305824088
274,13.8,1.71,-17.0,4.37,-1.04,0.961,-1.2,-1.84,-8.76,0.5,,,,,110,13800000000.0,3.720621443521809,-11.810437115614203,0.4139231826102987,-1.6970152618341972,1.4317207405068575,-0.8389546102743953,-0.1677087177937211,-4.160229715006695,-5.420975229257296
275,13.8,-0.376,-8.08,-1.74,-1.06,-1.68,-1.08,-4.74,0.0947,-4.96,,,,,110,13800000000.0,2.1236135058081196,-10.444930243050688,-0.31224329086357383,-1.2941466341591017,0.014828273888387145,-0.9873003121853449,-2.0174046243321055,-2.5916250467273327,-5.2550544818751765
276,13.9,2.32,-5.09,-2.52,-1.72,0.265,0.0654,-2.34,3.17,-5.01,,,,,110,13900000000.0,2.200171881723969,-8.484786306976572,-1.0565590100853337,-1.5634697846100358,0.12874158724597573,-0.33944084209473435,-2.147908824550635,-0.4675683248348399,-5.166851069652736
277,13.9,7.26,-9.19,9.2,-1.58,-1.37,-0.82,2.53,-0.775,7.46,,,,,110,13900000000.0,4.172671945661592,-8.742925908830404,2.4013029856346257,-1.5739240425837018,-0.5536961647298932,-0.6351895884911418,-0.25548582476814796,-0.5809047970233234,-0.6220152231885621
278,14.0,1.12,-10.6,-2.14,-0.324,1.01,-1.03,-4.19,-2.38,-3.29,,,,,110,14000000000.0,2.982632445215946,-9.422698231696977,0.8702632242096362,-0.7834325610022473,0.158318030785345,-0.8781662868302837,-1.8471725273660897,-1.2441517838877336,-1.5823142379295818
279,14.0,1.46,-13.9,-0.20600000000000002,-0.9129999999999999,0.327,-0.28600000000000003,-4.01,-5.87,-1.38,,,,,110,14000000000.0,2.389056474998682,-11.061590806411997,0.5074154341507839,-0.8653750979936561,0.23512576009223757,-0.5137315803736757,-2.72213291361113,-2.949497679362504,-1.5094944181175038
280,14.1,1.84,-13.4,4.54,-0.0559,1.36,0.25,-3.62,-5.35,3.43,,,,,110,14100000000.0,2.1750148530513074,-11.91755302733798,1.866947517812443,-0.3534374536440398,0.7473265700189293,-0.04371106963098492,-3.0853601979767245,-3.8344568321421386,0.26839869288968976
281,14.1,-2.27,-14.3,1.92,2.16,1.15,1.45,-7.42,-6.13,0.133,,,,,110,14100000000.0,0.4421908434878501,-12.789635254642237,1.8848334400569997,1.2361399112738862,0.9306800817452389,0.8755580562034903,-4.838915591921257,-4.680722258137969,0.21966406999786783
282,14.2,6.6,-15.4,-1.02,3.41,0.193,2.33,2.36,-7.13,-4.07,,,,,110,14200000000.0,2.842722627070245,-13.74514537193247,0.905507599175,2.6109578145244985,0.594784463164957,1.770659852406065,-1.9266328101483081,-5.5836628319139106,-1.3243328971276707
283,14.2,12.1,-16.0,-3.26,1.91,-1.21,1.37,8.5,-7.81,-7.36,,,,,110,14200000000.0,6.451536940444738,-14.570523024164945,-0.4988377217837644,2.167649909995784,-0.2270070213969878,1.5240832395486816,2.291405762415333,-6.404414998978389,-3.4967760960749805
284,14.3,4.97,-11.5,-2.71,3.16,-0.39399999999999996,0.428,1.32,-3.77,-7.58,,,,,110,14300000000.0,5.87398135493922,-13.446574254579287,-1.2443016024856792,2.7952435353814957,-0.30304568562733986,0.8495247744393729,1.8984287746532351,-5.433222530209547,-4.966468093115414
285,14.3,2.38,-5.2,-1.49,0.9179999999999999,1.74,1.35,-0.72,2.06,-7.3,,,,,110,14300000000.0,4.511903879692266,-10.42795914302901,-1.3271355431001406,1.608015361733922,0.6272357710431482,1.1575304120000685,0.8391573979028109,-2.6708023410178003,-5.806386156264547
286,14.4,0.74,-3.01,-1.66,1.26,-0.7709999999999999,1.23,-1.65,4.16,-7.91,,,,,110,14400000000.0,3.0414823328373273,-7.712654292113466,-1.4393563434771508,1.3879194380727484,-0.009437622343051233,1.2021301150964157,-0.1678179131248514,-0.15258725509005222,-6.563548716353231
287,14.4,1.4,-0.6629999999999999,-2.66,1.3,-1.89,0.41600000000000004,-1.1,6.17,-9.23,,,,,110,14400000000.0,2.4015744483493333,-5.13216548965139,-1.8508800992844598,1.3323163756139509,-0.8657338368034607,0.7183249619916783,-0.5449272034636368,2.1782714582474663,-7.523295623388648
288,14.5,3.59,-0.10099999999999999,-1.69,-0.44299999999999995,-2.11,-0.467,0.484,6.49,-8.26,,,,,110,14500000000.0,2.8648647314340825,-3.2905338805672013,-1.7966415390498716,0.20955017828026268,-1.4322985709813243,-0.011155213942348197,-0.12868020402166858,3.767815260626044,-7.788460823383164
289,14.5,4.55,-17.1,40.1,0.535,-0.261,-1.03,0.426,-10.3,34.3,,,,,110,14500000000.0,3.5217901394039823,-8.345416309447488,12.328251790336662,0.4153749515581808,-0.8989588926216743,-0.6381790866865482,0.09571270734095505,-1.4183669941710724,7.360616359210831
290,14.6,1.01,-12.2,4.53,0.28300000000000003,-1.53,0.946,-3.45,-6.01,-1.66,,,,,110,14600000000.0,2.5426054933148623,-9.756366283699332,9.699175289308062,0.3316568421953045,-1.1862974555157133,0.3367663956710244,-1.338686435723547,-3.1110993792899,4.113787828103978
291,14.6,7.65,2.26,-10.6,-1.11,-0.022,0.265,3.27,8.54,-16.7,,,,,110,14600000000.0,4.533648565904898,-5.35783874215496,2.8555789786235346,-0.5800925333434699,-0.6561456651815231,0.2925994585716705,0.5257330205134998,1.184146379430115,-3.377807002761573
292,14.7,8.67,-21.2,-13.3,0.16899999999999998,3.52,-2.5,4.44,-14.8,-19.4,,,,,110,14700000000.0,6.146144694018377,-11.156778652621774,-2.591059042227516,-0.1063427320646726,1.2454225983797507,-1.4260397303111627,2.1092288282947544,-4.708502524508019,-9.144742457802995
293,14.7,1.4,-8.8,-2.62,-3.13,1.09,0.8220000000000001,-2.86,-1.98,-8.23,,,,,110,14700000000.0,4.295929604272282,-10.294092318216528,-2.6008160615205274,-2.0185992567669815,1.1746524092885464,-0.042536910845933695,0.09895390897931167,-3.7026241544953433,-8.81549517695096
294,14.8,5.46,-7.49,1.56,-2.56,2.08,-0.47,1.74,0.239,-3.2,,,,,110,14800000000.0,4.749725434428353,-9.26766902052032,-1.1980524459783977,-2.3609981675497234,1.5868938028603548,-0.30560894307646014,0.7628303375008161,-2.2495214124619345,-6.794286299040465
295,14.8,1.71,-13.1,2.11,-1.05,0.115,-1.19,-2.08,-5.14,-2.18,,,,,110,14800000000.0,3.564732955012377,-10.670473716620924,-0.08278672464581183,-1.5318814476576563,0.9166809376808972,-0.8498865058333602,-0.38722144962557703,-3.315113161085616,-5.133446767847053
296,14.9,1.92,-7.93,-0.132,-1.58,-1.09,-0.603,-2.33,0.0715,-3.87,,,,,110,14900000000.0,2.9235578555853277,-9.66733769367767,-0.09937832374412131,-1.5623131686182865,0.002957812814493588,-0.6979460446855857,-1.1731620970838645,-2.0666184564229773,-4.678688995564556
297,14.9,2.72,-6.1,-2.89,-1.75,0.47,-0.107,-1.77,2.12,-5.8,,,,,110,14900000000.0,2.844203814464759,-8.361532497905175,-1.0401992337062778,-1.6810122546993707,0.2156210372058733,-0.33426229961327647,-1.4146096728693345,-0.5231971748554094,-5.082287269698291
298,15.0,4.87,-7.01,1.64,-1.71,-0.498,-0.6679999999999999,0.331,1.36,-0.6970000000000001,,,,,110,15000000000.0,3.63393077862208,-7.866811234176104,-0.1366058175362631,-1.6993450454306973,-0.10931952374361084,-0.5396532515556756,-0.7084326099691999,0.171054457779088,-3.503872311855285
299,15.0,3.1,-9.82,-1.33,-0.397,0.265,-1.27,-2.04,-1.56,-2.61,,,,,110,15000000000.0,3.4257856379526026,-8.581765575777688,-0.5389427621715901,-0.875700873049463,0.061123310366695216,-0.9891278465307549,-1.2471110648914574,-0.46710884805224784,-3.182137037781726
300,15.1,0.177,-15.1,0.395,-1.03,0.503,-0.16,-5.15,-6.94,-0.988,,,,,110,15100000000.0,2.1592940819565545,-10.967731071581252,-0.22407641396746447,-0.973284501167095,0.2623276745137592,-0.4788607506125494,-2.8260039610678795,-2.8533779629895593,-2.39239201847681
301,15.1,2.89,-13.2,3.39,-0.0644,2.05,0.152,-2.42,-5.04,2.22,,,,,110,15100000000.0,2.4441491359414163,-11.784841277679336,0.9943612769131054,-0.39847720878858006,1.0763272705972031,-0.0906124477623706,-2.6617572595900723,-3.659488922268434,-0.7322342693608244
302,15.2,-2.36,-15.2,2.26,1.97,1.23,1.11,-7.4,-7.04,0.36,,,,,110,15200000000.0,0.5713219132136624,-13.03494205833045,1.4210544870802675,1.0994226780251153,1.1463006973499479,0.6482760532852019,-4.578588072700671,-4.905734043002041,-0.3391017707859611
303,15.2,3.68,-16.1,3.29,3.46,0.6729999999999999,2.4,-0.489,-7.77,0.115,,,,,110,15200000000.0,1.783194616379656,-14.156890502907757,2.051144524403213,2.592326432685992,0.9307877092550965,1.7263331221534248,-2.9241670739163395,-5.961662394610229,-0.1756550018589621
304,15.3,9.85,-14.2,-6.9,1.65,-0.9359999999999999,1.33,6.4,-6.11,-11.2,,,,,110,15300000000.0,4.927920839424412,-14.172670437289211,-0.9666144865920776,1.9963693889422172,0.08076365751117331,1.4824193164200528,0.8478749163598152,-6.016347967639064,-4.143693987725456
305,15.3,6.23,-11.8,0.0551,3.16,-0.373,0.62,2.95,-4.08,-4.95,,,,,110,15300000000.0,5.435517360273248,-13.30416699886523,-0.6221570754162444,2.7322862310548492,-0.1258533131822707,0.9516637790641762,1.6982784022914827,-5.302501962246307,-4.4339110473598
306,15.4,1.72,-6.68,-1.78,0.84,1.34,1.72,-1.07,0.653,-7.66,,,,,110,15400000000.0,3.9870772806046735,-10.879425519238033,-1.0125083635546903,1.5355445753431338,0.5416090885308924,1.4245181243788814,0.5783861499873413,-3.1069714133162307,-5.595090813968236
307,15.4,1.24,-2.97,-1.49,1.22,-1.21,1.23,-0.7859999999999999,4.34,-7.71,,,,,110,15400000000.0,2.916169391828813,-7.984222005583155,-1.1734883028302368,1.3359842277186869,-0.2559694941411593,1.3048065639905981,0.026431020308881226,-0.36160189090509753,-6.356319022965481
308,15.5,1.29,-1.46,-2.53,1.27,-1.96,0.37200000000000005,-0.9520000000000001,5.5,-9.07,,,,,110,15500000000.0,2.2822310278124958,-5.596064940778909,-1.6308181176423093,1.294253703886407,-1.031883620996466,0.7307328648642664,-0.36938802807645865,1.799311849853169,-7.333065567929667
309,15.5,2.85,0.10800000000000001,-2.17,-0.309,-1.74,-0.131,0.0674,6.84,-8.73,,,,,110,15500000000.0,2.5035674188895674,-3.5081220318611894,-1.812596122959439,0.2803053822053412,-1.3543176942933868,0.20039978661132385,-0.1926877655678578,3.6575910061295094,-7.835869913001167
310,15.6,4.95,-6.85,18.1,-1.63,-1.46,-1.1,1.42,0.136,12.2,,,,,110,15600000000.0,3.4572732988816113,-4.731398813584208,4.900670178294239,-0.9278321347863892,-1.402439146014793,-0.5999004743518931,0.45971643274891005,2.359335935222659,-0.6242747059749458
311,15.6,-1.66,-21.8,5.03,0.182,-1.57,0.313,-5.61,-15.2,-1.01,,,,,110,15600000000.0,1.462379173854478,-10.97927003732557,4.944272073311327,-0.22593920658201228,-1.478736413614084,-0.0380775051137765,-1.9957549612478467,-4.114015649388703,-0.7631104366621628
312,15.7,7.81,-2.57,-5.82,-0.17,-0.174,0.34299999999999997,3.79,4.16,-11.7,,,,,110,15700000000.0,3.936906275073121,-7.901101037382076,1.3152412684325179,-0.19056148489395647,-0.8846370750830478,0.19644761565330707,0.3448412677942245,-1.0637515558777522,-4.699671218527646
313,15.7,11.2,-16.8,6.13,0.465,5.63,-0.7929999999999999,7.33,-9.83,0.424,,,,,110,15700000000.0,6.76831704192768,-11.158495821098683,2.9384729902414586,0.2240363266760762,2.0817411066165823,-0.4124844719350118,3.170649866082611,-4.295480169575002,-2.8554865997415675
314,15.8,3.06,-6.4,-3.73,-3.11,-1.01,-0.20199999999999999,-0.381,0.732,-9.51,,,,,110,15800000000.0,5.322683867577137,-9.416673540684823,0.6902862646029346,-1.8845135890113687,0.6739461570237144,-0.2829467937260305,1.7338488915547234,-2.4420702711212616,-5.250673794419054
315,15.8,4.42,-7.09,-2.21,-3.16,3.12,-0.7709999999999999,1.04,0.852,-6.86,,,,,110,15800000000.0,4.970785796366541,-8.565007009869465,-0.28750657601972196,-2.6911715754382626,1.7877334947530386,-0.5833075961029724,1.453156015695012,-1.2276920447848263,-5.829925420349886
316,15.9,1.57,-15.8,0.754,-1.51,-0.282,-1.16,-1.78,-7.51,-3.2,,,,,110,15900000000.0,3.645039222161634,-11.213338131179256,0.0636234763665342,-1.9441613211262005,0.8452999995768868,-0.9382192555106691,0.1452000424717923,-3.5437016154377265,-4.883325273949517
317,15.9,-1.11,-8.91,-0.20800000000000002,-0.9229999999999999,-1.07,-1.16,-5.04,-0.595,-3.61,,,,,110,15900000000.0,1.7913567344493817,-10.37021329231449,-0.027950757005062762,-1.2983466026917325,-0.026813691555937713,-1.0747089408764876,-1.9524449041702048,-2.4566455691617226,-4.425011892678068
318,16.0,1.21,-4.99,-2.97,-1.68,-0.779,-0.12,-3.23,3.36,-5.59,,,,,110,16000000000.0,1.5647233307152038,-8.400814489678487,-1.0198234255092293,-1.539716244348069,-0.36931457723102756,-0.4871559356144569,-2.4692729973196137,-0.3123052774172512,-4.844331037185721
319,16.0,6.37,-6.32,3.58,-1.54,-0.27899999999999997,-0.49700000000000005,1.87,2.2,1.74,,,,,110,16000000000.0,3.437990102105104,-7.639143375648138,0.5309456605382976,-1.53989567626823,-0.3281906985150768,-0.49321423729460095,-0.7138432979178562,0.613870740509576,-2.474404955801384
320,16.1,2.73,-10.3,-3.2,-0.6829999999999999,0.131,-1.36,-2.33,-1.96,-4.22,,,,,110,16100000000.0,3.1619905249986004,-8.613135988575596,-0.7268929186365833,-0.9979677767364704,-0.11910257563822732,-1.0266570123277443,-1.3676508224567354,-0.335001741117847,-3.1027042767491873
321,16.1,0.33299999999999996,-14.6,1.9,-0.9209999999999999,0.573,-0.058,-4.92,-6.42,0.828,,,,,110,16100000000.0,2.0591499541108473,-10.804596145400028,0.15872898123496715,-0.9492909237241763,0.19603976631639428,-0.43051999750056535,-2.804734725643491,-2.5782718846217128,-1.6879092825355833
322,16.2,2.32,-12.5,2.6,-0.111,1.5,-0.10800000000000001,-2.94,-4.24,1.58,,,,,110,16200000000.0,2.1608385026571457,-11.425189790629785,0.9817709094250039,-0.41912924102222204,0.7897856764068445,-0.2320327062469378,-2.8594555925341845,-3.190877566509281,-0.5116768775989586
323,16.2,-2.44,-14.7,2.18,1.86,1.03,0.9520000000000001,-7.58,-6.53,0.58,,,,,110,16200000000.0,0.3672688930037229,-12.623916737832205,1.3857378868761163,1.0222641570996611,0.8991649745687701,0.4966521903022052,-4.769126570205868,-4.421864613442258,-0.11874501455093833
324,16.3,4.46,-15.5,4.18,3.57,0.249,2.17,0.0336,-7.17,1.38,,,,,110,16300000000.0,1.9627602598223546,-13.676691857347397,2.3277860283288616,2.6335328112612792,0.6031185263983294,1.526474510389087,-2.826209207485099,-5.434980787769192,0.42070460649999486
325,16.3,8.75,-13.5,-8.19,1.99,-0.8440000000000001,1.29,4.99,-5.38,-12.2,,,,,110,16300000000.0,4.608666386060886,-13.61201473423238,-1.2181450949715456,2.226542321488727,-0.05581314460770925,1.3809418508306281,0.33579635684990006,-5.4147118417229665,-4.121918835140726
326,16.4,8.08,-13.7,2.02,3.07,-0.28300000000000003,0.37799999999999995,4.6,-5.86,-2.79,,,,,110,16400000000.0,5.9619149856502425,-13.644221207216527,-0.12644767561382064,2.7599715819557282,-0.1592605183857439,0.7637050398449347,2.060857109761767,-5.578869968842431,-3.642515649958563
327,16.4,-0.201,-7.84,-2.71,0.997,0.69,1.72,-3.38,-0.518,-8.4,,,,,110,16400000000.0,3.5593927301390607,-11.519616681729477,-0.997457893144231,1.6450126020692852,0.22744219305567026,1.3522341390609456,-0.14021259868344904,-3.7131507260522736,-5.354896947144152
328,16.5,1.77,-3.02,-1.35,1.04,-0.7440000000000001,1.4,-0.633,4.29,-7.42,,,,,110,16500000000.0,2.8618241428145814,-8.408376786234719,-1.116312770018682,1.262383480289724,-0.21489479283702895,1.381630492080015,-0.3395671144757665,-0.7627425248936084,-6.098198238010548
329,16.5,1.53,-1.21,-2.91,1.22,-2.04,0.575,-1.01,5.84,-9.24,,,,,110,16500000000.0,2.342631972043665,-5.773448917153674,-1.7210305229018137,1.2355788454505003,-1.045939100474348,0.8852088549314541,-0.6107871509651674,1.671397091547942,-7.229040132655474
330,16.6,2.77,-2.07,-1.91,0.135,-1.79,0.18,-0.23199999999999998,4.78,-8.26,,,,,110,16600000000.0,2.5092351385957126,-4.417820935884293,-1.7847390502255693,0.5395379910300349,-1.3847401481519743,0.451204773744809,-0.4575508309745067,2.8174017704456524,-7.600117954164704
331,16.6,3.79,-5.49,9.34,-1.37,-1.4,-0.309,0.179,1.52,3.51,,,,,110,16600000000.0,3.008522569400189,-4.810286347526866,1.9658183812912833,-0.6681142095518957,-1.3916885659282976,-0.0166452384466258,-0.20003759262048637,2.339107030127939,-3.60120628077056
332,16.7,-2.63,-27.7,3.29,1.35,-0.8809999999999999,-0.632,-6.41,-21.0,-2.74,,,,,110,16700000000.0,0.8104269836798546,-13.188945667421297,2.4122485381795964,0.6082050364365359,-1.1591513688630521,-0.39535076852732315,-2.7122446302923886,-6.264990965112023,-3.2912286704156344
333,16.7,1.14,-2.58,-3.6,-0.000305,-0.52,0.83,-2.87,4.2,-9.44,,,,,110,16700000000.0,0.9389061973891334,-9.305596993137199,0.38529917188685214,0.22336405071715737,-0.868119853704105,0.35876232698727367,-2.7760636756021917,-2.4070110507224007,-5.504381752267945
334,16.8,12.0,-8.03,30.3,-2.7,2.84,-0.721,8.16,-0.7909999999999999,24.9,,,,,110,16800000000.0,5.250911810212991,-8.83867133917949,10.470641272550225,-1.6254638303221567,0.82033727054483,-0.3057518306687826,1.6480623689232416,-1.8112591502744575,5.4391956419578085
335,16.8,1.83,-12.4,-6.33,-2.02,-2.5,-1.89,-1.6,-5.3,-12.2,,,,,110,16800000000.0,3.917319400203702,-10.142276785601927,4.806529193686262,-1.8749809656370053,-0.6915467759016607,-1.2807398318251642,0.33407608895740215,-3.0974038923756817,-0.9097544727692028
336,16.9,3.22,-5.1,-5.5,-3.11,1.68,0.127,-0.691,2.56,-10.2,,,,,110,16900000000.0,3.645479643855906,-8.296577909001915,1.3318203528040007,-2.656045983040692,0.38831450457528205,-0.4143796947615598,-0.08061295758353354,-1.011768956408078,-4.253631712413858
337,16.9,2.79,-12.8,-0.345,-2.45,3.34,-0.218,-0.532,-4.46,-4.35,,,,,110,16900000000.0,3.311983404127565,-9.945031899622919,0.7665027380354456,-2.525736019163396,1.7323364268307355,-0.2935224600096377,-0.2632191750327012,-2.2829794658425135,-4.28831792283286
338,17.0,0.0622,-11.4,1.27,-1.01,-2.25,-1.48,-3.3,-2.88,-2.32,,,,,110,17000000000.0,2.0451028826382274,-10.477615164618141,0.9362501174253159,-1.567136633035084,-0.08098264913173736,-1.023711969815003,-1.491732606764431,-2.503074611688984,-3.5798529160028205
339,17.0,0.37799999999999995,-4.41,-1.97,-1.2,-0.8079999999999999,-0.43,-3.78,4.03,-4.74,,,,,110,17000000000.0,1.3952072074535198,-8.256596557552825,-0.043553353410559104,-1.334947849052111,-0.41202310895273114,-0.6583260055628606,-2.4174389382402914,-0.09461845688254433,-3.9974294732359947
340,17.1,3.34,-4.55,-0.12,-1.62,0.0635,-0.0848,-0.889,4.05,-2.2,,,,,110,17100000000.0,2.1533561949576283,-6.89981649335881,-0.06932631969711078,-1.5152238445488289,-0.1954981759033178,-0.30536300893252444,-1.7991171347655592,1.4333193922804714,-3.3504731089771784
341,17.1,4.96,-13.2,2.77,-1.27,-0.958,-1.32,0.446,-4.62,1.38,,,,,110,17100000000.0,3.247485240511274,-9.205965390582195,0.8879146693421675,-1.3601365201853932,-0.5426961427945729,-0.9297973438073281,-0.8908669941852276,-0.7982720818823348,-1.6478139462772556
342,17.2,-0.0023899999999999998,-10.9,-0.742,-0.444,1.23,-0.507,-4.87,-2.49,-1.93,,,,,110,17200000000.0,1.9805689184638693,-9.826057691194741,0.33841068515098593,-0.7807428238255941,0.2644842211102868,-0.6695967512009247,-2.50060393676131,-1.4219374539993144,-1.7493823454764086
343,17.2,2.07,-15.2,2.14,-0.545,0.00367,-0.0488,-2.9,-6.85,1.08,,,,,110,17200000000.0,2.0154322913426213,-11.793160879770374,0.9457925269732745,-0.6316516193374262,0.14572494220427046,-0.28754209481662185,-2.662177517936497,-3.4230243503078266,-0.7309907930351114
344,17.3,0.18899999999999997,-13.5,3.86,0.861,1.28,0.39,-4.7,-5.07,2.57,,,,,110,17300000000.0,1.3034243786285717,-12.417940343713484,1.9282786690959604,0.31234845737688377,0.6622063057456286,0.1294351297939797,-3.4865676336494102,-4.030191597299071,0.45714874021451335
345,17.3,0.63,-15.6,7.25,2.51,0.804,1.82,-3.76,-7.1,5.08,,,,,110,17300000000.0,1.040899733883705,-13.582716649260474,3.7224260304144297,1.7022127679502563,0.7267707270802912,1.1698532672797473,-3.5971832320912416,-5.16189434277272,2.1210710904688517
346,17.4,9.25,-13.3,-10.3,2.5,-0.856,1.41,5.71,-4.92,-13.8,,,,,110,17400000000.0,4.241097386612406,-13.479229779694371,-1.0050479276562188,2.2067586363754654,0.006071103564473379,1.3176458650698086,0.16798801260567275,-5.072718609931554,-3.6094673355548323
347,17.4,15.3,-17.1,6.35,3.04,-1.01,0.174,12.0,-8.94,2.11,,,,,110,17400000000.0,8.552248870726363,-14.804593774945337,1.4746083414611926,2.7337267944026364,-0.4565872205592947,0.613816103703691,4.954565219514597,-6.49841430608395,-1.5508353400859414
348,17.5,0.917,-9.15,-4.13,2.06,-0.0305,0.8640000000000001,-2.54,-1.77,-9.57,,,,,110,17500000000.0,5.575758788288675,-12.734759386930161,-0.4149106406745655,2.307640632857798,-0.26257245092884185,0.7677858704024116,1.9226789341519308,-4.755256773825613,-4.4372070337847305
349,17.5,1.6,-5.8,-0.218,0.494,1.3,1.75,-1.01,1.48,-6.24,,,,,110,17500000000.0,4.025867392965568,-10.196327333304296,-0.34852484295515296,1.160636948804885,0.44893005480793546,1.372266290900758,0.7362793504885099,-2.4565929730925555,-5.08609383750392
350,17.6,1.06,-3.04,-2.51,1.48,-1.74,0.972,-1.12,4.13,-8.84,,,,,110,17600000000.0,2.869667353411158,-7.576791416916804,-1.0772373574449579,1.3626122514399184,-0.5477784640609241,1.1259318849757496,-0.014668540791044848,-0.028406997221588348,-6.437253191440011
351,17.6,2.34,-0.304,-2.78,0.846,-1.88,0.28800000000000003,-0.221,6.5,-9.37,,,,,110,17600000000.0,2.6631842504108216,-4.91462444694054,-1.6513010599203088,1.0358903403448827,-1.1543928875947727,0.610246546707568,-0.09813883010145746,2.3783283369278645,-7.492849094982289
352,17.7,3.32,-1.56,4.62,-1.14,-2.31,-0.624,0.0983,5.23,-1.68,,,,,110,17700000000.0,2.9192342361991805,-3.6866818279793776,0.4629844021962266,-0.3402114948889179,-1.6805875866074347,-0.14934126296946748,-0.01867055033999368,3.429613742653056,-5.40060575182371
353,17.7,5.97,-31.5,6.54,2.67,-0.7120000000000001,-1.03,2.03,-24.8,0.557,,,,,110,17700000000.0,4.108530559598963,-13.8676003527765,2.511769138017286,1.5635414737113256,-1.2395504323325577,-0.6913218050326677,0.8101081589974563,-6.977397808029326,-3.2562595593873747
354,17.8,4.42,-5.73,1.41,0.465,-0.8220000000000001,0.762,-0.0302,0.618,-4.6,,,,,110,17800000000.0,4.229952394381277,-10.888874640425676,2.14032235816379,0.8687891164614747,-1.049422820159237,0.2030906902199301,0.47016598441194646,-4.177310096083608,-3.739917696897059
355,17.8,6.79,-0.35200000000000004,0.0239,-2.21,0.938,-0.184,2.49,6.18,-5.89,,,,,110,17800000000.0,5.227949489155812,-7.031907212946674,1.426798790778713,-1.0783344840490652,-0.14446870079214058,-0.03513510633543235,1.2872790431801189,-0.3590273553702077,-4.51380585268226
356,17.9,4.48,-17.7,-10.5,-2.18,-0.141,-1.34,0.774,-10.9,-16.6,,,,,110,17900000000.0,4.936372329549558,-10.936906629975946,-2.5941623323052787,-1.7750626288622215,-0.14288926201916333,-0.8381833175393929,1.079634745322486,-4.245018288967568,-8.864040893296771
357,17.9,2.92,-8.43,-3.24,-3.07,1.63,0.43,-0.9670000000000001,-0.938,-8.23,,,,,110,17900000000.0,4.150319102921265,-10.019266782610877,-2.811897890481911,-2.5940219209484594,0.6643790260346031,-0.05770992963073751,0.251679595362861,-3.0258667082081887,-8.635827712050016
358,18.0,3.53,-11.1,1.29,-1.59,1.78,-0.9390000000000001,0.0521,-2.99,-2.96,,,,,110,18000000000.0,3.908496763771184,-10.414863620389884,-1.4289977439771655,-1.9590467360482005,1.172366429641726,-0.6000790349065255,0.17094073643175864,-3.012644240453253,-6.59290308654511
359,18.0,0.0479,-11.4,0.618,-0.895,-0.775,-1.12,-3.74,-3.31,-3.34,,,,,110,18000000000.0,2.4034995892782103,-10.775467460279849,-0.7388797689025267,-1.2861099271592573,0.2856516288192318,-0.9200520805159973,-1.4112094382104146,-3.1222661552487123,-5.4220719096606045
360,18.1,1.85,-6.06,-0.40700000000000003,-1.75,-0.221,-0.278,-2.38,2.21,-3.56,,,,,110,18100000000.0,2.1877258805068625,-9.049395428705694,-0.6269909334644594,-1.5794886755931157,0.05495262038571558,-0.5249163339954421,-1.8031285280533944,-1.1564951081620773,-4.751848482495176
361,18.1,3.64,-6.12,-2.6,-1.79,0.5670000000000001,-0.266,-0.635,2.35,-5.06,,,,,110,18100000000.0,2.7538737424373423,-7.977105629724374,-1.292164590514553,-1.7126226685581627,0.28810851951583893,-0.36557241076531716,-1.3305683718664545,0.13619473943831517,-4.862762739017577
362,18.2,5.21,-10.3,5.28,-1.75,-2.25,-1.15,0.6559999999999999,-1.8,3.66,,,,,110,18200000000.0,3.7113586496175284,-8.827388940801315,0.9235531070985918,-1.7362612746853698,-0.8675950931404309,-0.8483297752652719,-0.5269127479873844,-0.5775947317790283,-1.7951287211145694
363,18.2,-0.14800000000000002,-12.0,-0.469,-0.637,1.44,-0.823,-5.24,-3.67,-1.44,,,,,110,18200000000.0,2.2068441355694244,-9.988706497548826,0.4540723980941445,-1.0410537056604334,0.183146445810353,-0.8327411735712297,-2.433566911550664,-1.7176280068680576,-1.6673057612971451
364,18.3,2.44,-15.4,3.73,-0.612,0.21,0.125,-2.73,-7.07,2.96,,,,,110,18300000000.0,2.297736560926587,-11.969481823878933,1.5585076985520745,-0.7697065699819461,0.19537395372564603,-0.2433220541719745,-2.5534873407518517,-3.6908112376329894,-0.001780042309726726
365,18.3,2.37,-11.9,4.8,0.467,1.72,0.10800000000000001,-2.71,-3.59,3.81,,,,,110,18300000000.0,2.32590736093762,-11.94404822882196,2.6513336546596675,0.012425769470154835,0.8895979591791945,-0.02710921592190066,-2.6168037159162334,-3.653646554982894,1.3702100260904033
366,18.4,-3.53,-14.2,3.72,2.49,1.17,1.5,-8.25,-5.83,1.67,,,,,110,18400000000.0,0.04306754999488138,-12.769827414689976,3.011620267906187,1.579322049986689,1.0172763462472125,0.9127139786044965,-4.895683162976143,-4.455971923840934,1.478114682062
367,18.4,9.0,-16.6,-5.13,3.16,-0.517,1.89,5.15,-8.25,-8.6,,,,,110,18400000000.0,3.5347966400230106,-14.171842041980748,0.2667815554734032,2.5789928146421923,0.318658172464955,1.5141615028375042,-0.8317556954040617,-5.8546625130663354,-2.1493438358606864
368,18.5,14.3,-16.1,-0.455,2.33,-0.595,0.877,5.58,-8.51,-9.52,,,,,110,18500000000.0,7.731453766545518,-14.877634239655062,0.023442527327099977,2.4215218382437587,-0.09736741335871285,1.1220355324207887,1.7620857692090426,-6.8335682564540665,-4.802295402424338
369,18.5,4.12,-10.3,-0.622,2.6,0.184,0.7979999999999999,0.8320000000000001,-2.74,-5.98,,,,,110,18500000000.0,6.323581300841244,-13.20201542279356,-0.1941598042566941,2.534397010198603,0.030750566631266435,0.922615525875623,1.3858245495667416,-5.324450435398929,-5.2261915989184216
370,18.6,1.26,-6.6,-1.03,1.14,0.639,1.6,-1.47,0.5489999999999999,-7.17,,,,,110,18600000000.0,4.349618199092111,-10.785382438762937,-0.47595216749775204,1.6525362465835132,0.30771116956924516,1.3394957700413714,0.23051598096525372,-3.1591686504332523,-5.925834793505567
371,18.6,0.685,-3.74,-1.53,1.42,-1.26,1.14,-1.58,3.22,-8.05,,,,,110,18600000000.0,2.921020402612785,-8.206457333733727,-0.8313103248432692,1.5054729452266655,-0.4061312202733801,1.2167208149928044,-0.5019185992129168,-0.8074508931170374,-6.690394615960682
372,18.7,1.24,-1.49,-2.36,0.895,-1.73,0.125,-1.3,5.1,-9.17,,,,,110,18700000000.0,2.2656991930137576,-5.747933529777306,-1.3466876225639237,1.1193905418625985,-1.0089423064392533,0.5448470988368198,-0.8247781448331777,1.3703653146874424,-7.582889481465964
373,18.7,3.91,0.37799999999999995,-3.02,-0.597,-2.11,-0.0476,0.772,6.84,-9.7,,,,,110,18700000000.0,2.9067058425843726,-3.5055678515996207,-1.9108225642009045,0.03389089589884797,-1.510298423866312,0.1802395643905606,-0.17881007520591374,3.386778114145603,-8.344909942985279
374,18.8,8.43,-11.3,28.7,-1.28,-0.54,-1.25,4.47,-4.5,22.9,,,,,110,18800000000.0,5.059881391855226,-6.358678728230228,8.409208208783033,-0.7970552286071316,-1.0684822602169413,-0.6999674976381469,1.7018411077604494,0.4792713413618195,2.9012023127449496
375,18.8,-0.0862,-16.3,5.02,0.396,-1.96,0.6,-4.53,-9.98,-0.995,,,,,110,18800000000.0,3.053756840632659,-9.997646704050972,7.266581862744234,-0.04252938370535364,-1.4744264146054107,0.10006672131609418,-0.8192169878134674,-3.376599901915358,1.4988257576928983
376,18.9,6.9,-2.91,-6.98,-0.46,0.327,0.207,-4.54,-9.87,-0.873,,,,,110,18900000000.0,4.553158509099434,-7.403251015396888,2.4635368136475666,-0.30655100549725894,-0.654164006519651,0.16587627616309145,-2.324439852222911,-5.770429696236067,0.645124486479125
377,18.9,11.3,-14.8,2.38,0.498,4.73,-1.33,7.11,-8.16,-3.49,,,,,110,18900000000.0,7.1833160431743135,-10.110792065936897,2.435373529789672,0.20227248453660523,1.7974639548800833,-0.7547253718100567,1.4922124165367783,-6.651358676109996,-0.8432483373261819
378,19.0,0.6920000000000001,-6.95,-6.88,-3.45,-1.25,0.414,-3.48,-0.212,-12.6,,,,,110,19000000000.0,4.652771430354411,-8.953800719562528,-0.7051804384228539,-2.107540135251901,0.40983018153515416,-0.035461022368721284,-0.5192695476090736,-4.277451524231065,-5.0749057531017465
379,19.0,4.92,-10.5,-0.627,-3.23,3.32,-0.0427,1.13,-2.69,-5.22,,,,,110,19000000000.0,4.756946608845945,-9.519778816813417,-0.6788229377611034,-2.81741925352276,1.7349483432018955,-0.03991607974931503,0.14793363053349018,-3.692228277805436,-5.1271300626500755
380,19.1,1.49,-14.7,2.57,-0.955,0.377,-1.12,-2.0,-6.53,-1.54,,,,,110,19100000000.0,3.483375267312618,-11.4159714083773,0.41647435778754416,-1.6395664247093784,1.116619461955243,-0.704628147612268,-0.7210014389051017,-4.738389459532561,-3.835999175871611
381,19.1,1.28,-7.55,-0.991,-1.66,-1.71,-0.615,-2.71,0.631,-4.65,,,,,110,19100000000.0,2.6244216400561404,-10.00085302003547,-0.05803684679113297,-1.6524892426423188,-0.17045488603045356,-0.6494686330422893,-1.525640190948958,-2.7589327102667105,-4.12898596461217
382,19.2,2.99,-5.38,-2.77,-2.04,0.35100000000000003,-0.0952,-1.28,3.04,-5.43,,,,,110,19200000000.0,2.766937019570892,-8.309414168476378,-0.9723390431211679,-1.8975632730274696,0.06698464961734191,-0.30835713306639745,-1.4262677530833805,-0.6211223427016987,-4.597265379181207
383,19.2,6.36,-7.83,3.91,-1.9,-0.614,-0.696,2.0,0.757,2.05,,,,,110,19200000000.0,4.16764011377101,-8.133927110965066,0.6736764696420349,-1.8991043211262224,-0.24309525420695505,-0.5469227411555253,-0.04018944711577177,-0.11306948870876432,-2.204687094886166
384,19.3,1.01,-10.9,-1.8,-0.495,1.07,-1.29,-3.89,-2.44,-2.93,,,,,110,19300000000.0,2.9366803029278024,-9.146433373577484,-0.16029054013716593,-1.0111043592364037,0.3548102246168307,-1.004232015472313,-1.5976097713275252,-0.9709060209183819,-2.465752056080546
385,19.3,-0.998,-15.3,2.21,-0.9259999999999999,0.171,-0.204,-6.14,-7.05,0.983,,,,,110,19300000000.0,1.402802734877694,-11.398914074186498,0.6388213114907523,-0.9572816711889252,0.27111398602389036,-0.5117481741809706,-3.4352094050615567,-3.2119995594103816,-1.2244281703884978
386,19.4,2.48,-12.6,3.42,-0.13,2.07,0.16,-2.63,-4.31,2.32,,,,,110,19400000000.0,1.8227323384467815,-11.838565386556741,1.576458634446734,-0.4340825839389165,1.0902196199918448,-0.09833667418302156,-3.1094662904178034,-3.6167838078018892,0.05133280620589509
387,19.4,-2.3,-14.3,2.28,2.14,1.04,1.01,-7.16,-5.95,0.511,,,,,110,19400000000.0,0.21554546387707574,-12.739560623458994,1.813648211797337,1.193848690799328,1.0673525755407802,0.5837628730649922,-4.748087990631141,-4.476937501545916,0.21678275252328616
388,19.5,6.46,-15.5,3.19,3.49,0.294,2.08,2.36,-7.14,0.155,,,,,110,19500000000.0,2.6498547332659452,-13.75000490814982,2.2776668775947453,2.646007379992066,0.7152138238629979,1.504586524733763,-1.8725490294828377,-5.458690981908223,0.1945450259083155
389,19.5,11.1,-13.7,-6.53,2.16,0.158,1.1,7.57,-5.53,-10.8,,,,,110,19500000000.0,5.944020402092763,-13.73170080525851,-0.691720597181456,2.3386410015359758,0.46149180374255155,1.2555933461411368,1.947383779025622,-5.484979544877902,-3.762768067401643
390,19.6,6.53,-11.5,2.51,2.35,-0.49,0.643,3.37,-3.74,-2.54,,,,,110,19600000000.0,6.172456058182637,-12.914798487831407,0.38769679182074945,2.345824730977851,0.02823904186714138,0.878587285776018,2.5228955209820443,-4.841682656852905,-3.3226519790304367
391,19.6,-0.522,-8.53,-2.19,1.1,0.996,1.78,-3.22,-1.11,-8.01,,,,,110,19600000000.0,3.562720287330355,-11.309766014008433,-0.4813393174413967,1.5579257981351673,0.46889980066983716,1.4333403715065032,0.19963782240776062,-3.4659760755269784,-5.009789030771435
392,19.7,1.83,-4.33,-1.06,1.43,-1.33,1.28,-0.11199999999999999,3.01,-7.27,,,,,110,19700000000.0,2.8872446469730266,-8.754859424006707,-0.6764270286337,1.4770214457143511,-0.35021216087654095,1.3389706544062996,0.07356640567115968,-1.0785697101214415,-5.823316303655043
393,19.7,1.69,-1.64,-2.96,1.68,-2.0,0.239,-0.546,5.23,-9.59,,,,,110,19700000000.0,2.420516357432845,-6.150502625985219,-1.446303208659142,1.6053914676513237,-1.1014273871486908,0.6620197654474183,-0.17707587367836425,1.2471213323734283,-7.179074729312975
394,19.8,1.78,0.0407,-1.59,0.375,-1.85,0.138,-1.03,6.52,-8.39,,,,,110,19800000000.0,2.170820414064978,-3.884245535997707,-1.4947486763695799,0.8272530033967376,-1.442282828872259,0.3395242110548065,-0.5221217584930782,3.190998814515062,-7.614928299689975
395,19.8,5.56,-2.91,9.16,-2.12,-2.4,-0.8290000000000001,2.02,3.76,2.91,,,,,110,19800000000.0,3.4920424750545864,-3.5276281237939866,2.097357666825089,-1.0366829040585994,-1.8783702917530403,-0.3796163336290584,0.5062800034437069,3.4007644182695347,-3.826646375748136
396,19.9,1.39,-31.1,2.77,1.01,-1.78,-0.228,-2.82,-24.6,-3.2,,,,,110,19900000000.0,2.672591960099746,-13.620349666567739,2.324130050780641,0.2577040664553172,-1.8335783004934734,-0.28630765248434753,-0.8393487658395429,-6.92188091548819,-3.601094916359889
397,19.9,3.22,-1.56,-1.18,0.565,0.0208,0.96,-1.16,4.97,-7.05,,,,,110,19900000000.0,2.885990987903408,-9.205722215105812,1.1427593627461246,0.45204772880317345,-0.9892047503877613,0.48070285792437206,-0.9690664952219665,-2.5378697017218927,-4.842473957596571
398,20.0,8.84,-8.05,14.1,-1.56,3.08,-1.32,4.6,-1.31,8.35,,,,,110,20000000000.0,5.207074363117542,-8.782676259399931,5.511120338115201,-0.8204348316952663,0.8636689570710087,-0.6274970952802418,1.2838695499498807,-2.08520835021029,-0.0940509526946629
399,20.0,2.42,-10.8,-5.28,-2.52,-1.68,-0.40399999999999997,-1.52,-4.12,-11.3,,,,,110,20000000000.0,4.12057422284175,-9.521107052015866,1.8730379860207544,-1.89529356559718,-0.2945665241409122,-0.4899511105900529,0.1495791180319732,-2.835346123151889,-4.1274555882529
400,20.1,3.18,-6.99,-3.59,-3.35,2.39,-0.0842,-0.742,0.528,-8.51,,,,,110,20100000000.0,3.7539051471888243,-8.594608572224155,0.031247628361469104,-2.8152958464640947,0.9278253979332888,-0.24024120193123089,-0.21110444208208484,-1.5954289500768182,-5.704883389643253
401,20.1,2.95,-13.3,0.223,-2.07,1.89,-0.706,-0.556,-5.13,-3.96,,,,,110,20100000000.0,3.440514503993526,-10.31699237407891,0.09589438435995086,-2.3439471476338882,1.3659424597263177,-0.5268814036476939,-0.35063009424199054,-2.8984692347835215,-5.076840155738302
402,20.2,1.4,-10.9,0.8140000000000001,-0.981,-1.37,-0.919,-2.31,-2.56,-2.88,,,,,110,20200000000.0,2.6450497647832005,-10.530399103129195,0.3379941175399023,-1.4819762843923674,0.12015703884156714,-0.7682015239112603,-1.143282693555307,-2.7736905552469646,-4.286122241715477
403,20.2,1.98,-5.31,-1.71,-1.72,-0.716,-0.35600000000000004,-2.27,3.06,-4.53,,,,,110,20200000000.0,2.3857898500331354,-8.619499504968163,-0.3524597942580414,-1.6325100256051284,-0.26057913804107063,-0.5145218635922645,-1.5990901498110166,-0.6230665123422208,-4.373902268745864
404,20.3,3.39,-4.9,-1.25,-1.74,0.522,-0.363,-0.955,3.63,-3.34,,,,,110,20300000000.0,2.777266527903556,-7.25799634996992,-0.6550535025113848,-1.7004900898516402,0.09576084787867095,-0.4212713250954045,-1.3385269156417843,0.9448513171569397,-4.001765427762551
405,20.3,6.41,-11.6,3.76,-0.852,-1.69,-1.34,1.71,-3.09,2.45,,,,,110,20300000000.0,4.193434471431501,-8.847364040859448,0.8334228911134394,-1.1638781299224152,-0.7173684227945467,-0.9866811468157015,-0.1052616309886838,-0.5426201334744509,-1.6795542323144952
406,20.4,-0.836,-12.0,-1.05,-1.01,1.53,-0.596,-6.03,-3.7,-2.02,,,,,110,20400000000.0,2.232783005479913,-10.001369817510863,0.19845200205857627,-1.0665607295102768,0.3059494346404008,-0.7462456986993041,-2.5020829550784276,-1.7066066628215397,-1.8020923084237852
407,20.4,1.12,-15.5,3.06,-0.605,0.773,-0.05,-4.13,-7.28,2.2,,,,,110,20400000000.0,1.7989808308893185,-12.014114414889669,1.163184720646579,-0.774655143505904,0.5186164753650964,-0.31775777576342074,-3.16064814061425,-3.761270715838211,-0.3616023045730046
408,20.5,0.575,-12.7,3.61,1.13,1.28,0.247,-4.63,-4.46,2.51,,,,,110,20500000000.0,1.321829804203252,-12.26517914849307,1.9880958191250018,0.4299089838941018,0.8653052202342203,0.029809016253717513,-3.7550666278790037,-4.018861357739442,0.6719856371750301
409,20.5,0.649,-13.9,3.11,2.47,0.767,1.69,-4.13,-5.66,0.948,,,,,110,20500000000.0,1.0595369431838786,-12.863596565112662,2.3663308134803995,1.720127060182656,0.820542880602284,1.0515342677142288,-3.9067439658326966,-4.623876638344474,0.7713326574608926
410,20.6,10.4,-15.2,-8.4,3.19,-0.158,1.47,6.39,-6.93,-11.9,,,,,110,20600000000.0,4.7007796811270826,-13.718824658455253,-1.2633938817045078,2.649721215080038,0.37497266878530966,1.3090691081203731,0.2587487150117469,-5.474042409048182,-3.7895134837286437
411,20.6,15.4,-15.7,3.32,1.73,-0.616,0.8909999999999999,12.0,-7.69,-1.26,,,,,110,20600000000.0,8.871714061236013,-14.444023380484712,0.28183620601490134,2.068060452778864,-0.07625732421739234,1.0517783615424188,5.008609164881989,-6.290968126624414,-2.8790550091525056
412,20.7,0.424,-9.79,-2.28,1.8,0.809,1.19,-2.89,-2.18,-7.49,,,,,110,20700000000.0,5.578496309066525,-12.740442637455924,-0.581852689367371,1.8985305172735094,0.32683619896981275,1.1368436301103708,1.8132690031818983,-4.775435762993744,-4.538691830822404
413,20.7,1.28,-5.62,-0.7759999999999999,0.6559999999999999,0.133,1.92,-1.2,1.91,-6.54,,,,,110,20700000000.0,3.9027903919546096,-10.134042096923892,-0.6473068731707551,1.1127149457086571,0.238574727021313,1.6188186410372738,0.5942671147014118,-2.3108108703518275,-5.259031118589071
414,20.8,1.52,-2.01,-2.43,1.4,-1.99,0.765,-0.635,5.43,-8.45,,,,,110,20800000000.0,2.973894406630736,-7.160279302195539,-1.2483181043939768,1.294403081781334,-0.7761856168768069,1.0933561738844628,0.09697367779035743,0.5428841629739383,-6.4075699559062524
415,20.8,1.66,-1.99,-2.93,0.914,-2.26,0.245,-0.976,5.11,-9.16,,,,,110,20800000000.0,2.461691879368827,-5.267725817442419,-1.8152747463792676,1.0538241300388582,-1.4518264016893803,0.5712554644905139,-0.3370920929079708,2.226578115593009,-7.398263671148384
416,20.9,2.53,-1.95,-0.941,-0.48,-2.32,0.0483,-0.7140000000000001,5.03,-7.02,,,,,110,20900000000.0,2.4883207898049786,-4.053289785731814,-1.5205246722723644,0.0837852635349714,-1.847140975165629,0.24941491212892253,-0.4895681667325086,3.2600760291812394,-7.262113623598188
417,20.9,15.9,-26.2,32.9,1.44,0.852,-0.409,12.2,-19.1,27.3,,,,,110,20900000000.0,7.716667589757426,-12.159976613123778,10.083896606794402,0.9414983772094885,-0.6181127638509285,-0.15579095548549216,4.643928731693806,-4.983096615339588,5.177973625203949
418,21.0,2.27,-10.6,3.5,0.78,-1.83,1.14,-1.59,-3.9,-2.58,,,,,110,21000000000.0,5.5933638984967,-11.58895553549246,7.864223687117654,0.8393616794282488,-1.1699341283740234,0.64167288605339,2.1220261703897974,-4.583806763156553,2.3856134413393053
419,21.0,5.33,3.58,-11.2,-0.32799999999999996,-0.644,0.29600000000000004,1.34,10.1,-17.4,,,,,110,21000000000.0,5.490695305518598,-6.036439338711144,1.4369750292458487,0.10108524026877885,-0.9304550144308957,0.4289366985826113,1.805661676623833,0.8294644238035351,-4.735905828276474
420,21.1,15.3,-22.0,14.3,-0.8029999999999999,8.06,-0.927,11.2,-14.7,9.08,,,,,110,21100000000.0,9.314709320567365,-11.879816581694413,5.773572385075102,-0.4706868323890029,3.1632634947115017,-0.4055424161754274,5.606090955059587,-4.895563183397271,0.23691147802677737
421,21.1,2.81,-8.24,-3.03,-1.73,-1.76,-0.682,-1.09,-1.09,-8.49,,,,,110,21100000000.0,6.778943523138857,-10.547480822096277,2.8055653942159107,-1.2671163061505268,0.9215022177112027,-0.575681676285023,2.897223136569073,-3.492620121883952,-2.904202544417472
422,21.2,1.59,-4.38,-4.6,-3.6,2.6,-0.128,-2.33,3.33,-9.23,,,,,110,21200000000.0,4.756109809605871,-8.289907015204626,0.3088778350904655,-2.742505650383172,1.685790200551374,-0.3001665965274126,0.7825779872573437,-0.9774214306586533,-5.181073373707893
423,21.2,3.53,-13.3,0.9359999999999999,-2.36,2.14,-0.33299999999999996,0.11699999999999999,-4.86,-2.82,,,,,110,21200000000.0,4.278128825204632,-10.123825216055158,0.5203037043935985,-2.500596917420319,1.8926103673521715,-0.3203731396157119,0.513321969523663,-2.4087567251272617,-4.331242238712421
424,21.3,0.16,-10.9,2.04,-0.7,-2.27,-1.58,-3.47,-2.42,-1.26,,,,,110,21300000000.0,2.672736542947378,-10.407939765198797,1.0326490266660833,-1.3618424915515444,-0.0027947268727714913,-1.0955806806531676,-1.0981096538012445,-2.412901652142171,-3.225797045461043
425,21.3,1.1,-6.03,-4.56,-1.55,-0.182,-0.326,-3.26,2.39,-7.08,,,,,110,21300000000.0,2.0596282175957468,-8.805418065189833,-0.8528379741361121,-1.480839218533894,-0.08439414458750734,-0.621960482771557,-1.972690834104961,-0.642283893468204,-4.613056564960177
426,21.4,3.85,-5.27,-0.136,-2.28,0.451,-0.28800000000000003,-0.518,3.32,-1.93,,,,,110,21400000000.0,2.757578429510724,-7.511296909117636,-0.6111656154088652,-1.986253744942197,0.15939249736395383,-0.41643240649302166,-1.384203435250855,0.8184351600057531,-3.6473326652480935
427,21.4,2.74,-11.5,0.39,-0.645,0.153,-1.44,-2.03,-2.97,-0.455,,,,,110,21400000000.0,2.750725739628057,-8.971340652791877,-0.2736359873480939,-1.13800245943945,0.15648173308925648,-1.0463628720359244,-1.6454569721367664,-0.5781935785912189,-2.4983028915225267
428,21.5,-1.19,-13.4,0.95,-0.629,0.606,-0.109,-6.3,-5.04,0.0857,,,,,110,21500000000.0,1.2144914342468238,-10.592427925638448,0.13889655992717914,-0.8160932165719659,0.36116561015488446,-0.46948509400470395,-3.528427552495396,-2.223064537356489,-1.5682318184821522
429,21.5,3.19,-12.8,2.92,-0.295,1.88,0.105,-1.87,-4.45,2.0,,,,,110,21500000000.0,1.9846145723792892,-11.400498118110404,1.0765085138765438,-0.48653738321223144,1.0527524246519242,-0.11593185266146638,-2.857519552425984,-3.0440372199798706,-0.28390307027078365
430,21.6,-1.93,-14.6,2.6,1.74,1.2,0.966,-6.78,-6.26,1.06,,,,,110,21600000000.0,0.45855936633958105,-12.571659058408912,1.5901333147174381,0.9215952582684066,1.1198002315460722,0.5499174911161155,-4.444338136549334,-4.229620749030065,0.19981361694899974
431,21.6,5.22,-14.8,7.97,3.21,0.642,2.26,1.16,-6.27,5.25,,,,,110,21600000000.0,2.3147372633148597,-13.387331585266448,3.7410201971374417,2.368854791371888,0.9022384421720098,1.6023472588651633,-2.177133112329626,-4.981818458909339,2.0175485303541034
432,21.7,9.0,-12.8,-7.69,2.25,0.261,1.47,5.85,-4.45,-11.8,,,,,110,21700000000.0,4.9208891465024145,-13.172342023870037,-0.11279580548481549,2.2936872635898853,0.6102566100508762,1.5208972908942584,1.070200644325805,-4.78576041044467,-2.955860136758413
433,21.7,8.98,-12.9,5.4,2.32,-1.6,0.322,6.23,-4.88,0.527,,,,,110,21700000000.0,6.503273955981646,-13.072652521795428,1.7457697983855238,2.3103282277809325,-0.39616275974604176,0.7830643494107615,3.157569902039782,-4.82050242723132,-1.7022595748975773
434,21.8,-2.01,-8.52,-2.72,1.45,0.299,1.67,-4.66,-0.953,-8.37,,,,,110,21800000000.0,3.184498643551635,-11.406178228833014,0.24019506924070222,1.7662294865130796,-0.07962700059359551,1.3289078604395894,-0.00498615486865317,-3.3947250930848747,-4.102207504915512
435,21.8,1.18,-3.91,-0.644,0.846,-0.741,1.56,-0.675,3.59,-6.68,,,,,110,21800000000.0,2.4030741495268253,-8.662241728726913,-0.057899502159527105,1.1842472751771493,-0.3807769140005773,1.4711280086713436,-0.27603667948748656,-0.8197654618256345,-5.0300431827272725
436,21.9,1.3,-2.13,-2.77,1.07,-2.27,0.51,-0.6629999999999999,5.15,-9.04,,,,,110,21900000000.0,1.9730568099568178,-6.271149114461412,-0.9722480024000948,1.1119937194804965,-1.2410166975920043,0.8796245359640285,-0.43258061745048615,1.3810234456673642,-6.4733638615689895
437,21.9,2.33,-2.02,-2.25,0.273,-1.95,-0.061,-0.25,5.03,-8.55,,,,,110,21900000000.0,2.1122058613446866,-4.715038380114739,-1.403025044707914,0.58138756682419,-1.563845533598763,0.30073944531898655,-0.35871860456181304,2.7262400223124796,-7.220816345825569
438,22.0,3.55,-5.31,8.73,-0.856,-1.92,-0.304,0.275,1.79,2.82,,,,,110,22000000000.0,2.672708855080361,-4.93282092434097,2.013189032355154,-0.3276617788656526,-1.7260170683149676,-0.07143311591186269,-0.10235112792710266,2.3810896608670378,-3.6067829369194855
439,22.0,1.37,-29.8,2.31,1.9,-0.8220000000000001,-0.402,-2.2,-23.0,-3.86,,,,,110,22000000000.0,2.1648668663346635,-14.035320481480554,2.1132548717022854,1.08118194486547,-1.3143814929010291,-0.2748726807970726,-0.9509437863947593,-6.97579714659171,-3.6979243860921596
440,22.1,3.79,-2.46,2.51,0.9490000000000001,-1.3,0.6809999999999999,-0.0926,4.09,-3.66,,,,,110,22100000000.0,2.7984012305226718,-9.798235441747728,2.247012196387315,0.9975859044653764,-1.3078329949618934,0.3133965154615451,-0.6037053966587107,-2.896326401001618,-3.6842741325325896
441,22.1,7.03,0.28300000000000003,-4.24,-2.52,-0.0916,-1.17,2.97,6.8,-10.3,,,,,110,22100000000.0,4.4480281910672606,-6.10805234495687,0.0600026405216485,-1.2270466216097562,-0.7540328503623256,-0.5995247065716394,0.8420180315311352,0.6782809771408385,-6.065500352990036
442,22.2,10.1,-22.1,-6.77,-2.12,2.59,-1.34,6.3,-15.2,-12.6,,,,,110,22200000000.0,6.651366870175755,-11.961820637023205,-2.2426416392358126,-1.7917784973817987,0.7686407142602639,-1.0552327069241743,3.0500155408975402,-5.175339887865493,-8.417490545525911
443,22.2,3.09,-7.69,-5.19,-2.52,1.3,-0.0757,-0.628,-0.207,-10.3,,,,,110,22200000000.0,5.263020059483271,-10.398143228720514,-3.23630421562416,-2.252328787058599,1.010590097558015,-0.45240250445169516,1.5620940044843243,-3.343732397733862,-9.095070192566753
444,22.3,1.11,-7.84,0.242,-2.88,1.91,-0.318,-2.33,0.303,-4.0,,,,,110,22300000000.0,3.6440259469162823,-9.46174843857714,-2.0636403461854735,-2.6492879789800483,1.4201278407012978,-0.36968765976310675,-0.012431790762726491,-1.9993432187184537,-7.261180060043951
445,22.3,1.52,-14.9,2.65,-1.16,0.633,-1.09,-1.8,-6.41,-0.973,,,,,110,22300000000.0,2.8160054951803386,-11.452391620309466,-0.4744993456401625,-1.7074151545677667,1.0617166603324044,-0.8129868481708775,-0.7355829358937623,-3.625357521992631,-4.99784885043099
446,22.4,1.23,-6.55,-1.24,-1.34,-1.82,-0.779,-2.76,1.92,-4.15,,,,,110,22400000000.0,2.1977244610453717,-9.657897075916285,-0.7325776836098573,-1.475050215714769,-0.25044568024879554,-0.7920704378214963,-1.554550034727306,-1.58102912900714,-4.692679067284292
447,22.4,2.9,-5.81,-2.96,-1.74,0.409,-0.128,-1.34,2.77,-5.1,,,,,110,22400000000.0,2.4714963439157054,-8.249394610947016,-1.4835234192926487,-1.6426128419923638,0.04982665243522688,-0.3833840203452222,-1.4677549784602824,0.023003141537087712,-4.839287776517328
448,22.5,7.74,-10.2,7.9,-1.45,-1.44,-0.914,3.34,-1.56,6.53,,,,,110,22500000000.0,4.525345335225806,-8.963403362987973,1.6800063686974405,-1.520798421216821,-0.62855179251374,-0.7099390408473393,0.47719656570508073,-0.5605801826511608,-0.7470919354568846
449,22.5,-0.00718,-11.2,-0.9670000000000001,-0.746,1.16,-0.847,-4.92,-2.76,-1.81,,,,,110,22500000000.0,2.758406636815643,-9.782097704007132,0.7876034768171198,-1.0307913984509907,0.18584826704301494,-0.7942899633756918,-1.7062104875772555,-1.3714091288768462,-1.1296689035332583
450,22.6,0.113,-14.5,0.589,-0.782,0.804,-0.19699999999999998,-4.95,-6.12,-0.187,,,,,110,22600000000.0,1.7271335567573638,-11.509060973415815,0.7206469592397461,-0.8734478555877951,0.4673177978374901,-0.42670200142868403,-3.0184681194785474,-3.122004820350509,-0.7903701062090291
451,22.6,2.19,-13.2,5.22,0.0846,1.02,0.121,-2.88,-4.88,4.44,,,,,110,22600000000.0,1.907575290965774,-12.128020222065095,2.2375437502112887,-0.2675481010348816,0.7189763816747887,-0.08963177839014003,-2.962451628157765,-3.7701000437880983,1.0922191162414814
452,22.7,-1.64,-14.4,0.879,2.07,0.8220000000000001,1.11,-6.5,-5.98,-0.5670000000000001,,,,,110,22700000000.0,0.5246049647160174,-12.95966630551222,1.7795288489087728,1.2107911798659368,0.765887220132829,0.6486531929212653,-4.3935479136447775,-4.584792564906787,0.4950093824454457
