,Time (s),Acceleration x (m/s^2),Acceleration y (m/s^2),Acceleration z (m/s^2),Gyroscope x (rad/s),Gyroscope y (rad/s),Gyroscope z (rad/s),Linear Acceleration x (m/s^2),Linear Acceleration y (m/s^2),Linear Acceleration z (m/s^2),SPM/RPM,Timestamps,Acceleration x (m/s^2)_kalman,Acceleration y (m/s^2)_kalman,Acceleration z (m/s^2)_kalman,Gyroscope x (rad/s)_kalman,Gyroscope y (rad/s)_kalman,Gyroscope z (rad/s)_kalman,Linear Acceleration x (m/s^2)_kalman,Linear Acceleration y (m/s^2)_kalman,Linear Acceleration z (m/s^2)_kalman
0,0.0442,2.54,4.86,6.28,-0.8959999999999999,-0.0751,-1.26,10.9,2.62,1.72,60.0,44200000.0,1.8260358459676134,3.7746350063485865,6.369765387615157,-0.8920833738537501,-0.07261706497888663,-1.2434635548015354,9.279728255834204,2.496304750710669,2.3081623697413867
1,0.0942,1.64,4.2,8.67,-1.02,0.255,-1.35,10.3,2.84,4.28,60.0,94200000.0,1.7662579421522917,3.874992378168328,7.205409174524984,-0.9800464309370485,0.12512819928299052,-1.3122350612277207,9.654289489601148,2.5770452575775544,3.0256611531985316
2,0.14400000000000002,0.8809999999999999,4.22,8.18,-0.84,-0.986,-1.11,9.5,3.57,3.54,60.0,144000000.0,1.3947905839437913,3.989605997265022,7.655341769417324,-0.8785987838159891,-0.6021576798533048,-1.1741512575028485,9.58234747963452,2.9055648717058777,3.263912119503216
3,0.19399999999999998,1.59,4.36,8.98,-0.997,-0.262,-1.25,10.0,4.43,3.97,60.0,194000000.0,1.4828177030316798,4.127594820503614,8.302753931801162,-0.9646939244548144,-0.37747552317547806,-1.226221031564084,9.788294530939098,3.4714564161243664,3.610173031932528
4,0.244,0.905,4.52,9.1,-0.37200000000000005,-0.807,-1.11,9.19,5.27,3.9,60.0,244000000.0,1.2168945601446923,4.279861963444592,8.697964902327016,-0.5335962105838279,-0.6614817663800785,-1.1463936111072472,9.48920290538578,4.167092629503353,3.7543198380169347
5,0.294,1.71,4.38,6.69,-1.56,0.7609999999999999,-0.727,9.85,5.66,1.36,60.0,294000000.0,1.4451585113172842,4.319294557035793,7.699024639978607,-1.280169748374532,0.27919082922126914,-0.8583144849986268,9.670179508522928,4.753170284301669,2.5592977284010745
6,0.344,0.785,3.03,5.98,-2.11,4.12,-0.9209999999999999,9.35,5.13,1.68,60.0,344000000.0,1.139052126921371,3.808880373017766,6.843061739009184,-1.883762833478452,2.81911323996546,-0.9013730363475085,9.50944244279403,4.901907355370945,2.120047630131483
7,0.39399999999999996,-0.10099999999999999,0.943,8.53,-0.7659999999999999,4.25,-0.977,9.03,3.76,6.33,60.0,394000000.0,0.5637806725862644,2.6721190365816665,7.683237313217027,-1.0707361985617831,3.7653584191640146,-0.9533210636188257,9.268701499576702,4.450298837536036,4.223577543217871
8,0.444,-1.06,0.44799999999999995,12.2,-0.363,-2.55,-0.519,8.05,3.61,10.4,60.0,444000000.0,-0.18960991201095434,1.7892937943055167,9.932928438946263,-0.5559504594029478,-0.41098778579496287,-0.6549866685470678,8.656727635168837,4.117732882944235,7.30983689832912
9,0.494,-0.675,-0.754,9.03,-1.24,0.5489999999999999,-0.434,8.23,2.66,6.73,60.0,494000000.0,-0.41482681093072593,0.7795195749353487,9.483194849330019,-1.053507256634137,0.22385212297274237,-0.5031912956846465,8.442442337870322,3.540652924716435,7.0200976839791815
10,0.544,-0.958,-1.92,11.2,0.46299999999999997,0.779,-0.622,7.96,1.79,9.54,60.0,544000000.0,-0.6668574479134439,-0.2923811787734121,10.33830958867471,0.049553907926005225,0.5909713869489702,-0.5848007761398246,8.200178891260615,2.8475467608659657,8.279274278995144
11,0.594,-1.67,-1.56,10.3,-0.433,0.447,-0.6459999999999999,7.16,2.46,8.89,60.0,594000000.0,-1.1323139105677242,-0.7957327525054609,10.319228236165339,-0.3014410982895458,0.4957631110139753,-0.626838436861087,7.677841695888348,2.6941066310122967,8.584449855673377
12,0.644,-2.57,-1.3,9.74,0.618,0.0373,-1.03,6.04,3.13,8.24,60.0,644000000.0,-1.7993984710845219,-0.995971824588644,10.030722917577114,0.3673323166907837,0.19258147060680536,-0.9037694022638856,6.855381534758558,2.866690741352057,8.412330501232745
13,0.6940000000000001,-2.37,-1.61,9.07,0.738,1.29,-0.499,6.16,3.07,7.79,60.0,694000000.0,-2.0641569027922966,-1.2397968913904975,9.552200551739336,0.6369446762310003,0.9183042860858726,-0.6257340041196465,6.506187989208824,2.9471876993319492,8.101356164775645
14,0.7440000000000001,-1.08,-2.89,4.98,-2.4,2.01,-1.69,7.32,2.12,4.35,60.0,744000000.0,-1.6075091616682209,-1.895078795800182,7.274853449082191,-1.572036403731298,1.6402426227798248,-1.356776527497602,6.914852712430893,2.6196756216740633,6.226828938798278
15,0.794,-2.21,-6.12,4.02,-4.22,2.99,-3.11,5.51,-0.218,5.34,60.0,794000000.0,-1.887064296773488,-3.5727606398289096,5.653657902326488,-3.498084277840368,2.5328371423226628,-2.5610626465182564,6.209390610198519,1.4961416458503989,5.7836866204228645
16,0.8440000000000001,-6.39,-7.31,7.57,-2.84,2.69,-2.8,0.0468,-0.802,11.1,60.0,844000000.0,-3.9764216941566044,-5.056788326057308,6.608160335805604,-3.0194137659616582,2.6367689732498567,-2.7251882713568936,3.1147780568808963,0.5862276394271824,8.440212484168578
17,0.894,-10.8,-5.44,7.45,-1.34,2.72,-2.05,-5.82,1.42,12.4,60.0,894000000.0,-7.142554989642646,-5.208958635995997,7.027468430742943,-1.7978593948058519,2.6918096676734207,-2.2614025750372027,-1.3719189534194363,0.9163470550769759,10.418891210144308
18,0.9440000000000001,-13.0,-3.51,6.86,-1.66,1.98,-1.01,-9.28,3.27,12.9,60.0,944000000.0,-9.860403358043264,-4.5343157428847745,6.944054888266918,-1.6975846478292727,2.221089968317227,-1.4018162897063675,-5.343048564569809,1.848240013715437,11.658684223807247
19,0.9940000000000001,-13.3,-1.63,7.6,-1.32,1.59,-0.285,-10.3,4.76,14.4,60.0,994000000.0,-11.456372696991753,-3.381035170794589,7.270771636396822,-1.422941119545937,1.8037502131940237,-0.6346770966331605,-7.832236261643316,3.0011070493714627,13.02850090057248
20,1.04,-11.3,-1.42,8.14,0.0302,1.83,-0.0751,-8.99,4.73,15.4,60.0,1040000000.0,-11.383816017360168,-2.602323757117327,7.703721913361423,-0.365970551133022,1.8211092248046068,-0.250304548447604,-8.413619922662212,3.685635847642909,14.213522696696382
21,1.09,-10.5,-3.41,5.85,0.361,1.82,-0.0555,-8.95,2.84,13.2,60.0,1090000000.0,-10.973726308109605,-2.9230455739335373,6.780409727856633,0.16280567533005275,1.8203757291610185,-0.11649363930055814,-8.682968973326084,3.350819198892862,13.707072196266958
22,1.14,-9.67,-5.47,4.41,0.315,1.14,0.517,-8.65,0.877,11.8,60.0,1140000000.0,-10.368798697783589,-3.9344207436023115,5.59974276865238,0.2735071874388761,1.3704432703308242,0.3186520665696789,-8.666413049740852,2.3713482113625606,12.754121272775954
23,1.19,-8.2,-6.45,2.72,0.267,0.9129999999999999,0.601,-7.37,-0.004529999999999999,10.1,60.0,1190000000.0,-9.362478277979342,-4.933337091829837,4.165384461160562,0.2687740501368264,1.0679360411270022,0.5125963844792828,-8.015404941938558,1.4306554738973694,11.427875096915658
24,1.24,-7.76,-6.21,1.34,-0.722,0.0959,0.816,-6.97,0.166,8.75,60.0,1240000000.0,-8.618930136363973,-5.440289747678802,2.7581012446785866,-0.4518848034773896,0.42512863559845704,0.7210037962267544,-7.490443264188956,0.9299344268285488,10.089759105911165
25,1.29,-6.51,-6.21,2.0,-0.0877,-0.172,0.5820000000000001,-6.66,-0.0822,8.92,60.0,1290000000.0,-7.640388861250299,-5.7459355542889465,2.380501953219405,-0.18698787685960394,0.030247482851604945,0.6255223392099911,-7.073426982397349,0.5291952397406385,9.505238466783684
26,1.34,-7.15,-5.9,1.22,-0.20600000000000002,0.0819,0.0587,-5.87,0.2,8.78,60.0,1340000000.0,-7.412848985901209,-5.807113352626189,1.802472689258457,-0.20081671603589424,0.06440529127729053,0.2361730475705105,-6.469112849498854,0.3988554070942849,9.142841599159759
27,1.39,-8.11,-5.66,1.42,0.166,0.48700000000000004,0.14300000000000002,-6.9,0.43799999999999994,9.0,60.0,1390000000.0,-7.736326169238246,-5.748695755094028,1.6119685399973442,0.0659945803559619,0.34386715196403117,0.17217264585885955,-6.685487612081656,0.41435410901819747,9.071464622602308
28,1.44,-8.39,-5.35,0.488,0.11,1.13,0.126,-7.33,0.84,8.02,60.0,1440000000.0,-8.039630303504724,-5.590376818323852,1.0521360305088094,0.09800278116419167,0.8637367777337925,0.1404567361388676,-7.009136547497016,0.5828820966194214,8.546055123645724
29,1.49,-9.79,-3.99,1.45,0.14400000000000002,1.5,0.667,-9.08,2.21,9.01,60.0,1490000000.0,-8.851799997397219,-4.954879974035981,1.2503063567507129,0.1314597519317213,1.2844976276121907,0.5021383964924113,-8.049043334399954,1.2271146264783885,8.777885340439536
30,1.54,-4.89,-4.04,0.40700000000000003,0.341,1.4,0.513,-4.38,2.25,7.91,60.0,1540000000.0,-7.0135288732153676,-4.59158843078684,0.8302676309911838,0.28387293614975007,1.3608793272553803,0.509599221141569,-6.206592987501516,1.6321104876395167,8.344208856454742
31,1.59,-6.81,-3.09,1.07,0.192,0.616,0.48100000000000004,-6.82,3.29,8.51,60.0,1590000000.0,-6.919091662000044,-3.995319628033599,0.9496748910621132,0.21704736331526905,0.8682906481848598,0.4899544695332516,-6.514622141559273,2.2885265364949907,8.427053678780771
32,1.64,-5.21,-2.97,1.12,0.43799999999999994,0.091,-0.48100000000000004,-5.34,3.5,8.49,60.0,1640000000.0,-6.126074933014466,-3.5881734070670337,1.0345113726068116,0.37776157331639004,0.3542683645372685,-0.17699249166716002,-5.924772809918252,2.7681909752745923,8.458507413432146
33,1.69,-9.17,-4.06,-0.6779999999999999,0.243,0.12,-1.21,-9.51,2.53,6.58,60.0,1690000000.0,-7.538453021298848,-3.7755319546605173,0.18153418074994665,0.27974011208804156,0.19934670029301532,-0.8865636005518504,-7.725134131868828,2.673882880510211,7.519829984406646
34,1.74,-9.85,-3.61,1.33,1.23,-0.418,-1.13,-10.4,3.23,8.33,60.0,1740000000.0,-8.611008582904915,-3.7098004963537803,0.7535684556739675,0.970930210508159,-0.20890466252588752,-1.0537796418135557,-9.068347211779361,2.894068978844482,7.924666398344076
35,1.79,-11.6,-4.74,1.5,1.24,-0.853,-1.1,-12.2,2.5,8.09,60.0,1790000000.0,-9.997897656598228,-4.118884397411275,1.125355237767684,1.1666433827732465,-0.6348448801820106,-1.0855283428183622,-10.640940955896522,2.7380433775646815,8.007282551973224
36,1.84,-7.36,-4.73,2.17,1.38,-0.747,-2.47,-8.17,2.89,8.29,60.0,1840000000.0,-8.773915960146516,-4.3615535281616635,1.6456777588331213,1.321832480913268,-0.7090130436927607,-2.03651956515208,-9.400130856951945,2.7982083258972725,8.148554520755962
37,1.89,-4.53,-8.67,1.71,-0.318,0.418,-4.13,-6.55,-1.07,7.57,60.0,1890000000.0,-6.804743483110915,-6.0724032293621955,1.677715758064012,0.1290683141861353,0.03628065679180892,-3.474527757686074,-7.968906442338436,1.2666502218382727,7.85945484352294
38,1.94,-7.2,-14.6,2.33,0.633,-0.622,-0.8440000000000001,-9.95,-7.18,8.15,60.0,1940000000.0,-6.988142005754792,-9.458643925783559,2.0026090892719095,0.4956128775841259,-0.39904030800604634,-1.6676227479490155,-8.963734233212223,-2.077672025356449,8.004638093476574
39,1.99,-5.25,-11.6,1.97,0.33299999999999996,-0.24600000000000002,0.326,-7.9,-4.09,7.67,60.0,1990000000.0,-6.181645929898654,-10.30895946560676,1.9863669866669726,0.3773332289645762,-0.2978347613867041,-0.2982067041522385,-8.429568453801828,-2.874422652478128,7.837421750001157
40,2.04,-4.03,-8.9,2.25,0.542,-0.585,0.16899999999999998,-6.45,-1.21,7.84,60.0,2040000000.0,-5.183284562334828,-9.749472767455817,2.1176787866917905,0.4971068170908979,-0.4877371109136136,0.022716778066455057,-7.435506319020919,-2.2154199064456805,7.838710160254694
41,2.09,-3.23,-8.51,2.32,0.375,-0.191,0.122,-6.29,-1.07,7.71,60.0,2090000000.0,-4.276962573708452,-9.257288125363687,2.2184520305310875,0.40829003938366193,-0.29150486809397463,0.09091425357750439,-6.86027772164236,-1.7619083868096705,7.774394586763289
42,2.14,-3.09,-8.63,2.13,0.121,-0.0867,0.248,-5.21,-0.674,7.46,60.0,2140000000.0,-3.726213139003673,-9.008197068049972,2.174395407384379,0.19932401904525593,-0.1560674148545762,0.19881618012475044,-6.031572659272237,-1.3311676651768551,7.617293766985441
43,2.19,-2.09,-4.55,2.79,1.29,0.332,-1.11,-4.12,3.48,8.04,60.0,2190000000.0,-2.9670119110696005,-7.237882707586536,2.4810191535107426,0.992648462928486,0.16669154365305783,-0.7002074151747917,-5.071655397766461,0.5737407927135907,7.828517180467446
44,2.24,-3.13,-5.6,2.68,-0.9640000000000001,-1.49,-1.61,-5.78,2.34,7.8,60.0,2240000000.0,-3.0426382672560317,-6.587492532675341,2.5801286753367085,-0.43055799300530473,-0.9288785309832146,-1.3251423884185751,-5.427358524284784,1.2730641503885383,7.814267434457847
45,2.29,-3.3,-5.66,2.66,-1.57,-0.8690000000000001,-1.09,-6.06,1.74,8.47,60.0,2290000000.0,-3.1620538204096897,-6.219192597717076,2.6199114724526256,-1.2593534240484734,-0.8892808718999853,-1.163623508735606,-5.745046360347124,1.4579402814565727,8.141932675491871
46,2.34,-2.17,-7.82,2.69,-0.7929999999999999,-0.934,-2.03,-5.15,-0.934,9.0,60.0,2340000000.0,-2.701741918954723,-6.8548604954073475,2.654821585229094,-0.9201421424168421,-0.9188536400673267,-1.7587360124264246,-5.446237343498122,0.510888006205842,8.570703087377492
47,2.39,-2.78,-7.91,4.58,-0.769,-1.31,-1.93,-6.07,-1.61,11.3,60.0,2390000000.0,-2.7380535735744513,-7.273847901874029,3.613725137550355,-0.8102059493719942,-1.1775186783667209,-1.8763769152157874,-5.759466697919455,-0.32884525475185855,9.934514305612135
48,2.44,0.737,-12.0,2.29,-1.13,0.527,-1.23,-2.8,-6.22,9.38,60.0,2440000000.0,-1.1256323490894082,-9.150565139647878,2.954396727343207,-1.0428143930272664,-0.05032052065764714,-1.43238173578454,-4.273337970296609,-2.6613580328940967,9.657427331951652
49,2.49,-0.20600000000000002,-14.8,2.5,-0.897,-0.145,0.0428,-4.09,-9.51,9.81,60.0,2490000000.0,-0.6989238994212752,-11.393910661317149,2.72806827386743,-0.9367534577930591,-0.11293205475935246,-0.4190819347217556,-4.181272871690111,-5.372973445283372,9.733667067194226
50,2.54,-1.8,-13.1,3.75,0.11699999999999999,0.93,0.0288,-5.65,-7.92,11.1,60.0,2540000000.0,-1.2098220383183724,-12.071385258097203,3.2370777213732445,-0.17028530529915342,0.5767588866288713,-0.11143260359936258,-4.918810376847565,-6.381429789003649,10.416414540733992
51,2.59,-0.067,-8.28,-1.19,-0.9129999999999999,0.914,-0.107,-4.39,-3.25,6.04,60.0,2590000000.0,-0.6795538065466806,-10.565856357985918,1.0320141574156225,-0.710513331953124,0.7997764081146264,-0.10838785633478981,-4.653262371591081,-5.141587929013977,8.22954991138258
52,2.64,-0.632,-9.91,-0.44799999999999995,-0.42700000000000005,-0.00489,0.133,-4.97,-5.12,6.93,60.0,2640000000.0,-0.6574889034568664,-10.305420977713638,0.2948404535943301,-0.5042943639281315,0.2676505364770767,0.05742104835803233,-4.812315544800322,-5.133040472499178,7.58017356472801
53,2.69,-0.44799999999999995,-10.3,0.0886,-0.5529999999999999,1.33,-0.214,-5.04,-5.71,7.41,60.0,2690000000.0,-0.5602862773989634,-10.303268426514661,0.19211506057811467,-0.5397213399437344,0.9701822333505493,-0.1290176044998197,-4.926649775288566,-5.361478811919587,7.495138914437053
54,2.74,-0.426,-9.93,-0.6679999999999999,-0.48700000000000004,0.987,-0.0909,-5.48,-5.54,6.5,60.0,2740000000.0,-0.4979775844531892,-10.155046637819813,-0.23629583209024296,-0.5013734355580858,0.9813038143654788,-0.10283468502611236,-5.204520677182506,-5.432161538180359,6.997874760402083
55,2.79,-1.39,-9.93,-0.529,-0.518,0.557,0.00863,-6.76,-5.68,6.49,60.0,2790000000.0,-0.9118750472584742,-10.065682537172627,-0.38208754690924696,-0.5134670967161619,0.7007117023022875,-0.02626978434954487,-5.985621816583599,-5.530289328790747,6.744093079032851
56,2.84,-1.05,-9.62,-0.321,-0.483,0.493,-0.083,-6.55,-5.5,6.68,60.0,2840000000.0,-0.975964858987494,-9.888705517073854,-0.3516607260845474,-0.4913062664665262,0.5633519602474788,-0.06523766984270263,-6.2690306152536195,-5.5182967310714455,6.7120661171449765
57,2.89,-0.915,-9.68,-0.405,-0.364,0.519,-0.278,-6.61,-5.72,6.53,60.0,2890000000.0,-0.9476772380277456,-9.805830344914739,-0.37822824939219574,-0.39870756235387006,0.534022006161367,-0.21138374691926073,-6.440252203427876,-5.598157980671671,6.6210890203026
58,2.94,-1.07,-10.0,-0.541,-0.47700000000000004,0.525,-0.304,-6.97,-6.2,6.31,60.0,2940000000.0,-1.004434896201981,-9.882933563597778,-0.45930251403886135,-0.45565509425123324,0.5280557379897375,-0.27500168532350566,-6.706270771890644,-5.836448072566188,6.4656399219709035
59,2.99,-1.21,-9.7,-0.168,-0.462,0.313,-0.40399999999999997,-7.31,-6.12,6.63,60.0,2990000000.0,-1.099816907431525,-9.810292031332473,-0.3142089338228823,-0.46027019435798416,0.3858393806242107,-0.363610415707419,-7.009440005298958,-5.9487160877901255,6.547769593396587
60,3.04,-1.66,-9.64,-0.38799999999999996,-0.354,0.17800000000000002,-0.32299999999999995,-7.87,-6.26,6.41,60.0,3040000000.0,-1.3597412620020433,-9.742670562598073,-0.3509632048669716,-0.38297249498718233,0.2483952064755901,-0.33571520042866165,-7.44157959997232,-6.071964295312362,6.478926987409926
61,3.09,-1.05,-10.1,-0.278,-0.35,0.313,-0.33,-7.38,-6.89,6.49,60.0,3090000000.0,-1.2160216177123195,-9.88456337872495,-0.31462128387149735,-0.3589893025914723,0.29111835024644195,-0.3317894480807126,-7.410656785037361,-6.395853001890657,6.484459982194482
62,3.14,-0.922,-10.1,0.124,-0.0559,0.37200000000000005,-0.371,-7.41,-6.99,6.8,60.0,3140000000.0,-1.0795958898813733,-9.97011169124451,-0.09615035217716028,-0.138531380160389,0.34460538864604934,-0.35872310325894746,-7.410326896594251,-6.631096352405079,6.642133280452155
63,3.19,-2.27,-10.6,0.20600000000000002,0.35,0.337,0.0496,-8.92,-7.56,6.74,60.0,3190000000.0,-1.631942145211698,-10.22023545753066,0.054346378684476115,0.21681145408141508,0.33957595356024495,-0.07824666418467435,-8.168425863243115,-6.998881560071319,6.691036500880364
64,3.24,-3.18,-12.3,0.613,0.769,-0.633,0.523,-9.79,-9.01,7.06,60.0,3240000000.0,-2.350239404463708,-11.046093416453763,0.3326036746299032,0.6184565706538937,-0.30358850619797884,0.3347486377625,-8.98271710523582,-7.795153320579591,6.875405025861236
65,3.29,-3.15,-11.6,1.03,1.92,-1.72,0.858,-9.31,-7.62,7.57,60.0,3290000000.0,-2.721327530003688,-11.26604544672817,0.6799667074322443,1.5651595671204288,-1.2402614036586228,0.6941690860652935,-9.14706601582779,-7.725803989669475,7.222489500764414
66,3.34,-0.45299999999999996,-11.5,0.5529999999999999,2.51,-1.6,0.7190000000000001,-5.83,-6.54,7.12,60.0,3340000000.0,-1.6688259286726603,-11.358946930612918,0.6167264091411685,2.2524076982905443,-1.4781565424398029,0.7112253857390144,-7.481364849139715,-7.256302972404459,7.171276136415901
67,3.39,-0.508,-11.5,-1.04,1.58,-0.682,0.621,-5.31,-5.72,5.29,60.0,3390000000.0,-1.1302039173228324,-11.41495797749916,-0.20846509162516813,1.7633188605097205,-0.951658232408923,0.6492497177213943,-6.390990115148148,-6.648027161261704,6.231215214389395
68,3.44,-1.88,-10.8,-0.606,1.28,-1.03,0.8170000000000001,-6.27,-4.38,5.42,60.0,3440000000.0,-1.478108514601794,-11.170763153684362,-0.40647149660998416,1.4117674290714615,-1.0034656220567588,0.7644770790849483,-6.330233590516523,-5.750036447207764,5.8258565217152265
69,3.49,-2.06,-9.56,-0.0287,0.545,-2.27,0.603,-5.71,-2.75,6.01,60.0,3490000000.0,-1.7481055297167272,-10.531142141447539,-0.21830896478807135,0.7813072269017903,-1.8410247557438315,0.6535587407387601,-6.018776500694047,-4.562217776706336,5.917871881014955
70,3.54,-1.43,-8.44,0.536,-0.13699999999999998,-2.05,0.703,-4.16,-1.42,6.83,60.0,3540000000.0,-1.600504871728099,-9.700766137986298,0.1574014534259732,0.11335853824723796,-1.9792200469947563,0.6875198630043723,-5.085371390877908,-3.318104560547653,6.373656066459
71,3.59,-0.917,-8.97,0.584,-0.273,-1.4,0.6709999999999999,-2.83,-1.92,7.13,60.0,3590000000.0,-1.2833593229103015,-9.41058484920667,0.36988402988078894,-0.16766689009274988,-1.596181831452774,0.6761724001094672,-3.9528118398018064,-2.764546368662015,6.751596048227147
72,3.64,-0.764,-9.27,0.728,-0.368,-1.7,0.79,-1.9,-2.27,7.5,60.0,3640000000.0,-1.0423771386852159,-9.354759910587441,0.5482564200394524,-0.3133830898714479,-1.6648368147450723,0.7543603976482933,-2.921969818178053,-2.568738269954411,7.12556841786891
73,3.69,-0.747,-9.43,1.65,-0.44799999999999995,-1.11,0.77,-1.13,-2.52,8.6,60.0,3690000000.0,-0.9053224450068623,-9.384637270132606,1.0970189884698955,-0.41129933808390645,-1.29792325518803,0.765103200532007,-2.022112491897761,-2.549441087838669,7.86233205199615
74,3.74,-1.61,-9.66,2.39,-0.204,-1.37,0.569,-1.32,-2.85,9.44,60.0,3740000000.0,-1.232292101399286,-9.493981549514388,1.7410342263589738,-0.2605161139617125,-1.345587607532457,0.6304002529385319,-1.6695390197234996,-2.6684427668029005,8.650681796409147
75,3.8,-1.02,-8.87,1.9,-0.262,-1.49,0.40299999999999997,-0.0514,-2.1,8.92,60.0,3800000000.0,-1.1337887791565675,-9.246203416164834,1.8202127726439,-0.2615954434578637,-1.441087524664052,0.47419940792224075,-0.8569727394980584,-2.4433764862156666,8.785258310974278
76,3.85,-0.321,-8.72,1.81,-0.45399999999999996,-1.26,0.32,1.27,-2.07,8.84,60.0,3850000000.0,-0.7566556388057095,-9.037252349832025,1.8151259094476653,-0.40154465183606614,-1.321334343706453,0.36828009463469413,0.21110997080414395,-2.2955437353297823,8.812612437283073
77,3.9,-1.16,-8.84,2.63,-0.45399999999999996,-0.863,0.375,0.91,-2.37,9.71,60.0,3900000000.0,-0.9438069857757317,-8.958925078286189,2.221002993272097,-0.43969907080805937,-1.0182378398226355,0.37289598608477026,0.5620652874521512,-2.3250235123032708,9.26103092410056
78,3.95,-2.98,-8.89,3.29,-0.518,-0.735,0.48700000000000004,-0.486,-2.62,10.4,60.0,3950000000.0,-1.8885984272132945,-8.931555616718043,2.7534549589449804,-0.49665278544013924,-0.8309326742686858,0.4512738293420935,0.03576779262579355,-2.4418149078998677,9.830165841940948
79,4.0,-2.61,-8.25,3.24,-0.573,-0.8059999999999999,0.528,0.336,-2.2,10.4,60.0,4000000000.0,-2.2233279550872083,-8.660915326723245,2.9957960283681198,-0.5521854327882808,-0.8144446937355957,0.5039769021798788,0.18653269048018645,-2.3460720024972432,10.114907908345353
80,4.05,-0.529,-8.09,0.836,-1.35,-0.21600000000000003,-0.22899999999999998,2.75,-2.37,8.09,60.0,4050000000.0,-1.4371615456927596,-8.434209472497493,1.920032802559021,-1.1324914539700988,-0.41869323934994424,0.0004963259134592723,1.4738059523471638,-2.3555458828138907,9.103075261106156
81,4.1,-1.15,-13.9,3.39,-0.5820000000000001,-0.52,-0.195,2.01,-8.59,11.0,60.0,4100000000.0,-1.3039188772573989,-10.604631069631786,2.6522023059464277,-0.7320807583415503,-0.48568738452832805,-0.1337897595645803,1.7430616771524168,-4.823982954275927,10.050955664404082
82,4.15,-2.07,-13.1,4.57,0.424,0.22,0.16699999999999998,1.29,-7.84,12.1,60.0,4150000000.0,-1.659379687360571,-11.595522286187235,3.6074297512765297,0.10881715159341643,-0.019016339008136263,0.07282220655082963,1.5155517612215053,-6.018128959416196,11.074849387209476
83,4.2,0.0335,-7.69,-1.01,-0.983,0.381,-0.528,3.14,-2.44,6.67,60.0,4200000000.0,-0.8738852795932524,-10.044670612895292,1.307554621032272,-0.6853373585633452,0.2455144620697644,-0.3398815329015238,2.3312863369428953,-4.601423399240535,8.87377611546126
84,4.25,-1.98,-9.21,-0.6729999999999999,-0.695,-0.36700000000000005,-0.31,1.07,-4.18,7.17,60.0,4250000000.0,-1.387121363804943,-9.713229596404538,0.32106895231053056,-0.692365664285524,-0.15954134238711443,-0.31935596092810203,1.6979175775461945,-4.434567164486262,8.02241080506049
85,4.3,-1.38,-10.3,0.168,-0.444,-0.265,-0.275,1.7,-5.44,8.1,60.0,4300000000.0,-1.3838170562224281,-9.94623151131015,0.2448275146426446,-0.5117120528632995,-0.2292811400563175,-0.2888879316680263,1.6989633127957577,-4.8326529820894075,8.061181789206856
86,4.34,-0.6779999999999999,-10.1,-0.496,-0.397,0.0281,-0.0971,2.44,-5.32,7.49,60.0,4340000000.0,-1.0563186666968294,-10.007291901088108,-0.12416797708778035,-0.42827401206144405,-0.05907499936627636,-0.15714912892297048,2.071083052187932,-5.025610668096445,7.775766015685895
87,4.39,-1.35,-9.9,-0.22699999999999998,-0.43700000000000006,0.49700000000000005,0.13,1.64,-5.24,7.87,60.0,4390000000.0,-1.1925865097760355,-9.96468699291424,-0.17538712300438886,-0.43462103445723876,0.3086573869374028,0.04009311111290925,1.8546099561280214,-5.110494763274112,7.822854040185912
88,4.44,-0.7659999999999999,-9.34,-0.848,-0.528,-0.129,-0.0506,2.14,-4.86,7.37,60.0,4440000000.0,-0.9946508020324818,-9.71662883966187,-0.5104058870303252,-0.5025420463108387,0.019234574522741965,-0.02220383090395712,1.9979217535344012,-5.011315235516755,7.596565896053672
89,4.49,-0.8140000000000001,-10.0,-0.6940000000000001,-0.564,-0.151,-0.205,2.14,-5.67,7.59,60.0,4490000000.0,-0.9108290233765358,-9.829153263390303,-0.6018514685020435,-0.5472446966044218,-0.09334153995163652,-0.14776620416884137,2.0692679580010034,-5.27211145103594,7.593285038655015
90,4.54,-0.7659999999999999,-9.91,-0.615,-0.488,-0.0635,-0.278,2.18,-5.71,7.74,60.0,4540000000.0,-0.8436284951361136,-9.861256795967899,-0.6084005670733426,-0.5041519136872123,-0.07360733181319862,-0.23722357280761375,2.1248733024899495,-5.445486757810656,7.666597393608018
91,4.59,-0.9840000000000001,-9.98,-0.273,-0.42200000000000004,0.389,-0.267,1.86,-5.89,8.17,60.0,4590000000.0,-0.9087607394408129,-9.908408591795826,-0.44134238500244605,-0.44439710855277625,0.23231488195001898,-0.25767694244562195,1.9918642719488138,-5.621484942852092,7.918144293757491
92,4.64,-0.8909999999999999,-9.86,0.10099999999999999,-0.29600000000000004,0.345,-0.29100000000000004,1.73,-5.83,8.65,60.0,4640000000.0,-0.9005197622731075,-9.889185790431616,-0.17120946664808478,-0.33645757677292565,0.3068335463620478,-0.2805664993236541,1.8603662615340348,-5.704043268957799,8.283847426927595
93,4.69,-1.32,-9.65,-0.105,-0.34700000000000003,0.35600000000000004,-0.26,1.11,-5.68,8.53,60.0,4690000000.0,-1.0951581789319524,-9.79420687258799,-0.13823148500306892,-0.34412581624283567,0.3393473247834627,-0.26643939972240827,1.4835616098506899,-5.69452363538897,8.40684806176637
94,4.74,-1.4,-9.78,-0.33299999999999996,-0.39299999999999996,0.359,-0.297,0.8140000000000001,-5.88,8.39,60.0,4740000000.0,-1.2366044545560733,-9.788565330956505,-0.235242874178481,-0.3796754129870309,0.3523436365827724,-0.2874314173242165,1.1473338995036366,-5.767960218121765,8.39842937133256
95,4.79,-1.2,-10.2,-0.14400000000000002,-0.287,0.24100000000000002,-0.327,0.81,-6.34,8.66,60.0,4790000000.0,-1.2196200479863821,-9.951942675067473,-0.1897961119906748,-0.31226614208844616,0.27871209082927856,-0.3146110033777314,0.97793797841245,-5.994450704616918,8.529134360978956
96,4.84,-1.76,-10.7,0.0023899999999999998,0.0101,0.17800000000000002,-0.19699999999999998,0.0895,-6.89,8.85,60.0,4840000000.0,-1.470355777078731,-10.248990186328301,-0.09407098261032017,-0.07778683430372674,0.21211119022197555,-0.2338242050939853,0.5317990918773818,-6.349029735084894,8.689468931281807
97,4.89,-2.18,-12.2,-0.441,0.38299999999999995,-0.129,0.077,-0.389,-8.27,8.38,60.0,4890000000.0,-1.7996299865417664,-11.023720519674974,-0.2668713276356626,0.25737545721110366,-0.01346562518876937,-0.020319592923182028,0.06940971625248982,-7.109608791385423,8.534829466204068
98,4.94,-2.33,-11.8,0.364,1.0,-0.633,0.594,-0.324,-7.63,9.03,60.0,4940000000.0,-2.045721083620637,-11.331974974835058,0.04735657424215273,0.7975379191293399,-0.42316369946621146,0.4016554675574796,-0.1281452937285063,-7.315649798009717,8.782262684054377
99,4.99,-0.867,-9.96,1.28,1.91,-0.6609999999999999,0.7979999999999999,1.59,-5.35,9.58,60.0,4990000000.0,-1.4987957240143532,-10.78717468910215,0.6613184647573378,1.6067089116570288,-0.5804448467339456,0.6739038308728247,0.7346402512141239,-6.537380705580647,9.180886562452287
100,5.04,0.204,-9.57,0.271,2.26,-0.305,0.5820000000000001,3.02,-4.2,7.98,60.0,5040000000.0,-0.7087002877503341,-10.303844223699977,0.46690646823234416,2.0818929341941157,-0.3982931825467708,0.6107752591360447,1.8822587376606597,-5.611930392701614,8.580811716195221
101,5.09,-0.716,-10.9,-0.8809999999999999,1.34,-0.737,0.433,2.41,-4.83,6.18,60.0,5090000000.0,-0.712087356126299,-10.540572767902676,-0.2044662860909855,1.5422626463514904,-0.6222799832428755,0.4886617379216901,2.1472698513807575,-5.302336950604829,7.381142328241017
102,5.14,-1.56,-11.3,0.273,0.568,-0.7759999999999999,0.515,1.95,-4.93,6.9,60.0,5140000000.0,-1.1055179110181068,-10.842135329935427,0.03335278268030384,0.8336137002950663,-0.7239350408684435,0.5067534350658126,2.048208653007014,-5.1549157464523905,7.140718823613298
103,5.19,-1.19,-9.7,0.804,0.39299999999999996,-1.36,0.501,2.82,-3.33,7.08,60.0,5190000000.0,-1.1447175386472164,-10.388602439962277,0.4172010520635356,0.51312472667927,-1.1445647888017914,0.5028014015604397,2.4357721203077576,-4.432368162615836,7.110378001886525
104,5.24,-0.826,-8.91,0.879,-0.0186,-1.17,0.423,3.72,-2.54,6.78,60.0,5240000000.0,-0.9968329219864595,-9.801461164006236,0.6472164488490166,0.12636436405475077,-1.1613850648274586,0.4479859613383606,3.0806612680499206,-3.6831138385820883,6.945290463949542
105,5.29,-0.342,-8.93,1.41,-0.0785,-0.927,0.262,4.62,-2.64,7.06,60.0,5290000000.0,-0.6929911334433685,-9.455411019648668,1.0271479129764884,-0.022647733294174882,-1.006386219313894,0.32023252026759086,3.8536570600852023,-3.2701088667684,7.002610011122973
106,5.34,0.302,-8.66,1.63,-0.0877,-0.609,0.155,5.55,-2.42,7.07,60.0,5340000000.0,-0.23131629282365285,-9.139559598225695,1.3274198366965781,-0.06996477109238283,-0.7435947423261525,0.20673458679774753,4.705494392641657,-2.9335212582335854,7.0362844164590035
107,5.39,-0.0431,-9.0,2.06,-0.1,-0.325,0.074,5.38,-2.81,7.4,60.0,5390000000.0,-0.14398412920677447,-9.0841415968053,1.692307417261492,-0.0918114823995433,-0.4667780438466818,0.1155594278304362,5.04420484836856,-2.8846148775001885,7.218030669929523
108,5.44,-1.07,-9.36,2.99,0.0058,-0.182,0.0923,4.41,-3.19,8.28,60.0,5440000000.0,-0.57365455072871,-9.193682628365798,2.3386693732858665,-0.020811864737336053,-0.27845432951384075,0.09958256530865017,4.725731842201578,-3.005527481246649,7.7486893951422315
109,5.49,-1.47,-8.94,2.41,-0.155,-0.63,0.0386,4.14,-2.77,7.58,60.0,5490000000.0,-0.989557916581099,-9.092947116855589,2.3741981719856007,-0.1184162259875221,-0.5109314677517577,0.057693746990686794,4.431600097997304,-2.9122739600912064,7.664396412432607
110,5.54,-1.3,-8.83,2.84,-0.304,-0.86,0.185,4.49,-2.71,7.85,60.0,5540000000.0,-1.1336026970261204,-8.988532887317007,2.606207298792394,-0.2534042006725692,-0.7417704871602323,0.14514019509781878,4.460926135209121,-2.8321866860634084,7.7571412163949365
111,5.59,-2.38,-8.87,3.18,-0.493,-0.0354,0.462,3.66,-2.91,8.1,60.0,5590000000.0,-1.711929797328689,-8.941464379358411,2.8920051973564225,-0.42767888425667616,-0.27464770475082934,0.36279065920981335,4.058732323620888,-2.862995714781974,7.928465611613164
112,5.64,-1.93,-8.65,3.44,-0.449,-0.22899999999999998,0.355,4.25,-2.92,8.45,60.0,5640000000.0,-1.8131141193408535,-8.825726051540588,3.164953530129129,-0.4431872148090781,-0.24446088038167485,0.35743926141396953,4.15477948784565,-2.885565722212035,8.189072706595901
113,5.69,-0.541,-9.48,1.83,-0.978,-0.0648,-0.20800000000000002,5.74,-3.92,6.9,60.0,5690000000.0,-1.2228545001782343,-9.085532827267093,2.5000324599670503,-0.8321937262886514,-0.12565114666359045,-0.030959998727776494,4.9508152622234975,-3.2951342260647762,7.544931881417949
114,5.74,-0.493,-13.7,3.12,-0.355,-0.111,0.00863,5.76,-8.27,8.4,60.0,5740000000.0,-0.8842027744769003,-10.917900797753676,2.8088292892488385,-0.48509754383376763,-0.1159623447586095,-0.0037656965828878897,5.357156379824533,-5.26485662685726,7.972203419862697
115,5.79,-0.843,-10.9,2.71,-0.0535,0.927,0.0129,5.37,-5.52,8.07,60.0,5790000000.0,-0.8650847277061385,-10.910792382508564,2.759603865265624,-0.17116664309849727,0.5737486135305927,0.007681942067780572,5.363605887278489,-5.365876746096108,8.021071553980457
116,5.84,-0.335,-8.07,-0.51,-0.711,0.20199999999999999,-0.33899999999999997,5.59,-2.77,5.23,60.0,5840000000.0,-0.619125971389968,-9.782736303223025,1.1310613612906157,-0.5638249945793188,0.32791127115871643,-0.23045327913928346,5.477292253900188,-4.33807893688644,6.626392072029205
117,5.89,-1.84,-10.1,0.11,-0.46299999999999997,0.221,-0.313,3.96,-4.83,6.01,60.0,5890000000.0,-1.1856102614240258,-9.908719333859748,0.6224854296573489,-0.4904879656846127,0.2572108512869071,-0.2871544754546533,4.715367304623624,-4.532847548147702,6.318385256106301
118,5.94,-1.14,-10.1,-0.19899999999999998,-0.491,0.243,-0.191,4.5,-4.84,5.87,60.0,5940000000.0,-1.1644471411079187,-9.984675509593371,0.21331538974496705,-0.49086040141419524,0.2478132162283759,-0.2211061312205293,4.607218247410063,-4.654459936752769,6.09433013301532
119,5.99,-1.07,-10.0,-0.184,-0.40399999999999997,0.9740000000000001,-0.126,4.38,-4.84,6.12,60.0,5990000000.0,-1.120623790584906,-9.990760742296233,0.015418326731734294,-0.4276808026137094,0.728040499508184,-0.15577789447737622,4.493118166595182,-4.727921755092658,6.107157133947327
120,6.04,-1.54,-9.82,-0.23,-0.42200000000000004,0.723,0.0215,3.55,-4.71,6.42,60.0,6040000000.0,-1.3152138961778241,-9.922952894669383,-0.10682100279180096,-0.4235487533175872,0.7247072107120097,-0.03400601283738912,4.0195209978259925,-4.720825924635218,6.263482626614655
121,6.09,-1.02,-9.5,-0.654,-0.39,0.373,-0.0616,3.9,-4.48,6.19,60.0,6090000000.0,-1.1782349477374647,-9.755001679449897,-0.37936295830989164,-0.39914640210341124,0.49212324009391395,-0.052960274981360245,3.959502264059523,-4.625474580743085,6.22676388596849
122,6.14,-1.15,-9.83,-0.56,-0.369,0.494,-0.195,3.57,-4.87,6.46,60.0,6140000000.0,-1.165133950405118,-9.784782883032854,-0.46933566358180157,-0.3772188190410133,0.4933643333227705,-0.15052711314760425,3.7639093910655013,-4.722290645341509,6.343310406480166
123,6.19,-1.29,-9.92,-0.591,-0.35,0.332,-0.23399999999999999,3.22,-5.0,6.59,60.0,6190000000.0,-1.2230716493429075,-9.838476550136185,-0.5299349242902255,-0.35742067519283816,0.3866540961603359,-0.20786449391173784,3.490779331412453,-4.832245428305322,6.466579596467328
124,6.24,-1.04,-9.88,-0.39299999999999996,-0.289,0.36700000000000005,-0.311,3.27,-4.97,6.91,60.0,6240000000.0,-1.1381265774948603,-9.85496522576205,-0.46172961763731163,-0.3076535643826223,0.3736568519435798,-0.2787080886425968,3.3799125559332115,-4.886787166671162,6.688153683028665
125,6.29,-0.943,-9.8,-0.247,-0.34700000000000003,0.498,-0.22399999999999998,3.12,-4.9,7.21,60.0,6290000000.0,-1.0475880578999777,-9.833139049505203,-0.35477589036146884,-0.336272964700838,0.45588496935862766,-0.24112920129632237,3.2493945541039877,-4.892018624246299,6.948916760976364
126,6.34,-1.27,-9.48,-0.35200000000000004,-0.36700000000000005,0.369,-0.23800000000000002,2.89,-4.94,7.35,60.0,6340000000.0,-1.1507869579614403,-9.692910172636585,-0.35339325847525305,-0.35862288369630235,0.3984279336761901,-0.23897976206879903,3.068920684513277,-4.911016140752196,7.149335282686686
127,6.39,-1.67,-10.0,-0.429,-0.43,0.43700000000000006,-0.366,1.92,-5.02,7.2,60.0,6390000000.0,-1.3917012474383406,-9.814853089536454,-0.39105188064291857,-0.4105404281744042,0.42393564424090097,-0.32622974297970975,2.4919775236111543,-4.954166629894581,7.174652002375884
128,6.44,-1.39,-10.1,-0.261,-0.28300000000000003,0.19899999999999998,-0.392,1.94,-4.91,7.39,60.0,6440000000.0,-1.3909118637656843,-9.928082800930614,-0.3262749190727089,-0.31777140179778934,0.27518571005426123,-0.3714072124861324,2.214795976961777,-4.936679466064461,7.282259866882249
129,6.49,-1.72,-9.97,-0.136,-0.153,0.21600000000000003,-0.287,1.45,-4.73,7.52,60.0,6490000000.0,-1.5436084286488105,-9.944727891811517,-0.23150173100870272,-0.19792170324085556,0.23604620546850996,-0.3134280435755099,1.830745301968472,-4.854847891593663,7.401056986535916
130,6.54,-1.54,-10.6,-0.302,0.0327,0.34299999999999997,-0.187,1.44,-5.29,7.4,60.0,6540000000.0,-1.5419341038232088,-10.204931362044347,-0.26661589469794855,-0.030174505310814448,0.3067747431286395,-0.2265848420790856,1.6345282860939823,-5.027139716262161,7.400528865200111
131,6.59,-2.43,-12.0,-0.613,0.40700000000000003,-0.382,0.321,0.47600000000000003,-6.68,7.07,60.0,6590000000.0,-1.9539957833846826,-10.917738776171882,-0.43914480751817286,0.28781291134930226,-0.1487119734544795,0.14955025186359003,1.0527605896036913,-5.6815644658943905,7.235365922828593
132,6.64,-1.38,-11.6,0.6920000000000001,1.28,-0.836,0.8170000000000001,1.91,-6.03,8.08,60.0,6640000000.0,-1.687662336997278,-11.188659408591104,0.1242620859958099,1.0094995432267877,-0.6032155415912084,0.6080203177999115,1.4832327571075972,-5.819522283865657,7.6574237941691985
133,6.69,0.163,-10.4,0.903,2.18,-0.409,0.6629999999999999,3.95,-4.38,7.69,60.0,6690000000.0,-0.828956943766827,-10.875488907088803,0.5121402032580138,1.8608859545785383,-0.47478081588746657,0.6457857585275126,2.7219470424875416,-5.249565438496369,7.673701931475255
134,6.74,0.354,-10.1,-0.192,1.95,-0.304,0.262,4.41,-3.54,5.82,60.0,6740000000.0,-0.28006615600235363,-10.567548609462277,0.16141812710436737,1.92570483026844,-0.3618434609782789,0.3821639766039045,3.5696212969355106,-4.572689064713766,6.747419757143412
135,6.79,-1.02,-10.9,-0.414,1.11,-0.759,0.256,3.22,-3.87,4.95,60.0,6790000000.0,-0.6233946781937361,-10.699562248989581,-0.12518934165134654,1.3323860046683502,-0.6244830705769409,0.2955021661870506,3.394055137451519,-4.294470002630001,5.849261221826876
136,6.84,-1.89,-10.0,0.29,0.402,-1.08,0.429,2.71,-2.85,5.16,60.0,6840000000.0,-1.211098218397081,-10.421771669186791,0.08161047457173196,0.6556515844462211,-0.9257164307772745,0.3872015921583181,3.0505493569376068,-3.722554100415112,5.504841996244457
137,6.89,-1.11,-8.95,0.747,-0.14300000000000002,-1.31,0.48100000000000004,3.9,-1.83,5.26,60.0,6890000000.0,-1.164188757256208,-9.837342822582238,0.413031385943867,0.07473675492115162,-1.1798431057851833,0.45163156160935897,3.4771103740385825,-2.9732261892413137,5.382496228680061
138,6.94,-0.575,-9.25,0.706,-0.275,-1.03,0.505,4.86,-2.26,4.93,60.0,6940000000.0,-0.8908057835367955,-9.604113680409705,0.5589548106850664,-0.179651107176244,-1.0807518454855614,0.48829024697311857,4.171543653867042,-2.6908351549631,5.156386851933457
139,6.99,-0.14400000000000002,-9.29,1.15,-0.235,-0.92,0.513,5.22,-2.44,4.74,60.0,6990000000.0,-0.5442886768479661,-9.47938163243556,0.8533458795160241,-0.21991020469797185,-0.9744466659045197,0.5052633417348137,4.698037417028719,-2.591520824101197,4.948321056807922
140,7.04,0.0311,-9.51,1.55,-0.0492,-0.45799999999999996,0.436,6.12,-2.86,5.39,60.0,7040000000.0,-0.27730893187435485,-9.491540032451919,1.2003392212735093,-0.09574080279043005,-0.6329205040069767,0.4576864640914628,5.4120914868114065,-2.6978210170415573,5.169024957000374
141,7.09,-0.735,-9.65,2.08,0.0834,-0.384,0.294,5.53,-3.08,5.79,60.0,7090000000.0,-0.4896771162416974,-9.554463068043955,1.638485524678989,0.03456076070621873,-0.4683093843501609,0.34525051297013376,5.4713006469560215,-2.8491389256057778,5.479321947686943
142,7.14,-1.29,-9.28,2.47,0.124,-0.45399999999999996,0.0691,5.1,-2.71,5.97,60.0,7140000000.0,-0.8610260809790546,-9.445475870557821,2.052650901304361,0.09961613635125185,-0.4588465863841855,0.15556320003577523,5.284847901516535,-2.7940490054582443,5.724510331657271
143,7.19,-1.62,-8.63,2.52,0.0107,-0.585,0.0337,4.84,-2.02,5.8,60.0,7190000000.0,-1.2131891891638833,-9.121656963185352,2.2854307345629703,0.03494124869901109,-0.5422718208499526,0.0718555776420663,5.061462719005733,-2.4875761010780484,5.762232101319624
144,7.24,-1.58,-8.12,2.7,-0.24100000000000002,-0.315,0.1,4.98,-1.54,5.83,60.0,7240000000.0,-1.3833890423131245,-8.723906940568687,2.491921727677594,-0.16577000423009425,-0.39197697093420575,0.09118793402884678,5.020555329598876,-2.1123977825143765,5.796095221715075
145,7.29,-2.03,-8.83,3.42,-0.174,-0.21100000000000002,-0.00848,5.01,-1.58,5.85,60.0,7290000000.0,-1.6834158382707707,-8.766035616524693,2.954184162037162,-0.17175624871303827,-0.27229690246584204,0.022726201169479918,5.015254969856078,-1.9016030183984016,5.8230310255115265
146,7.34,-2.0,-8.31,3.22,-0.31,-0.225,0.0386,4.64,-1.79,6.3,60.0,7340000000.0,-1.8303105587639639,-8.584947683402907,3.0865832097648225,-0.2723105423368253,-0.24101945833636318,0.03362988733313054,4.826816498589426,-1.8574154904858644,6.061369276588483
147,7.39,-0.225,-10.2,1.18,-1.0,0.622,-0.37,6.36,-3.72,4.45,60.0,7390000000.0,-1.085448132855077,-9.22627197885053,2.136941596623468,-0.8016096784616915,0.3296952698070159,-0.2436227920818962,5.596721498525096,-2.594877427600184,5.256178902278175
148,7.44,-1.71,-15.6,3.85,0.183,-0.20199999999999999,0.0282,4.71,-9.07,7.44,60.0,7440000000.0,-1.3752395648086797,-11.75722860354894,2.9901912224128937,-0.08543460424779759,-0.02191480088489106,-0.05690818285455898,5.151444579084991,-5.1586033216461615,6.347419495346889
149,7.49,-0.596,-8.52,-0.278,-0.6779999999999999,1.25,-0.00848,5.83,-2.06,3.35,60.0,7490000000.0,-1.01367322765177,-10.471751171239703,1.3623523321349646,-0.5164485960438624,0.8192024189460685,-0.0236429474680762,5.492188597385442,-3.9317585780357227,4.849629291948422
150,7.54,0.0886,-8.14,-0.429,-0.541,0.268,-0.45,6.2,-1.71,3.75,60.0,7540000000.0,-0.5022195998831669,-9.545831547391714,0.470105587488605,-0.5343065453528686,0.4546922801770236,-0.316506866147155,5.847623770722241,-3.0520871735492543,4.3001520062348675
151,7.59,-2.35,-10.7,0.723,-0.33899999999999997,0.6759999999999999,-0.132,3.56,-4.29,5.15,60.0,7590000000.0,-1.3595877319981935,-10.004142542759007,0.5960686404020115,-0.39224650626190705,0.601043068054462,-0.1897694162974029,4.698868342484681,-3.5422198596932075,4.724815322049226
152,7.64,-0.943,-10.1,-0.28,-0.419,-0.0635,-0.153,4.83,-3.6,4.32,60.0,7640000000.0,-1.166291467943906,-10.04220692463861,0.15971149067091828,-0.41170618215603605,0.1615807556608947,-0.1645125654503795,4.764717506102153,-3.5650969871445297,4.522531941932363
153,7.69,-1.64,-10.0,-0.225,-0.433,0.951,0.0544,4.0,-3.63,4.6,60.0,7690000000.0,-1.3860917255758416,-10.025446892083984,-0.031907748926117835,-0.42719465514070865,0.6836236619637893,-0.01414189985698161,4.380706212167886,-3.590794390403858,4.561242156534635
154,7.74,-1.09,-9.75,-0.244,-0.361,0.33399999999999996,0.0624,4.37,-3.44,4.9,60.0,7740000000.0,-1.2487054895490677,-9.91606913196699,-0.13754784030829453,-0.3790466812269386,0.4524175390749948,0.038434598486710506,4.375329912682752,-3.531089674306904,4.7305171968656765
155,7.79,-1.26,-9.52,-0.522,-0.32799999999999996,0.16899999999999998,-0.0451,4.14,-3.26,4.75,60.0,7790000000.0,-1.253946126180533,-9.758793425898551,-0.3290379212179261,-0.34191688747284815,0.2649935287931897,-0.018945173526607108,4.257156345554149,-3.4237558490297095,4.740252621215251
156,7.84,-1.38,-9.88,-0.297,-0.425,0.0464,-0.11599999999999999,3.94,-3.65,5.1,60.0,7840000000.0,-1.3124349898059449,-9.806923633517375,-0.3130802904164398,-0.402349020347417,0.12043763434178323,-0.08561196479020156,4.09789283230833,-3.513333807372047,4.920015894422277
157,7.89,-1.47,-9.68,-0.294,-0.445,-0.088,-0.22699999999999998,3.78,-3.48,5.2,60.0,7890000000.0,-1.3855450032956613,-9.756523393908338,-0.30357667294755625,-0.43337203801163376,-0.017402166706725425,-0.18273116194933425,3.9382594410498655,-3.500135802349,5.05992195430789
158,7.94,-1.33,-9.88,-0.223,-0.359,0.0428,-0.239,3.85,-3.69,5.35,60.0,7940000000.0,-1.359772199674327,-9.805555013093672,-0.26344259721405966,-0.3792760820444297,0.022409525528472654,-0.2213821250549762,3.893938945558139,-3.5753096579890085,5.204871935139459
159,7.99,-1.0,-9.71,-0.254,-0.359,0.174,-0.278,4.04,-3.51,5.43,60.0,7990000000.0,-1.1928382746677362,-9.76761089599498,-0.25873937982497897,-0.36452787594464675,0.12265629845724291,-0.26027284411529544,3.967285088955125,-3.5494512913269864,5.317366813731043
160,8.04,-1.82,-10.0,-0.28300000000000003,-0.363,0.331,-0.33299999999999996,3.05,-3.78,5.53,60.0,8040000000.0,-1.4838406847328405,-9.8598907524833,-0.27082324088166176,-0.3634165495311444,0.2604339822215601,-0.31022900548908544,3.506660283825715,-3.640733524545492,5.423618277005172
161,8.09,-1.35,-9.75,-0.584,-0.24,0.529,-0.335,3.27,-3.5,5.4,60.0,8090000000.0,-1.421738757824,-9.816254012662945,-0.426812061548674,-0.27364710845733276,0.43803667134995783,-0.3272441647919439,3.3878187136850966,-3.58501223216713,5.411816432115427
162,8.14,-1.63,-10.1,-0.0215,-0.205,0.39799999999999996,-0.266,2.74,-3.79,6.11,60.0,8140000000.0,-1.5183717545331832,-9.928927428676488,-0.2249319722344558,-0.22371529239519167,0.4115604230435225,-0.285175655020354,3.062509436952522,-3.6661739969754312,5.760694083868767
163,8.19,-2.18,-11.0,-0.44299999999999995,0.0363,0.5670000000000001,-0.20800000000000002,1.95,-4.66,5.8,60.0,8190000000.0,-1.8253666005913878,-10.354241789233493,-0.3335485048162316,-0.03458809247412095,0.5143525920369898,-0.23216383312887062,2.503850629382257,-4.059664183227789,5.780335078402916
164,8.24,-3.08,-13.0,-0.96,0.11199999999999999,0.0299,0.0147,0.8740000000000001,-6.59,5.34,60.0,8240000000.0,-2.4075151525394918,-11.404851235995917,-0.6455749449163583,0.07203562142676344,0.19398410706323727,-0.06259349016534974,1.6854032430332113,-5.061512114056981,5.560302707845559
165,8.29,-0.8740000000000001,-12.0,0.9670000000000001,0.496,-0.49700000000000005,0.424,3.22,-5.6,7.15,60.0,8290000000.0,-1.6959657288958012,-11.641180055140174,0.1576253713741922,0.3804143847477764,-0.2629636681304819,0.271646738782264,2.456017872088241,-5.27471814096311,6.354663691130842
166,8.34,0.41700000000000004,-8.89,1.92,1.52,-0.166,0.514,4.78,-2.3,7.74,60.0,8340000000.0,-0.7155518388512678,-10.548708572593355,1.0354387235103992,1.2093142200356757,-0.1988415931141066,0.43811877654718945,3.623031125305264,-4.096923848749237,7.046906717581791
167,8.39,0.33299999999999996,-8.29,0.0287,2.18,-0.0287,0.45299999999999996,4.89,-1.29,5.17,60.0,8390000000.0,-0.22902487843806235,-9.651793429603048,0.5339966912316105,1.915361524566165,-0.0863269624553412,0.4483406695929878,4.259253392734221,-2.985565150879106,6.109029221643857
168,8.44,-0.366,-11.9,-0.991,1.6,-0.7070000000000001,0.284,4.38,-4.48,3.33,60.0,8440000000.0,-0.29258119027673596,-10.544538144802248,-0.2255821550878131,1.6859771791663454,-0.49677803499505035,0.3354553523874128,4.319887685098277,-3.577263841720608,4.720367163684661
169,8.49,-1.43,-10.9,0.929,0.938,-0.376,0.24600000000000002,3.53,-3.26,4.59,60.0,8490000000.0,-0.8203423060585386,-10.685689056000049,0.3494985670651418,1.1419213896567117,-0.41690751554669037,0.2740086291916089,3.923236894991395,-3.4516480591692265,4.655223654023223
170,8.54,-0.8,-8.22,1.24,0.402,-0.629,0.401,3.71,-3.21,4.22,60.0,8540000000.0,-0.8109035028183114,-9.706583737937407,0.7930444866648623,0.6037251262353627,-0.5571642745407581,0.361238778868918,3.8161576655270646,-3.3559712112005604,4.4377452464116915
171,8.59,-1.17,-8.78,1.22,-0.0791,-1.08,0.36,4.23,-1.15,4.19,60.0,8590000000.0,-0.9775238826611519,-9.338644632665032,1.0057048816382193,0.10705893915300613,-0.9029155525488946,0.3603878736183414,4.023973148240671,-2.482550549257845,4.313948658686948
172,8.64,-0.263,-9.62,1.66,-0.263,-0.768,0.439,5.42,-2.11,4.41,60.0,8640000000.0,-0.6459855524590385,-9.450368555653853,1.3315998227547203,-0.16211066445142264,-0.813695906093117,0.4143864153736258,4.725003401544701,-2.335044800408347,4.361944785069454
173,8.69,0.498,-9.03,1.38,-0.127,-0.728,0.423,6.42,-1.66,3.98,60.0,8690000000.0,-0.11517745244717592,-9.283443454774414,1.3557072503075285,-0.1365722400289002,-0.7570251961783142,0.42030307725901966,5.576164596483776,-2.067771095202545,4.171089580639517
174,8.74,0.0431,-9.63,2.15,-0.0571,-0.315,0.207,6.14,-2.36,4.61,60.0,8740000000.0,-0.04173688003649949,-9.421058335454903,1.751333055714136,-0.07876655569683688,-0.46471394557296375,0.27378556151791344,5.8593006694406995,-2.1834746310360966,4.3904102017166435
175,8.79,-2.06,-9.39,2.95,0.129,-0.379,0.12300000000000001,4.1,-2.13,5.29,60.0,8790000000.0,-0.9782088338575642,-9.40872545492231,2.3483717890499705,0.07235650056204107,-0.4080313212866323,0.17021122070702122,4.975848469481164,-2.162302211858686,4.8399290925599345
176,8.84,-2.27,-8.66,2.35,0.0736,-0.5770000000000001,0.207,3.97,-1.4,4.46,60.0,8840000000.0,-1.5775985773235435,-9.111412498249955,2.349182729929857,0.0732609853471183,-0.5197703179776961,0.19548137155301518,4.470750628515803,-1.860480269337673,4.650081125512196
177,8.89,-1.62,-8.09,2.44,-0.201,-0.5379999999999999,0.25,4.75,-0.8859999999999999,4.35,60.0,8890000000.0,-1.597272795386125,-8.705817816534335,2.3944175302653807,-0.12622810129328066,-0.5318255979558523,0.23293012376574207,4.610978767166068,-1.4746496619620546,4.500132578351922
178,8.94,-2.36,-9.46,3.59,-0.266,-0.192,0.177,4.12,-2.34,5.48,60.0,8940000000.0,-1.9511773732792772,-9.005297551070226,2.9899198648310055,-0.22789392295533462,-0.3070989412824686,0.1945118185805883,4.364428329761655,-1.8172718947857862,4.989765680733871
179,8.99,-1.36,-9.54,3.71,-0.10400000000000001,-0.486,0.20199999999999999,5.19,-2.47,5.54,60.0,8990000000.0,-1.6768716959703545,-9.21762360629668,3.348581409244104,-0.13777726046277425,-0.425406207014296,0.1996554423634627,4.778998239260567,-2.075709643047094,5.264714012421351
180,9.04,0.00479,-9.06,0.68,-0.6,-0.185,-0.0384,6.63,-2.04,2.41,60.0,9040000000.0,-0.8965824248119982,-9.155032698223184,2.01939951737406,-0.4739840129138182,-0.26642559107373887,0.036135566750078674,5.708499158869188,-2.0615709394725275,3.8382328597664106
181,9.09,-1.21,-14.8,3.61,-0.838,0.22,-0.313,5.31,-7.81,5.64,60.0,9090000000.0,-1.042007870156487,-11.396604188076516,2.8116546150122224,-0.7387581486649364,0.05524763698464902,-0.2036850497850361,5.508388401130193,-4.337573720217115,4.738563590849492
182,9.14,-1.82,-10.5,3.43,0.159,-0.0269,0.13699999999999998,4.67,-3.42,5.55,60.0,9140000000.0,-1.4029954304310486,-11.040569828562221,3.119643562523981,-0.08575623340044314,0.0009234065251060852,0.030330921820554357,5.087382496504357,-3.974274432028004,5.144032946475354
183,9.19,2.46,-6.0,-2.76,-0.613,0.878,-0.218,8.93,1.02,-0.501,60.0,9190000000.0,0.3894304335910974,-9.038999822125803,0.19107794516793764,-0.4692572644758096,0.5809341454649366,-0.14024715812202335,7.016995229347505,-1.9968676579082025,2.3232483449461543
184,9.24,-2.49,-11.8,1.26,-0.317,0.556,-0.32299999999999995,3.75,-4.72,3.93,60.0,9240000000.0,-0.9466222855737347,-10.135371009020783,0.7234925926333137,-0.3585099713499546,0.5644451920298098,-0.2657797807221476,5.376437696287413,-3.075050288648967,3.1261312631994143
185,9.29,-1.2,-9.56,0.74,-0.37200000000000005,0.626,-0.0543,4.87,-2.46,3.71,60.0,9290000000.0,-1.0641893026381266,-9.906895944989113,0.7317146988101727,-0.36832221351559474,0.6051513761877769,-0.1205146820164763,5.1221243878523826,-2.831530523573175,3.417886522922098
186,9.34,-1.41,-9.86,-0.534,-0.45399999999999996,0.265,-0.201,4.53,-2.75,2.68,60.0,9340000000.0,-1.2246450896614682,-9.888273803586303,0.10128048032985826,-0.43064162171177783,0.3802092718157177,-0.1757999120980898,4.82478272904893,-2.79924975638246,3.049169674374107
187,9.39,-1.9,-9.9,0.33799999999999997,-0.39899999999999997,0.8079999999999999,-0.0922,3.87,-2.78,3.83,60.0,9390000000.0,-1.5380090518501104,-9.89293003101517,0.21918705725395612,-0.4076264623381975,0.6631072861897718,-0.1183752785578176,4.345328038618713,-2.7916280976393684,3.4393452445844366
188,9.44,-0.63,-9.91,-0.168,-0.318,0.5379999999999999,-0.0885,4.96,-2.81,3.64,60.0,9440000000.0,-1.1166937976418476,-9.899708318724208,0.02633477182077304,-0.3424348967313104,0.5803738333709969,-0.09785400141312994,4.653992333604108,-2.798902149489428,3.539611114929125
189,9.49,-0.927,-9.57,-0.136,-0.207,0.594,-0.0732,4.5,-2.46,3.88,60.0,9490000000.0,-1.0286760671812027,-9.768783658436368,-0.054521839403401384,-0.24392368169681417,0.5893848049730892,-0.0809192117886242,4.576663392117353,-2.6647190279144906,3.709701185199157
190,9.54,-1.85,-9.66,-0.33,-0.33299999999999996,0.5710000000000001,-0.161,3.38,-2.53,3.91,60.0,9540000000.0,-1.409769525517945,-9.725586476225303,-0.19173354289997577,-0.308715084268416,0.5772269207496094,-0.13592656656110877,3.975745785292273,-2.6113790724078374,3.80978918490623
191,9.59,-2.0,-9.83,-0.41200000000000003,-0.37,0.298,-0.222,3.03,-2.69,4.05,60.0,9590000000.0,-1.683635849411183,-9.767048221991,-0.3014450872313792,-0.3532918678627197,0.39257417160185165,-0.19505026207424647,3.5008291385153876,-2.642507852106684,3.9298209923959777
192,9.64,-1.08,-10.2,0.316,-0.298,0.20600000000000002,-0.185,3.8,-3.08,4.93,60.0,9640000000.0,-1.403549465460211,-9.938969838157586,0.0060954089512874066,-0.31307425384915044,0.2691926776524954,-0.1881467559603201,3.6510610482053214,-2.8157261646127694,4.429603560963354
193,9.69,-0.917,-9.67,0.225,-0.17600000000000002,0.309,-0.16699999999999998,3.82,-2.51,4.96,60.0,9690000000.0,-1.1777910195073056,-9.832164094700964,0.11512862424634143,-0.21337061806324129,0.29551724911415084,-0.1736210826752021,3.7358955646396654,-2.6946785493233767,4.694639076812959
194,9.74,-1.03,-9.78,0.067,-0.138,0.376,-0.22699999999999998,3.55,-2.58,4.89,60.0,9740000000.0,-1.1092161274911045,-9.811450043434068,0.09115645178032482,-0.15854832478994746,0.348740481356834,-0.21028696796606214,3.6425460413773214,-2.649273296749702,4.792259536026055
195,9.79,-1.79,-9.99,-0.242,-0.105,0.5529999999999999,-0.299,2.56,-2.71,4.69,60.0,9790000000.0,-1.425099115820795,-9.882350713744158,-0.07478396913996345,-0.11959890276801968,0.4838172772753725,-0.27122379381470163,3.098933629278971,-2.6733171237163798,4.741161169272819
196,9.84,-2.31,-9.89,-0.19899999999999998,-0.13,0.409,-0.349,1.77,-2.54,4.85,60.0,9840000000.0,-1.835692175594509,-9.885388320531808,-0.13665418229416343,-0.12716434046643305,0.43434062019706743,-0.3246481409667465,2.431595003205406,-2.6205322270172284,4.795547145823156
197,9.89,-1.86,-10.1,-0.18,-0.353,0.24100000000000002,-0.462,2.01,-2.68,4.97,60.0,9890000000.0,-1.8469709873761357,-9.970609055250877,-0.1582441122265205,-0.2914303064144528,0.3064844716288271,-0.4189949054708533,2.219886437535772,-2.644077611075236,4.882719946888962
198,9.94,-1.92,-11.9,-0.10800000000000001,-0.0779,-0.0605,-0.215,1.77,-4.47,5.16,60.0,9940000000.0,-1.8808563530705007,-10.736754632736718,-0.13321824628567264,-0.13611486852318383,0.06379765171991372,-0.27887115783956173,1.9939710126272883,-3.3670236463661625,5.021274829191542
199,9.99,-0.797,-12.6,1.19,0.11,-0.5670000000000001,0.0416,2.91,-5.14,6.39,60.0,9990000000.0,-1.3779481327089016,-11.476634632841376,0.5258576981966139,0.042901586380051315,-0.3533487979148745,-0.058740070037696934,2.45396507170831,-4.069006536798382,5.705217430473026
200,10.0,-0.63,-9.46,2.21,0.865,-0.41,0.39,3.29,-1.97,7.18,60.0,10000000000.0,-1.0309009778607108,-10.67584514753159,1.364704697519615,0.6408709270158242,-0.390812233796509,0.24949870327253137,2.873789173258013,-3.2379369268773295,6.4421561742213385
201,10.1,0.723,-9.18,1.52,1.67,-0.301,0.563,4.88,-1.47,5.93,60.0,10100000000.0,-0.21709276004784106,-10.081857111937602,1.4420550374550933,1.3894280221339823,-0.3314194056390542,0.4648422214228987,3.8812300298896103,-2.5379492790657254,6.186235128049528
202,10.1,1.39,-11.5,-4.92,1.26,-1.82,-0.158,5.83,-3.52,-1.37,60.0,10100000000.0,0.5285965959927406,-10.64499032229459,-1.7267928176812142,1.2952860160457669,-1.3158177429101234,0.03701296462692977,4.859826233759737,-2.9267772748505685,2.4104357733075945
203,10.2,-0.0575,-11.3,1.32,0.863,0.11599999999999999,0.0489,4.51,-3.14,4.23,60.0,10200000000.0,0.2566483869183258,-10.905089507740033,-0.20922925072916643,0.980854323633291,-0.3689567145017725,0.04517814931765639,4.684157263567399,-3.0111996020361445,3.3196596638182974
204,10.2,0.534,-9.5,0.354,0.5760000000000001,-0.0379,-0.10300000000000001,5.09,-1.22,2.95,60.0,10200000000.0,0.3853392362883758,-10.347139690416865,0.0713071133877764,0.686375607990059,-0.15002891962703227,-0.05660516694822618,4.887955727317961,-2.3020014528304094,3.1349432653021765
205,10.3,0.163,-8.68,0.977,0.364,0.223,-0.0299,4.65,-0.292,3.37,60.0,10300000000.0,0.2821740639590993,-9.685131960429873,0.5224196711691282,0.4518894093348563,0.09665509701148453,-0.03826143330925677,4.768463693468716,-1.506172035248945,3.2523994613434004
206,10.3,0.8140000000000001,-8.67,1.92,0.33299999999999996,-0.0611,0.0856,5.26,-0.228,4.2,60.0,10300000000.0,0.5289407478640356,-9.28203119980747,1.2185342461330106,0.3654128791046258,-0.007668343038988001,0.04681877489961475,5.01529416285612,-1.0000993144148427,3.725908916693266
207,10.4,1.16,-8.79,1.85,0.391,0.273,0.151,5.66,-0.335,3.96,60.0,10400000000.0,0.8217515664712545,-9.086649526382601,1.5330582386963978,0.3840241730176607,0.17793762508999228,0.11838067467980906,5.339040202612729,-0.7367633892053291,3.84288265954265
208,10.4,-0.0766,-9.9,2.51,0.152,0.44299999999999995,-0.0244,4.4,-1.42,4.58,60.0,10400000000.0,0.40491737748612,-9.40962434957624,2.0196588291234168,0.21525685664110308,0.35322335828981327,0.020304874874685616,4.867490900076859,-1.0072804865731722,4.2112151480738005
209,10.5,-0.7040000000000001,-8.91,2.99,0.107,0.11,-0.132,3.67,-0.373,5.05,60.0,10500000000.0,-0.10961912606401969,-9.211227451601374,2.502971770197774,0.13651411866932534,0.1923797583240821,-0.08431308151307235,4.266157731886173,-0.7561468012468038,4.63035033473464
210,10.5,-0.38799999999999996,-8.93,3.49,0.132,-0.14400000000000002,0.295,3.94,-0.349,5.46,60.0,10500000000.0,-0.23878756621968483,-9.099554398667648,2.9945962945482303,0.13323068579083333,-0.030068161708087154,0.17623641347973898,4.102374073639122,-0.5949432384056713,5.0449206544433
211,10.6,-3.1,-9.65,3.22,-0.048,-0.0947,0.315,1.35,-1.1,5.06,60.0,10600000000.0,-1.5663871038185098,-9.318131797599863,3.1068666421719833,0.0014090074099341598,-0.07280919522031587,0.27155288101550945,2.720239217538995,-0.7949127687635102,5.052455672368121
212,10.6,-1.24,-7.98,3.36,-0.179,-0.429,0.484,3.37,0.488,5.16,60.0,10600000000.0,-1.414943832856294,-8.78677035957733,3.2329486630362614,-0.1298150105812807,-0.3083581573167927,0.4174824402427947,3.046523672756706,-0.2869630245882856,5.106194765924612
213,10.7,0.7759999999999999,-7.96,1.43,-0.778,-0.11599999999999999,0.0551,5.56,0.397,3.29,60.0,10700000000.0,-0.39834817138056744,-8.45846647055873,2.334925922294977,-0.6012850172182322,-0.18115171142193026,0.1685625656010352,4.308693385131003,-0.016158291914780243,4.198654562534755
214,10.7,0.259,-14.5,2.44,-0.986,-0.37,-0.128,5.02,-6.19,4.65,60.0,10700000000.0,-0.09333930465601648,-10.857511165245342,2.3872618328043576,-0.8811149730509917,-0.306037082170718,-0.03514575536744913,4.665883803887972,-2.4605967667796538,4.424188858606844
215,10.8,-0.5870000000000001,-11.5,4.01,-0.007640000000000001,-0.38299999999999995,0.249,4.23,-3.33,6.34,60.0,10800000000.0,-0.32239735761135824,-11.112638348253146,3.195524413671445,-0.2457758956309508,-0.356932648445238,0.16003347441653393,4.446999974400725,-2.804823685406334,5.381506745156428
216,10.8,2.22,-6.74,-2.67,-0.62,0.614,-0.115,7.08,1.42,-0.264,60.0,10800000000.0,0.8572723750490688,-9.37629850520872,0.27399129788500076,-0.5179751086298809,0.2851450977888411,-0.028886548062937473,5.769189814954126,-1.1320692071074545,2.560485383927004
217,10.9,-1.63,-10.4,-0.182,-0.5529999999999999,0.27399999999999997,-0.0952,3.09,-2.27,2.57,60.0,10900000000.0,-0.2968194077714489,-9.782802038275427,0.046868613670815296,-0.5434511278521362,0.277774837701358,-0.07443714577319538,4.423805183000162,-1.5826155396823296,2.5652397395731388
218,10.9,-2.16,-10.3,1.04,-0.511,0.701,0.1,2.45,-2.2,4.11,60.0,10900000000.0,-1.1613332970225332,-9.988177292374907,0.5415330084753608,-0.5198471500566106,0.557653608489723,0.0453834309845455,3.432637257669943,-1.8270595184096314,3.3371460124923047
219,11.0,-0.606,-9.99,0.00479,-0.48,0.0947,0.0868,3.96,-1.98,3.35,60.0,11000000000.0,-0.9036592299102438,-9.988900984122852,0.27418906060391485,-0.4908635395911035,0.2515024018051142,0.07383240215686356,3.697458269465513,-1.8876139767841107,3.3435690150585353
220,11.0,-1.78,-10.0,0.0407,-0.349,0.5820000000000001,0.0166,2.75,-2.09,3.57,60.0,11000000000.0,-1.3102804189592838,-9.993308314650202,0.15789152838160253,-0.38767632902649035,0.4700604649708434,0.034519563267209244,3.2216816943212123,-1.9677456016171426,3.4567150063817205
221,11.1,-1.93,-9.82,-0.599,-0.302,0.456,0.133,2.49,-1.92,3.17,60.0,11100000000.0,-1.597829633168111,-9.92448884639585,-0.21910520944457074,-0.3253579681078182,0.46076228006330044,0.10216560696216949,2.8542597008660824,-1.9488414419481501,3.313445503912363
222,11.1,-1.01,-9.31,-1.03,-0.42200000000000004,0.14,0.0856,3.38,-1.47,2.91,60.0,11100000000.0,-1.3250772927127583,-9.680480401681121,-0.623000190105481,-0.39565243047745186,0.24864219423331027,0.09078672247385298,3.118266023304633,-1.7592514882989359,3.111846569722197
223,11.2,-1.22,-10.3,-0.591,-0.377,-0.0055,0.0373,3.15,-2.49,3.49,60.0,11200000000.0,-1.2763215518815665,-9.92648676015617,-0.6070613673520417,-0.3820852239045576,0.08057796879818219,0.05404678595810014,3.1342016360994194,-2.0485802188800095,3.3008072742195878
224,11.2,-0.917,-9.8,-0.484,-0.336,0.29100000000000004,-0.0201,3.41,-2.08,3.74,60.0,11200000000.0,-1.1095967249890224,-9.87625995402482,-0.5457662745994587,-0.3485642331280301,0.21973005742227003,0.003115486497537165,3.2726968564928987,-2.061020371748404,3.5202688999458163
225,11.3,-1.35,-9.99,-0.462,-0.207,0.17800000000000002,-0.0543,2.89,-2.28,3.88,60.0,11300000000.0,-1.2211436046488853,-9.921425126649071,-0.5040435080460897,-0.2455947255820267,0.19213397374512994,-0.03632311186571276,3.0805214798481337,-2.1477220040419165,3.700024143621592
226,11.3,-1.07,-9.68,-0.575,-0.305,0.24,-0.0647,3.07,-1.98,3.87,60.0,11300000000.0,-1.1510131542402946,-9.825557258946494,-0.5393859069314139,-0.28880431709859145,0.2237877719301479,-0.05581514756312841,3.075237969671024,-2.0813150424250053,3.7849598669611084
227,11.4,-1.67,-9.55,-0.773,-0.315,0.157,-0.1,2.37,-1.87,3.8,60.0,11400000000.0,-1.3918224888799806,-9.716135748769483,-0.655745716860483,-0.30785825682790224,0.17962102381645975,-0.08616564781234748,2.7210949207012862,-1.9976480765386808,3.7924752954226575
228,11.4,-1.78,-10.1,-0.857,-0.42,0.249,-0.209,2.08,-2.31,3.76,60.0,11400000000.0,-1.5719364354639433,-9.868565327463307,-0.7559875681030293,-0.3894267339011144,0.22550133735400635,-0.1705403576303694,2.3991620273564362,-2.121319033547279,3.7762476061891403
229,11.5,-1.67,-10.1,-0.29,-0.243,0.295,-0.20199999999999999,1.96,-2.28,4.34,60.0,11500000000.0,-1.6174378071067017,-9.960466338319726,-0.5238858799307247,-0.2829203903438668,0.2714607922141199,-0.19214993675499917,2.178632011530507,-2.184146330461427,4.057950923186465
230,11.5,-1.04,-9.93,-0.735,-0.0956,0.43200000000000005,-0.20800000000000002,2.37,-1.97,3.88,60.0,11500000000.0,-1.349507249818501,-9.948368519971794,-0.6290387841323077,-0.14666924785151864,0.3776253729376596,-0.20303732091411997,2.274729491105332,-2.099358368703684,3.969030113149857
231,11.6,-0.9390000000000001,-9.94,-0.5579999999999999,-0.0822,0.508,-0.228,2.23,-1.88,4.05,60.0,11600000000.0,-1.1590323193856062,-9.945045280926262,-0.5936554047754978,-0.09977628027056766,0.463842120640779,-0.220184142372151,2.2522680954986107,-2.012506766689501,4.009490310764811
232,11.6,-2.03,-10.2,-0.589,-0.0748,0.628,-0.28,0.8859999999999999,-2.14,4.12,60.0,11600000000.0,-1.5631604005281827,-10.04628568712728,-0.5913366081787143,-0.08160929482624345,0.5723997352319874,-0.26127155302698274,1.56618155552387,-2.0629858092480977,4.064711194427996
233,11.7,-1.7,-10.2,-0.747,-0.126,0.285,-0.218,0.981,-2.07,4.04,60.0,11700000000.0,-1.6266538539324986,-10.107324336903233,-0.6688702871537732,-0.11389774249532304,0.38234229654319113,-0.23154839399392582,1.2723262139767009,-2.0657629446545265,4.052363159411694
234,11.7,-1.63,-11.4,0.00958,-0.0773,0.0538,0.0508,0.958,-3.23,4.85,60.0,11700000000.0,-1.6282064600015502,-10.620635363189415,-0.3309439882161833,-0.08727765784330702,0.1650772868042491,-0.03760376767906748,1.1144838558045962,-2.5267248556912794,4.450936821425345
235,11.8,-1.91,-12.1,0.0958,0.32799999999999996,-0.0153,0.354,0.738,-3.95,4.92,60.0,11800000000.0,-1.7589583528493145,-11.208079392311365,-0.11838896637351515,0.21478266202127197,0.04579379237161592,0.23138818900598784,0.9254283407969065,-3.090248958167972,4.6853245428150485
236,11.8,-0.32799999999999996,-9.72,1.32,1.15,-0.0409,0.527,2.49,-1.53,5.92,60.0,11800000000.0,-1.094995175411115,-10.617175060921655,0.5980518496305393,0.8950312368065726,-0.01153680956352978,0.43444344097057663,1.7110951866209152,-2.4724921709626013,5.302283517844554
237,11.9,-0.51,-9.42,0.57,1.83,-0.36700000000000005,0.601,2.58,-0.986,4.51,60.0,11900000000.0,-0.8235580203955183,-10.141786439558125,0.5840796245223974,1.57509905442519,-0.24660461576786186,0.5488508627433497,2.1474252427934575,-1.8839382705032346,4.906384941548842
238,11.9,0.10300000000000001,-11.0,-1.48,1.63,-0.7170000000000001,0.478,3.5,-2.35,1.55,60.0,11900000000.0,-0.3936360663065844,-10.48257618756712,-0.44400866369505376,1.6150323257338157,-0.5576770743543976,0.5001835166988801,2.826635511308389,-2.068468265509955,3.229222167514873
239,12.0,-2.22,-11.1,-0.23,1.34,-0.9670000000000001,0.253,1.44,-2.31,1.97,60.0,12000000000.0,-1.24106703788783,-10.727750401950765,-0.3374140382816993,1.414982217522081,-0.8283623179019936,0.33039357770065425,2.130321289794666,-2.164099048944391,2.5999974205369667
240,12.0,-1.16,-10.1,1.67,0.79,-0.7509999999999999,0.28,2.68,-1.18,3.25,60.0,12000000000.0,-1.2034520014632686,-10.478475884332765,0.6624499081717214,0.9603892136154175,-0.7772026108703721,0.2957783165772505,2.406348524303133,-1.7744600206084589,2.9247992930273816
241,12.1,-0.261,-8.57,0.539,0.537,-0.852,0.235,3.73,0.32299999999999995,1.62,60.0,12100000000.0,-0.7661552602387053,-9.7206352375724,0.6009612775615248,0.6524288022079373,-0.8266661208061425,0.2540297949330821,3.0710346589460222,-0.9440027133802896,2.2727999541927737
242,12.1,-0.742,-8.58,1.51,0.24600000000000002,-0.418,0.22399999999999998,3.36,0.3,2.27,60.0,12100000000.0,-0.7549472371861653,-9.26769806773494,1.0537403440913393,0.35680488180761094,-0.5564152356808885,0.23340238513652625,3.216141725739239,-0.4514588095744724,2.2714008265761483
243,12.2,-0.16,-8.58,1.66,0.213,-0.627,0.163,4.04,0.267,2.21,60.0,12200000000.0,-0.47889233866365694,-8.994618629221769,1.3557095144555413,0.25220559269859083,-0.6030929211886826,0.18504310946293717,3.6298511867414267,-0.16699600692567124,2.240719269788083
244,12.2,-0.306,-8.28,1.66,-0.0235,-0.369,0.0832,3.96,0.545,2.01,60.0,12200000000.0,-0.39867047138757866,-8.710849175089269,1.5072721981236525,0.05166574692031384,-0.4482872713583771,0.11508725270330093,3.7956390582201007,0.11490795826107891,2.125430413540391
245,12.3,-1.38,-9.35,3.28,-0.11599999999999999,-0.19399999999999998,-0.0592,2.91,-0.534,3.61,60.0,12300000000.0,-0.8540063458337608,-8.964651012536224,2.390242323596931,-0.070289205568504,-0.2801271101890565,-0.004630361750982637,3.3509057220115763,-0.14201724163835405,2.867259696509802
246,12.3,-1.72,-9.3,2.78,-0.0473,-0.435,0.0239,2.53,-0.462,3.06,60.0,12300000000.0,-1.255826510448065,-9.097815491869895,2.584374984215066,-0.053567557817358814,-0.3825445491713836,0.014967094978232977,2.9386788840238367,-0.2687095388937967,2.9635706879898525
247,12.4,-1.2,-8.48,2.89,-0.244,-0.619,0.0819,3.05,0.359,3.07,60.0,12400000000.0,-1.2299230900144598,-8.852485714415485,2.7366024470169013,-0.19208231507706255,-0.5389125434083273,0.0609431928344715,2.994579981011954,-0.02017752271490139,3.016752658705192
248,12.4,-2.53,-9.26,3.46,-0.442,-0.102,0.205,1.75,-0.444,3.67,60.0,12400000000.0,-1.83315740554736,-9.014306472203897,3.0969163493767424,-0.37386482439112423,-0.2499822902423781,0.15989556494670915,2.3696004753783497,-0.18798357012566352,3.343175954759853
249,12.5,-0.35200000000000004,-8.84,3.13,-0.444,-0.0177,0.198,4.01,-0.0669,3.47,60.0,12500000000.0,-1.1459019149818817,-8.94509082533422,3.1133948953951323,-0.4248790180138118,-0.0963740184683497,0.18606943518128582,3.1933452267220948,-0.14004237746168274,3.40654908275189
250,12.5,1.36,-11.8,-0.47200000000000003,-0.8540000000000001,0.37,-0.27699999999999997,5.7,-3.05,0.0786,60.0,12500000000.0,0.016833963766221816,-10.078752524553316,1.327561429633073,-0.7370085232963881,0.21203910916672325,-0.13201217113151065,4.452089353811595,-1.2921956924643843,1.7435955364108218
251,12.6,-2.32,-14.8,6.07,-0.0748,0.0226,-0.0372,1.88,-6.0,6.98,60.0,12600000000.0,-1.0674545245307798,-11.953522251586822,3.6897017391872238,-0.2553382230897423,0.08676303241254277,-0.06688585377058498,3.1604864353203954,-3.156178997988066,4.360191277447821
252,12.6,0.11699999999999999,-5.54,-2.48,-0.33799999999999997,1.27,0.000687,4.33,3.26,-1.51,60.0,12600000000.0,-0.5178688624595503,-9.4067637922552,0.6166623149854717,-0.31546388025847394,0.8692375911195683,-0.020470176616488645,3.747770477289958,-0.6157907960864488,1.4268965861106215
253,12.7,-1.43,-9.99,-0.196,-0.7509999999999999,0.489,-0.28600000000000003,2.62,-1.19,1.3,60.0,12700000000.0,-0.9410967335739802,-9.638362139599131,0.21188694421211363,-0.6322595720033369,0.6177864785828774,-0.20286216526753434,3.1814480893024957,-0.843140194386133,1.3634872004075986
254,12.7,-3.05,-10.7,1.65,-0.48,0.825,0.0752,0.897,-1.87,3.5,60.0,12700000000.0,-1.919625625140272,-10.059929976089684,0.9281902951336204,-0.5215105914345202,0.7548167662228967,-0.011861742424183697,2.0342874005224827,-1.249709673198571,2.4310881297463975
255,12.8,-0.129,-10.2,-0.33299999999999996,-0.35100000000000003,0.069,-0.0958,3.74,-1.4,1.78,60.0,12800000000.0,-1.088777201535182,-10.11555058773202,0.30000960449244074,-0.3974863912883534,0.30128615806310716,-0.06951878558782032,2.8908297195367707,-1.3092148262165775,2.105743800858861
256,12.8,-1.79,-9.48,-0.278,-0.342,0.625,-0.0463,2.0,-0.72,1.98,60.0,12800000000.0,-1.4141438301679028,-9.863178345408311,0.01211136192305684,-0.3571272866894054,0.5153581120661014,-0.05356984265014243,2.4434897926426182,-1.075924214636194,2.04291048747162
257,12.9,-2.0,-10.5,-0.242,-0.41600000000000004,0.743,0.0728,1.66,-1.71,2.29,60.0,12900000000.0,-1.6859804812708221,-10.116055136452294,-0.11445784026761935,-0.3999495105260728,0.6658976665214689,0.03323338720771725,2.050051772100492,-1.3269768651400469,2.1663794189611725
258,12.9,-0.941,-9.31,-0.182,-0.322,0.268,0.0508,2.67,-0.621,2.59,60.0,12900000000.0,-1.3403103087237982,-9.795977248507445,-0.14809961363519786,-0.3432514097237996,0.4027679559513428,0.04529986293213849,2.3613656214187015,-1.0474560907292434,2.3780597021111034
259,13.0,-1.36,-9.87,-0.606,-0.315,0.213,-0.0653,2.18,-1.2,2.3,60.0,13000000000.0,-1.3494463115552808,-9.825371046264264,-0.37617319220349954,-0.32270219348108503,0.2772744120340731,-0.03067099474684043,2.2702909163610605,-1.1078535436706343,2.3390537755185727
260,13.0,-1.47,-9.81,-0.491,-0.39399999999999996,0.25,-0.153,2.07,-1.2,2.45,60.0,13000000000.0,-1.4053831103972527,-9.81926749322874,-0.43336676668771956,-0.3745620407271665,0.2592378441706728,-0.1146985763186684,2.1697125995618944,-1.144337546386683,2.3944928738908264
261,13.1,-1.44,-9.95,-0.213,-0.366,0.261,-0.23,1.84,-1.29,3.02,60.0,13100000000.0,-1.4214453375792675,-9.871180251418831,-0.3236052595980352,-0.3683342707913001,0.2604031626556205,-0.19389892901396807,2.004143813498926,-1.2020103579427879,2.7070545252447165
262,13.1,-1.46,-9.8,-0.067,-0.254,0.33399999999999996,-0.21899999999999997,1.65,-1.14,3.31,60.0,13100000000.0,-1.4393346783872758,-9.842915218026368,-0.19579388313761123,-0.2851710123004897,0.30907274331701506,-0.21114080933767435,1.8263065963162524,-1.1774582969205434,3.008342253651283
263,13.2,-1.46,-9.53,-0.596,-0.268,0.282,-0.217,1.49,-0.8540000000000001,2.88,60.0,13200000000.0,-1.4489233837388351,-9.718658979002178,-0.39513078327777595,-0.27268134607284933,0.2911695424388374,-0.21516547234208827,1.6574265503943473,-1.0493899071450172,2.9442105587134124
264,13.2,-1.45,-9.72,-0.524,-0.284,0.44799999999999995,-0.307,1.27,-0.986,3.0,60.0,13200000000.0,-1.4494229546851025,-9.719191593761106,-0.45931867523225345,-0.280914196781682,0.39488152848388614,-0.27824645930816133,1.462876043758001,-1.0242916408892537,2.9720881634608385
265,13.3,-1.46,-10.0,-0.409,-0.20800000000000002,0.52,-0.32899999999999996,0.9520000000000001,-1.18,3.05,60.0,13300000000.0,-1.4543307103677556,-9.830698368312289,-0.43425567377012236,-0.22787863512848427,0.4776223573466986,-0.31310897659030107,1.2063340388804202,-1.0859419698289101,3.0110201549772904
266,13.3,-1.74,-9.81,-0.46399999999999997,-0.156,0.40399999999999997,-0.282,0.423,-0.9159999999999999,3.05,60.0,13300000000.0,-1.5868809669115607,-9.822479378255034,-0.44907088683918933,-0.1755963086840601,0.4289359039348553,-0.2917402776211396,0.8129742525128333,-1.0186560424671547,3.0304980948578693
267,13.4,-1.76,-10.7,0.0551,-0.0528,0.396,-0.152,0.223,-1.76,3.49,60.0,13400000000.0,-1.6672080130839815,-10.170935730311163,-0.1979506420067264,-0.08627801559520547,0.4071553902275902,-0.1957529176512476,0.5167122048800373,-1.3121798706568413,3.2601080795196564
268,13.4,-1.95,-11.3,-0.898,0.0541,0.457,-0.0867,-0.107,-2.32,2.49,60.0,13400000000.0,-1.7984232218718381,-10.61927820669384,-0.5466351272788762,0.01582867465375687,0.4401176208248345,-0.12084465578845296,0.20350827110721953,-1.7112108517503228,2.8752903094777835
269,13.5,-2.58,-11.9,0.213,0.28300000000000003,-0.20800000000000002,0.19899999999999998,-0.759,-2.86,3.56,60.0,13500000000.0,-2.1610739954696796,-11.127842446793636,-0.16827183126612916,0.21016094946640937,0.011517454695735452,0.09885608940817428,-0.27982582931903627,-2.166056350518612,3.2174350609530107
270,13.5,-0.845,-10.2,2.15,1.01,-0.48,0.504,1.19,-1.13,5.22,60.0,13500000000.0,-1.5504170489748796,-10.759403548586837,0.986425965434734,0.7919394938445121,-0.3135230163171283,0.3771487510911521,0.458263381460343,-1.7558456400297628,4.218103049651297
271,13.6,0.16,-9.26,0.5479999999999999,1.94,-0.379,0.561,2.5,-0.0328,2.9,60.0,13600000000.0,-0.7567853257760634,-10.164002470068542,0.76805230710087,1.6270037620081808,-0.3568229490313553,0.503435850889158,1.4835438471250766,-1.073632001236415,3.5594559592963337
272,13.6,0.455,-11.0,-1.03,1.85,-0.183,0.46799999999999997,3.05,-1.63,0.318,60.0,13600000000.0,-0.19451819377055546,-10.495970409860586,-0.1275315890217208,1.7892044473481532,-0.24187383692563838,0.47909502219218936,2.2701569834083113,-1.293917421952563,1.9397224350324296
273,13.7,-1.29,-11.1,-0.457,1.18,-0.39899999999999997,0.376,1.5,-1.75,0.135,60.0,13700000000.0,-0.7028205903556924,-10.7358258855869,-0.2916350443918694,1.3460876588994994,-0.3457813566204477,0.40827921973059556,1.8834141962075817,-1.474496361918239,1.0379148991825533
274,13.7,-1.8,-9.84,1.07,0.521,-0.754,0.382,1.17,-0.49,1.16,60.0,13700000000.0,-1.2119106687277998,-10.380100644364283,0.3865757505425449,0.7459440593939723,-0.6157363386538239,0.3902280683562117,1.5251654012072886,-1.0847000481142195,1.0989199778701078
275,13.8,-0.6940000000000001,-8.58,0.9620000000000001,0.253,-1.12,0.33,2.41,0.7240000000000001,0.71,60.0,13800000000.0,-0.9716006618496176,-9.665295030400232,0.6731862726728376,0.38739156599631547,-0.9492058859921766,0.34885752068643844,1.9694948554812979,-0.36857286195970285,0.9045792967377524
276,13.8,-0.486,-9.59,1.43,-0.0834,-0.9359999999999999,0.318,2.71,-0.32799999999999996,0.9520000000000001,60.0,13800000000.0,-0.7462824624363942,-9.635396036002119,1.0501442441910187,0.04495212501720014,-0.9404728270427193,0.32766153504553563,2.341347665298484,-0.3525086597281794,0.9282751109166498
277,13.9,0.536,-9.01,1.67,-0.0351,-0.64,0.237,3.81,0.221,1.1,60.0,13900000000.0,-0.15130473251673893,-9.387056357700288,1.35888543098962,-0.01327535257672529,-0.7417701460350221,0.26538628476141823,3.0788475354004134,-0.12543665353818337,1.0140848831139202
278,13.9,0.35700000000000004,-8.99,1.89,0.0351,-0.473,0.1,3.67,0.214,1.21,60.0,13900000000.0,0.08454812954667576,-9.229388359519318,1.6234259273258238,0.021911406051984612,-0.5640324498686947,0.15178273092965663,3.3757012759380736,0.008958112479152153,1.11198235493096
279,14.0,-1.07,-9.43,2.65,0.0541,-0.198,-0.0543,2.22,-0.21899999999999997,1.89,60.0,14000000000.0,-0.4511610214236974,-9.30904976031641,2.134747708161517,0.045324407925138935,-0.3219752009950295,0.010224857788589947,2.7953532025038452,-0.08129842374521455,1.5007524787532929
280,14.0,-1.87,-8.94,2.77,0.0315,-0.19699999999999998,-0.0641,1.35,0.28800000000000003,1.93,60.0,14000000000.0,-1.109500828269504,-9.162502882453838,2.4511576992776725,0.035268955249559725,-0.23932910226057386,-0.040828757463177295,2.069553230748192,0.06491964916962988,1.715244522371702
281,14.1,-2.0,-8.75,2.94,-0.0736,-0.40299999999999997,0.0166,1.16,0.49,2.04,60.0,14100000000.0,-1.5226915141720139,-8.998701283593004,2.6946430243448956,-0.0439190063486351,-0.34756466015453896,-0.0013810428071689626,1.6128110703133183,0.23322373393415902,1.8775226089173278
282,14.1,-2.33,-8.92,3.54,-0.23,-0.5820000000000001,0.177,0.826,0.316,2.59,60.0,14100000000.0,-1.8972817732758012,-8.96744966297116,3.1157031174047733,-0.17926865359187086,-0.5025967547433337,0.12114858976067122,1.2177052380241509,0.2659977396213209,2.2335426773975793
283,14.2,-1.6,-9.08,3.99,-0.22,-0.1,0.203,1.61,0.138,3.05,60.0,14200000000.0,-1.7593433519337496,-9.012142472269632,3.551177784293052,-0.20889539286783096,-0.23635953384321817,0.17737217881423417,1.4147003681751051,0.215318985650827,2.6415208302244304
284,14.2,0.182,-8.03,3.2,-0.22,-0.192,0.0557,3.44,1.17,2.27,60.0,14200000000.0,-0.858562065330143,-8.62214143748984,3.3762612207723772,-0.21697254483037864,-0.20702457654145473,0.0937957684875269,2.4317268491813913,0.5933103541546941,2.4558743861428107
285,14.3,0.508,-10.3,1.25,-0.701,0.00367,-0.368,3.68,-1.1,0.47100000000000003,60.0,14300000000.0,-0.2244786863375806,-9.288405742866994,2.3172011861708226,-0.5690393475850355,-0.06769225936474352,-0.22341095197458793,3.058560954115227,-0.07713006126431277,1.464046134662769
286,14.3,-1.74,-16.3,3.77,-0.57,0.23,-0.16,1.26,-6.99,3.37,60.0,14300000000.0,-0.9276789979287254,-12.07265349909849,3.0408193036494233,-0.5697380916745093,0.129171625619755,-0.17985407555195715,2.155393814144726,-2.8141753780806034,2.416438273910363
287,14.4,-1.3,-8.05,0.424,-0.00336,0.496,0.384,1.76,1.26,0.11,60.0,14400000000.0,-1.1004355320199566,-10.475290010016638,1.737419363652987,-0.15777192739863943,0.37175521327898414,0.20745632248957552,1.9568424633073935,-1.2010677859519774,1.2639267393221405
288,14.4,1.31,-8.25,-1.15,-0.8290000000000001,0.575,-0.18100000000000002,1.83,1.25,0.41700000000000004,60.0,14400000000.0,0.018004011523572006,-9.591645126370143,0.29923745258057743,-0.6460027698413118,0.5061609767830209,-0.05937365409800127,1.893147148904589,-0.23060488323353945,0.8407232000143774
289,14.5,-2.12,-10.7,1.18,-0.44299999999999995,0.985,-0.142,0.909,-1.35,1.57,60.0,14500000000.0,-0.9740275644082886,-10.031763915560443,0.7379325429500568,-0.49834473315054323,0.8228172179926599,-0.11612955233269846,1.398946839730741,-0.6738123145701392,1.2051378880781738
290,14.5,-1.07,-9.7,-0.5870000000000001,-0.23600000000000002,0.484,-0.107,1.83,-0.35,0.0658,60.0,14500000000.0,-1.0185586986546313,-9.900023039636046,0.07800275436007509,-0.3075231699081139,0.5987574001208218,-0.10985847905294317,1.6154049396023533,-0.5456037654964663,0.6358184885327167
291,14.6,-1.99,-9.96,-0.524,-0.47700000000000004,0.214,-0.0635,0.8109999999999999,-0.596,0.313,60.0,14600000000.0,-1.4693064526108712,-9.923839426548357,-0.22184612592766056,-0.43079545014606574,0.34431734393909863,-0.07801492083121195,1.2114641598145934,-0.5655573920642539,0.47450827999874784
292,14.6,-1.89,-10.3,0.235,-0.449,0.927,0.0153,0.828,-0.895,1.35,60.0,14600000000.0,-1.664507812710891,-10.073209860606736,0.0057023373441909275,-0.4440368856437729,0.7296453578418293,-0.013917061975628031,1.0189034252509441,-0.6959951600030838,0.9119855558351786
293,14.7,-0.986,-9.72,-0.17,-0.381,0.535,0.0508,1.67,-0.385,1.22,60.0,14700000000.0,-1.3496808967146146,-9.932953153024762,-0.08181246259815357,-0.39818578483702927,0.6009264058586914,0.03053697628446668,1.3458586991533281,-0.5728613663590159,1.0658982950648144
294,14.7,-1.3,-9.6,-0.431,-0.237,0.526,-0.0152,1.3,-0.27899999999999997,1.13,60.0,14700000000.0,-1.3266289903862354,-9.80074026762277,-0.2557377337597586,-0.28094415938597833,0.5513775910384707,-0.0008796743214822891,1.3228302258013074,-0.45651144630504736,1.09792947909673
295,14.8,-1.63,-9.95,-0.747,-0.284,0.451,-0.0744,0.87,-0.626,0.96,60.0,14800000000.0,-1.467392819881338,-9.860010039074586,-0.5004283697832435,-0.2831668914892113,0.48499789639416646,-0.05138065990439841,1.0954365572586011,-0.5236178487655345,1.029007044836936
296,14.8,-1.58,-9.89,-0.52,-0.33799999999999997,0.385,-0.161,0.809,-0.562,1.34,60.0,14800000000.0,-1.5196424537946185,-9.871918949278923,-0.5101767068982244,-0.3230508233062446,0.41886928418916036,-0.1266779952164856,0.9515993020033101,-0.5388146668373058,1.1844081281575103
297,14.9,-1.39,-9.8,-0.579,-0.293,0.41600000000000004,-0.252,0.845,-0.47100000000000003,1.44,60.0,14900000000.0,-1.4594884839575362,-9.843360584868169,-0.5444565942524644,-0.3011927793837821,0.4169718323165621,-0.21276146777280394,0.8980693061793864,-0.5119644783381486,1.312125678481177
298,14.9,-1.31,-9.82,-0.551,-0.294,0.4,-0.26,0.728,-0.47,1.61,60.0,14900000000.0,-1.3901259569336537,-9.8340841620775,-0.5477157697666006,-0.295960970677094,0.4057483640542515,-0.2452095278491921,0.8126671289312541,-0.495349282769345,1.4609714601738881
299,15.0,-1.8,-9.68,-0.498,-0.275,0.371,-0.23800000000000002,0.0783,-0.326,1.78,60.0,15000000000.0,-1.5803070628370355,-9.772898693580878,-0.5229530601675298,-0.28071460370005424,0.38276926658251587,-0.24025731932284058,0.44389660982273754,-0.42829801939235573,1.620387839577104
300,15.0,-1.41,-10.1,-0.515,-0.193,0.47600000000000003,-0.27699999999999997,0.29,-0.7290000000000001,1.74,60.0,15000000000.0,-1.5012847480125806,-9.90278816040725,-0.5189917485262782,-0.21691367664382516,0.4444227550591856,-0.2654958104313321,0.36661573289369287,-0.5473563709347127,1.680157228196495
301,15.1,-0.713,-9.74,-0.38299999999999995,-0.146,0.428,-0.35200000000000004,0.7559999999999999,-0.282,1.75,60.0,15100000000.0,-1.1355214477706748,-9.838146191645938,-0.45125621401846955,-0.1653332276933869,0.43356238967878186,-0.3249153883145525,0.5621493100393211,-0.4422925655280283,1.7150571867173354
302,15.1,-1.03,-9.53,-0.551,-0.10400000000000001,0.44799999999999995,-0.293,0.502,-0.207,1.57,60.0,15100000000.0,-1.0865595929061238,-9.715783694894474,-0.5009371541545639,-0.1207213084794451,0.44310999009756746,-0.30299277159433335,0.5319446605038707,-0.34913206411674796,1.64257312232121
303,15.2,-1.71,-10.3,-0.608,-0.114,0.525,-0.183,-0.648,-0.726,1.14,60.0,15200000000.0,-1.3758353085565291,-9.947771397696135,-0.5542636031406645,-0.11583243355788887,0.4972638354332348,-0.22056994179729378,-0.06057751005938117,-0.49834717915283877,1.3914407407013383
304,15.2,-2.12,-11.5,-0.6459999999999999,-0.0449,0.373,-0.083,-1.12,-1.85,1.02,60.0,15200000000.0,-1.7211268952949088,-10.564148973877904,-0.5999561925426055,-0.064238343029886,0.4150881620928795,-0.12607338296331277,-0.5925781505180076,-1.033513505699403,1.2058343168102363
305,15.3,-3.16,-11.4,-0.168,0.20199999999999999,-0.303,0.0862,-2.19,-1.73,1.48,60.0,15300000000.0,-2.388762553359442,-10.896058586699187,-0.38480504453215747,0.12941531954248975,-0.059783520098309784,0.019736838304888038,-1.3947411041013003,-1.309276716879112,1.3428330554018846
306,15.3,-1.69,-11.5,1.44,0.546,-0.77,0.503,-0.5489999999999999,-1.89,2.89,60.0,15300000000.0,-2.064537484736923,-11.135878896628816,0.524104046845241,0.4324263240116398,-0.5294496444286494,0.35168948819892987,-0.9700429330695158,-1.539205237159594,2.115941917752782
307,15.4,-0.385,-9.15,1.04,1.38,-0.75,0.687,1.09,0.49700000000000005,2.02,60.0,15400000000.0,-1.2852338410183817,-10.347302101814439,0.7810643583353205,1.121662536395467,-0.6752995879797762,0.5820136866145359,0.06443026624057435,-0.733000829076354,2.0680003838018366
308,15.4,0.479,-10.5,-0.168,1.91,-0.956,0.589,2.28,-0.892,-0.0727,60.0,15400000000.0,-0.46663117984708957,-10.407937217178228,0.3083490964664866,1.6950751595952696,-0.8609267425131515,0.5868125641048663,1.1770029254079368,-0.7959541332654995,0.9983069464369914
309,15.5,-1.27,-11.1,-0.943,1.52,-0.895,0.3,0.698,-1.52,-1.81,60.0,15500000000.0,-0.8393934647413254,-10.682749970362616,-0.31492984224076354,1.5677308098174665,-0.8834593740580834,0.38980151477737557,0.936466352874687,-1.0826290424824356,-0.40498492495647787
310,15.5,-2.05,-10.8,0.455,0.925,-0.795,0.392,0.0151,-1.37,-1.11,60.0,15500000000.0,-1.401113610967931,-10.729309096081957,0.06856110952270339,1.1002280138034144,-0.824961203672536,0.39131164345753666,0.47379212040591123,-1.1964091916139228,-0.757276174852137
311,15.6,-1.83,-8.76,0.9790000000000001,0.466,-1.36,0.5379999999999999,0.35700000000000004,0.5870000000000001,-1.02,60.0,15600000000.0,-1.600116467586268,-9.947312279043242,0.5220375705246492,0.638909877064218,-1.1787823531613577,0.49207161502783725,0.41514367116279743,-0.490295520348092,-0.8885574756606045
312,15.6,-0.532,-8.53,1.08,0.10800000000000001,-1.22,0.43799999999999994,1.74,0.74,-1.18,60.0,15600000000.0,-1.1045115442927156,-9.384508790856463,0.7999506272758816,0.25274221330574115,-1.2060396007044558,0.45492991114294545,1.0804348312530085,-0.003178771485990828,-1.034189298645726
313,15.7,-0.397,-9.43,1.6,-0.0547,-0.8809999999999999,0.344,1.91,-0.203,-0.78,60.0,15700000000.0,-0.7762269333206571,-9.402573107730513,1.1984436879273517,0.029118117445238456,-0.991090910800776,0.37873235379030284,1.4970100743899386,-0.08229493664926124,-0.9071726189149825
314,15.7,-0.299,-8.99,1.7,-0.0822,-0.695,0.434,2.07,0.212,-0.7290000000000001,60.0,15700000000.0,-0.5547941322148637,-9.23874353208624,1.4482616738497263,-0.051851287601870674,-0.7952859956029668,0.41669559502743436,1.7847432246755122,0.034226653526019404,-0.8181409580240128
315,15.8,-0.6559999999999999,-9.15,1.9,-0.151,-0.455,0.23800000000000002,1.79,0.021,-0.5489999999999999,60.0,15800000000.0,-0.6017535576045288,-9.20350403304768,1.6732660041736411,-0.12396903454450407,-0.5702548855472767,0.2939499015835767,1.7873829529794962,0.028989761701795166,-0.6836530623780543
316,15.8,-1.78,-9.76,2.97,-0.0883,-0.465,0.099,0.655,-0.574,0.5379999999999999,60.0,15800000000.0,-1.1484586633802314,-9.424484226192893,2.319150511388592,-0.0980244637114056,-0.5006498352439948,0.160039148757371,1.2187444027704388,-0.20975483717466936,-0.07320133387104377
317,15.9,-1.43,-8.07,2.28,-0.11800000000000001,-0.34,0.111,0.96,1.12,-0.175,60.0,15900000000.0,-1.2790935252735385,-8.88662924066977,2.299650192311729,-0.11255406059978337,-0.39441210636101287,0.12635424271185702,1.088813048573297,0.3167413092037258,-0.12406943417157032
318,15.9,-1.65,-8.25,2.42,-0.301,-0.312,0.0838,0.73,0.9540000000000001,0.0267,60.0,15900000000.0,-1.4511937312162977,-8.633828855656857,2.3595947330150575,-0.24962389358362624,-0.3399129871432497,0.09712380851914901,0.9086311452701828,0.5690541659493361,-0.04873097265083
319,16.0,-3.17,-9.51,3.32,-0.366,-0.382,0.14300000000000002,-0.785,-0.268,1.04,60.0,16000000000.0,-2.248718080706827,-8.98174950764504,2.8379587057235596,-0.33427232455422773,-0.3677451270152107,0.1286360902137999,0.0581556527857775,0.2376353342246193,0.49530047789698023
320,16.0,-2.55,-9.55,4.22,-0.281,-0.265,0.27899999999999997,-0.10800000000000001,-0.31,2.02,60.0,16000000000.0,-2.3885125545617436,-9.207397313765012,3.526333428658995,-0.29552365058001934,-0.2997997681292484,0.23192081117071287,-0.025281234414255047,0.020807475997860952,1.2571824599320407
321,16.1,-0.922,-8.7,1.36,-0.578,-0.237,0.0606,1.59,0.536,-0.767,60.0,16100000000.0,-1.7080522562439544,-9.00591381866634,2.447314012629428,-0.5009883456427142,-0.2582702856274703,0.11424084125843446,0.7858499934748302,0.22479010272266414,0.24571222831959272
322,16.1,-0.366,-15.1,1.62,-1.09,0.389,-0.37799999999999995,2.06,-5.79,-0.111,60.0,16100000000.0,-1.085341409050212,-11.425826903019694,2.0352408424883643,-0.9294174979451517,0.1697695339769344,-0.22387854083209446,1.4256783834285744,-2.1566742773181535,0.06746555080828576
323,16.2,-2.07,-9.92,4.14,0.369,-0.17,0.0178,0.239,-0.505,2.64,60.0,16200000000.0,-1.5422219361822673,-10.827875101185155,3.083590943127796,0.015011813649952632,-0.054920049875025495,-0.05786996665710395,0.8297747971942397,-1.5027190389824945,1.3529435883060732
324,16.2,1.95,-4.98,-3.33,-0.725,1.3,-0.25,4.28,4.44,-4.79,60.0,16200000000.0,0.07816541806235833,-8.505730628666193,-0.110926127019352,-0.5232502460539417,0.8410885071003646,-0.18984375646507173,2.5623433790436643,0.8502099404587962,-1.7166435652447014
325,16.3,-3.43,-12.1,1.48,-0.441,0.204,-0.205,-1.22,-2.59,0.449,60.0,16300000000.0,-1.5496197039779342,-9.932986430478042,0.6814912311439851,-0.4634239341209187,0.41978189386313186,-0.20025455288126578,0.6629980986141959,-0.5118886765675303,-0.6344861897629996
326,16.3,-0.879,-9.92,0.397,-0.32,0.22399999999999998,0.0135,1.3,-0.397,-0.42,60.0,16300000000.0,-1.2384528652952116,-9.927829652988212,0.5397902611499189,-0.35910172989460326,0.2903113378720946,-0.05342691751456646,0.9828755751028659,-0.4664002633768012,-0.5273088915205196
327,16.4,-0.6559999999999999,-9.51,-0.21100000000000002,-0.408,0.318,0.0172,1.49,0.0431,-0.8220000000000001,60.0,16400000000.0,-0.9681953523515516,-9.761912926994462,0.16583246735371981,-0.39466883590939844,0.3086218418998605,-0.004913408815454129,1.237533679172243,-0.26467140593309957,-0.6745640494810128
328,16.4,-1.41,-10.2,-0.0862,-0.31,0.85,0.0636,0.7240000000000001,-0.634,-0.444,60.0,16400000000.0,-1.173192232079475,-9.935873727774865,0.04029873246888366,-0.33308330657452284,0.6666352174462331,0.04214833654298693,0.9796570909766329,-0.41090143055689654,-0.5593527633908267
329,16.5,-0.225,-9.59,-0.62,-0.198,0.633,0.0263,1.91,-0.0205,-0.765,60.0,16500000000.0,-0.7332320236473784,-9.798530094483578,-0.28858654120968485,-0.23482782507796846,0.6443922598750809,0.031262141418784535,1.4468389831499626,-0.25632793930316233,-0.6621132830982867
330,16.5,-1.94,-9.9,-0.0694,-0.10800000000000001,0.79,-0.0182,0.132,-0.313,-0.0524,60.0,16500000000.0,-1.2931711312248866,-9.838822831774587,-0.17941288643943676,-0.14257713206511402,0.7406826682601015,-0.0027133190555601733,0.7865781476384343,-0.27876637474543847,-0.35744369845075274
331,16.6,-2.34,-9.69,-0.424,-0.23199999999999998,0.494,-0.0476,-0.307,-0.10300000000000001,-0.255,60.0,16600000000.0,-1.778898593505112,-9.77972630769566,-0.3012381961038617,-0.2076205963009234,0.5775514190675435,-0.03354590383060915,0.23742586533161092,-0.20917435974785376,-0.30625327600979646
332,16.6,-1.41,-9.61,-0.622,-0.268,0.32899999999999996,-0.15,0.5770000000000001,-0.0072900000000000005,-0.29600000000000004,60.0,16600000000.0,-1.6077300158023737,-9.712329210636048,-0.4610050119562137,-0.251538739424417,0.4131843705401637,-0.11353802650584002,0.40794675732528435,-0.1292413269675579,-0.3011297855601535
333,16.7,-0.912,-9.57,-0.601,-0.43700000000000006,0.37,-0.19399999999999998,0.968,0.0359,-0.0795,60.0,16700000000.0,-1.284912015111046,-9.655811297072923,-0.5307345009993427,-0.38643761336135446,0.3846265507452667,-0.16880722178912527,0.6891836410911585,-0.06385613733111428,-0.19038288618790747
334,16.7,-1.46,-9.73,-0.419,-0.447,0.139,-0.302,0.266,-0.107,0.335,60.0,16700000000.0,-1.3661526749882948,-9.685270856487772,-0.47508115813112,-0.43048884558877126,0.22219371912869984,-0.2602971028073601,0.47667732956647824,-0.08093829197084976,0.07214737647594069
335,16.8,-1.66,-9.69,-0.35200000000000004,-0.52,0.408,-0.28,-0.0932,-0.0592,0.631,60.0,16800000000.0,-1.5024975114967138,-9.687148594965747,-0.4137762082332944,-0.4955965176993008,0.3450674020732284,-0.27383098985662613,0.1905071709781868,-0.07233134685503978,0.3514022264894202
336,16.8,-1.79,-9.76,0.151,-0.314,0.512,-0.33399999999999996,-0.39299999999999996,-0.131,1.35,60.0,16800000000.0,-1.6358983482774239,-9.716077396733368,-0.13246933141694328,-0.363508752270321,0.45545994017759933,-0.31516097365308493,-0.10250736644614272,-0.09556030408548921,0.8503947608156965
337,16.9,-2.18,-9.87,0.19399999999999998,-0.009470000000000001,0.591,-0.191,-0.943,-0.23,1.47,60.0,16900000000.0,-1.8883609775491708,-9.777198787256287,0.030140334840887684,-0.10599175268467093,0.5450925912486381,-0.22987501392393556,-0.5245699821428795,-0.1487896526716989,1.160007303201053
338,16.9,-2.55,-9.97,-0.9790000000000001,0.048,0.74,-0.115,-1.41,-0.315,0.285,60.0,16900000000.0,-2.1953607710162384,-9.853758714453905,-0.47249789145203996,0.006017155825473533,0.6739848611403519,-0.1509675656573285,-0.9691983727768116,-0.2145981034786401,0.7227720972748656
339,17.0,-2.42,-11.0,-0.33299999999999996,0.0278,0.414,0.11900000000000001,-1.3,-1.31,0.929,60.0,17000000000.0,-2.299593174116609,-10.308921970855534,-0.40301600664891946,0.02186133239542346,0.5020568832300769,0.03447269324946001,-1.1353140188562976,-0.6483057531421064,0.825822789050718
340,17.0,-1.37,-12.2,0.919,0.537,-0.0635,0.431,-0.151,-2.49,2.11,60.0,17000000000.0,-1.8682629141379603,-11.059853871401579,0.25546110584188264,0.39655750138432977,0.12805413190399284,0.3068466150592757,-0.6410299209279046,-1.3774965018534648,1.4675173635512402
341,17.1,-1.67,-11.9,1.89,1.57,0.00611,0.652,-0.18100000000000002,-2.25,2.61,60.0,17100000000.0,-1.7762691090738636,-11.393469035099763,1.069601337410365,1.2500838539123236,0.047412481091064176,0.5439318890513448,-0.41002084114134185,-1.7229509532954974,2.0384081219230303
342,17.1,0.917,-9.98,0.953,2.11,-0.0849,0.711,2.74,-0.35,0.789,60.0,17100000000.0,-0.5265950565281514,-10.832191592637402,1.0115238981799366,1.875560577458618,-0.040085758173880034,0.6586907047847085,1.1717967230393134,-1.1793519631549163,1.4140873599206927
343,17.2,1.04,-10.8,-2.94,1.87,-1.15,0.13699999999999998,3.1,-1.25,-4.17,60.0,17200000000.0,0.20030339630081562,-10.819408644140557,-0.9566731681311464,1.8715159863348734,-0.7740719973718815,0.3003422522091213,2.140065126499774,-1.2073239757206196,-1.3762431906611678
344,17.2,-2.99,-11.4,2.31,1.22,0.0996,0.0526,-0.956,-2.01,0.271,60.0,17200000000.0,-1.2799940529752853,-11.049956681340873,0.6704095741371434,1.3976231327780502,-0.19631273017313522,0.13016852484517716,0.5853420366111441,-1.5251313002157527,-0.5531269616165542
345,17.3,-0.675,-8.7,1.19,0.8859999999999999,-0.375,0.0581,1.38,0.546,-1.37,60.0,17300000000.0,-0.9992774496073095,-10.116807582817701,0.9292100966773433,1.0254840407361645,-0.3144786163719538,0.08066477896508056,0.9843882575881382,-0.7050984521891686,-0.9613128710045387
346,17.3,-0.38299999999999995,-7.85,1.35,0.364,-0.325,0.0141,1.62,1.31,-1.53,60.0,17300000000.0,-0.7133253501462198,-9.216676364853932,1.1387994878909753,0.5443407019850126,-0.3214363991675795,0.034941546837901585,1.3035676768204953,0.0927490201870661,-1.2454819511008934
347,17.4,-0.888,-8.22,2.11,0.0675,-0.5670000000000001,-0.162,1.03,0.9079999999999999,-0.902,60.0,17400000000.0,-0.7943742106086069,-8.820904249519922,1.6225403974325516,0.1975013084054298,-0.48382758245805285,-0.10033726365074648,1.1661926491759107,0.41553520727000753,-1.0738463589406835
348,17.4,-0.56,-8.14,2.72,-0.133,-0.42100000000000004,-0.0848,1.21,1.01,-0.337,60.0,17400000000.0,-0.6856248227052855,-8.550522748566012,2.1691692046619084,-0.04289527268970919,-0.4422797065779665,-0.08966474223196176,1.1881910106472016,0.650904470563369,-0.7056492461037307
349,17.5,-1.29,-8.72,3.3,-0.315,-0.058,0.0893,0.424,0.456,0.309,60.0,17500000000.0,-0.9660542562347948,-8.617820917078275,2.7324196835020875,-0.24081595756727744,-0.1881555469933704,0.033265831165958715,0.8044440996734774,0.5737350184949973,-0.1986359191659175
350,17.5,-1.34,-9.11,3.65,-0.322,0.0379,0.124,0.425,0.11199999999999999,0.816,60.0,17500000000.0,-1.1395647063884287,-8.813261162227697,3.189453247038941,-0.29986675380146255,-0.03866501998324612,0.09559097445722567,0.6139020838953014,0.3909180823218463,0.3083707480342124
351,17.6,-1.24,-8.94,3.73,-0.226,-0.304,-0.0128,0.535,0.304,0.993,60.0,17600000000.0,-1.1861665821835898,-8.863587975479248,3.4586917947309836,-0.2461383252170639,-0.2141310278780124,0.02113740054931687,0.5742805491221713,0.3565041895528833,0.6504753189674001
352,17.6,-2.17,-7.7,4.09,-0.337,-0.434,0.0477,-0.47,1.58,1.4,60.0,17600000000.0,-1.6426642962189135,-8.401536411360187,3.7731373787375038,-0.3122283475818709,-0.3595303629567913,0.039383203832456595,0.04988360352976018,0.8409287102141693,1.0250076974918065
353,17.7,-2.69,-9.58,3.9,-0.45299999999999996,-0.248,0.198,-0.9690000000000001,-0.276,1.32,60.0,17700000000.0,-2.1286269957883013,-8.869494856579072,3.8363258674100917,-0.41462136430972163,-0.285775334584738,0.14833680786622244,-0.46175997841982563,0.3986978271082194,1.1724133729286768
354,17.7,-0.0575,-9.58,3.02,-0.747,-0.22399999999999998,7.64e-05,1.71,-0.23600000000000002,0.614,60.0,17700000000.0,-1.167626232714066,-9.151630742034728,3.429725721981397,-0.6563834398481578,-0.24492331224150293,0.04649698842631529,0.628813164501159,0.14739890320124338,0.8933780158359279
355,17.8,0.44299999999999995,-13.9,3.2,-0.693,0.299,-0.36200000000000004,2.11,-4.49,1.15,60.0,17800000000.0,-0.420297347607558,-11.037170084994424,3.3153026782867987,-0.6830172233877231,0.11477315458491516,-0.23409888323122507,1.3726073478893759,-1.6887083657761077,1.021610265781263
356,17.8,-1.6,-10.8,2.15,0.159,-0.392,0.122,-0.0175,-1.36,0.21100000000000002,60.0,17800000000.0,-0.9676781576391231,-10.942991814892958,2.7348822756894346,-0.07055955853847506,-0.22035591062428228,0.010504828794681259,0.6745496767369721,-1.5585613079327298,0.6165538214290787
357,17.9,0.46399999999999997,-7.03,-4.02,-0.83,0.63,-0.0494,2.08,2.46,-5.9,60.0,17900000000.0,-0.30338099352127634,-9.389174112022468,-0.6296271112721747,-0.6229533805694931,0.34198442451668065,-0.030643696394834108,1.3803119531229102,0.032526760304412594,-2.6397238938205554
358,17.9,-1.75,-11.0,0.11699999999999999,-0.706,0.37200000000000005,0.0483,-0.125,-1.41,-1.27,60.0,17900000000.0,-0.9746107020958399,-10.028820202172321,-0.25774292075752786,-0.6833589393028384,0.36183372952083376,0.023582594242973307,0.6244030242952372,-0.5386196937776935,-1.9552821611886553
359,18.0,-0.40700000000000003,-9.96,1.03,-0.361,0.35600000000000004,-0.0806,1.23,-0.34600000000000003,-0.0167,60.0,18000000000.0,-0.7112399314060123,-10.001492264888203,0.3836632331956616,-0.4488848713592447,0.35797588846229084,-0.04798025137873435,0.9285102059823185,-0.4623548585630927,-0.9865858267985083
360,18.0,-1.42,-9.58,-0.9359999999999999,-0.41600000000000004,0.327,-0.072,0.15,0.0616,-1.76,60.0,18000000000.0,-1.0401038432963978,-9.834121023789159,-0.27364197683536523,-0.42496542429880463,0.3374915291444949,-0.06447937330976847,0.5375727593227908,-0.2549029245427731,-1.3730556293898148
361,18.1,-2.01,-10.0,-0.251,-0.433,0.852,0.0361,-0.457,-0.366,-0.778,60.0,18100000000.0,-1.4901346429020836,-9.899990239924332,-0.26236432845828733,-0.43080952860679605,0.6777359642906837,0.0046084255113017225,0.038137132023495,-0.298890115639818,-1.07571037308221
362,18.1,-1.28,-9.79,-0.0527,-0.341,0.444,0.0147,0.303,-0.113,-0.298,60.0,18100000000.0,-1.3926323747244007,-9.856313979288156,-0.15793355253437424,-0.36548480756218144,0.5231663818713269,0.011540310809186327,0.1711409314990003,-0.2252897590306379,-0.6870937877672489
363,18.2,-1.45,-9.75,-0.5870000000000001,-0.24,0.377,-0.0164,0.13,-0.0742,-0.653,60.0,18200000000.0,-1.419250915079275,-9.814097547526359,-0.37164536526462016,-0.2742109786240372,0.4265065605863777,-0.007651840737154022,0.1504815585362604,-0.1654680723438231,-0.6700573522418594
364,18.2,-1.08,-9.64,-0.297,-0.29100000000000004,0.39,-0.0799,0.478,0.0401,-0.191,60.0,18200000000.0,-1.2618388646109535,-9.744964938716182,-0.33446558135911214,-0.28642280739262604,0.4023647637011461,-0.05727897481546554,0.314948533352171,-0.08407652939608354,-0.4306756481213089
365,18.3,-1.61,-9.88,0.00479,-0.264,0.32799999999999996,-0.162,-0.129,-0.193,0.278,60.0,18300000000.0,-1.4233852745499784,-9.798586328110087,-0.16548727127017232,-0.2701131395602892,0.3531873536782934,-0.1292116674228895,0.0920149052305671,-0.12720311759108185,-0.07655524330838515
366,18.3,-1.45,-9.74,0.153,-0.298,0.349,-0.142,-0.0425,-0.0412,0.5720000000000001,60.0,18300000000.0,-1.4357345014952414,-9.775322074415806,-0.006853358274748783,-0.29039719775154105,0.350418261388241,-0.13799595429219658,0.024466768081210927,-0.09315149533513777,0.24752341848278092
367,18.4,-1.45,-9.81,-0.254,-0.287,0.261,-0.245,-0.134,-0.11199999999999999,0.305,60.0,18400000000.0,-1.4423537000318725,-9.789092568226573,-0.12995353851841085,-0.28792617997904113,0.29128597269092216,-0.21149685272248375,-0.055109061493291214,-0.10061427462209144,0.27624407931419914
368,18.4,-1.64,-9.72,-0.14400000000000002,-0.332,0.44,-0.256,-0.424,-0.009059999999999999,0.501,60.0,18400000000.0,-1.5340613702147474,-9.761656567445574,-0.13694987522078841,-0.3199841243794019,0.389630552931417,-0.24206599647956153,-0.24035169496714875,-0.06436475612738413,0.3885530793348856
369,18.5,-1.54,-9.64,-0.177,-0.292,0.44799999999999995,-0.326,-0.391,0.0697,0.517,60.0,18500000000.0,-1.5368168705343574,-9.713347852839393,-0.15689826503119414,-0.2996293219636856,0.42823027567891764,-0.2997201227313552,-0.31600139709918185,-0.011283859825487526,0.4527371426229164
370,18.5,-2.2,-10.0,-0.225,-0.207,0.302,-0.244,-1.09,-0.309,0.48200000000000004,60.0,18500000000.0,-1.8445331722944671,-9.82717513022103,-0.19081875362186707,-0.23225357757155696,0.34475418899851895,-0.2614460680423078,-0.7046733124787601,-0.12916001858447987,0.46735959029083496
371,18.6,-2.09,-9.66,-0.0862,-0.19399999999999998,0.327,-0.14800000000000002,-0.9359999999999999,0.0485,0.627,60.0,18600000000.0,-1.958429484229743,-9.76079116109282,-0.13870966139918325,-0.20442909513552215,0.33301333914116105,-0.1835201601239168,-0.8208365438148739,-0.05881824357975453,0.5471308054729621
372,18.6,-2.69,-10.6,-0.706,-0.0547,0.21,-0.113,-1.45,-0.941,-0.0038,60.0,18600000000.0,-2.297877466256175,-10.094034437500408,-0.4212687789941123,-0.09552071293030473,0.2516646173059046,-0.1350799819431617,-1.1367779068528179,-0.40810464771738625,0.27183442526642915
373,18.7,-2.62,-12.8,-0.7090000000000001,0.0504,-0.47200000000000003,0.0752,-1.39,-3.07,0.0010400000000000001,60.0,18700000000.0,-2.447341932480996,-11.168551818338505,-0.5645835442766982,0.010617566961044891,-0.226894774393414,0.00936097563006727,-1.263936154667113,-1.4620414830547215,0.1365202908852371
374,18.7,-1.25,-11.8,1.05,0.509,-0.7090000000000001,0.39299999999999996,0.10400000000000001,-2.1,1.62,60.0,18700000000.0,-1.8917765259683144,-11.41929492195347,0.2396171988228334,0.37312576363215333,-0.545710940009778,0.27288196693178174,-0.5770119906386102,-1.71463138904039,0.8778050243532679
375,18.8,-0.192,-9.32,1.55,1.54,-0.618,0.598,1.4,0.354,1.67,60.0,18800000000.0,-1.103081993449644,-10.585681559934917,0.8922999410457938,1.2218744964612394,-0.5935156739866406,0.49620497838839367,0.4157662803373602,-0.8955883433723208,1.2736594496405242
376,18.8,0.7490000000000001,-9.52,0.0934,2.07,-0.605,0.643,2.61,0.0765,-0.716,60.0,18800000000.0,-0.24371787629534514,-10.162508108702223,0.4943794083636447,1.8387750936687248,-0.6011102710495151,0.5970382311129742,1.517624787398796,-0.5107047920374885,0.2794401312262952
377,18.9,-1.44,-11.6,-1.8,1.43,-1.09,0.368,0.5770000000000001,-2.13,-3.58,60.0,18900000000.0,-0.7987915591925963,-10.733324805130424,-0.6484178459775259,1.541444509265494,-0.9244130562737861,0.43971226415938014,1.045279731335301,-1.1518400751760063,-1.6490958411110714
378,18.9,-1.71,-10.9,1.39,0.889,-0.324,0.46,0.41100000000000003,-1.66,-1.02,60.0,18900000000.0,-1.2215913420241604,-10.799510041854877,0.3668886639908072,1.0668762545737334,-0.5273599207259367,0.45364788078422186,0.7267692051924515,-1.3530382330252582,-1.334740914192611
379,19.0,-1.28,-8.44,0.603,0.532,-0.8270000000000001,0.44799999999999995,1.0,0.6709999999999999,-2.21,60.0,19000000000.0,-1.248692885064681,-9.862567289312636,0.4844923062835948,0.6778235704625126,-0.7255119107044156,0.4497683706756857,0.863975049467604,-0.5516511666231309,-1.7721019514511789
380,19.0,-0.091,-8.69,1.21,0.0889,-0.9570000000000001,0.251,2.21,0.344,-1.82,60.0,19000000000.0,-0.7115245942977912,-9.396950020524937,0.8458572392958303,0.24945851187541856,-0.8785949885926161,0.3132347095154937,1.5398962797860514,-0.19703174430303694,-1.7960363070758627
381,19.1,-0.0239,-9.17,2.13,-0.018,-0.691,0.0917,2.21,-0.145,-1.0,60.0,19100000000.0,-0.39246750067599256,-9.306830010925795,1.4854702767242578,0.05491734134729642,-0.7545384181494579,0.16106289991656278,1.876396241229354,-0.17643056715554173,-1.3982623731290365
382,19.1,-0.256,-8.72,2.15,0.0516,-0.414,0.0648,1.91,0.303,-1.04,60.0,19100000000.0,-0.32914672849154564,-9.073804608199847,1.816462991001553,0.05250440961751364,-0.5293403753953303,0.09494008050606298,1.8932707209762414,0.013392654188334574,-1.2192410804420022
383,19.2,-0.943,-9.04,2.92,0.029,-0.272,-0.00909,1.17,-0.0264,-0.31,60.0,19200000000.0,-0.6139740141690242,-9.060381053223468,2.366118890434887,0.035408017720745116,-0.35916120260888945,0.02348199705397233,1.5300723638174976,-0.002362640207433292,-0.7648994916096183
384,19.2,-2.43,-8.91,3.42,0.00702,-0.203,-0.0415,-0.391,0.109,0.166,60.0,19200000000.0,-1.4566082064362234,-9.00066587789187,2.89104190283709,0.014759438647409168,-0.25589180012560486,-0.021154023992991017,0.5653847774978994,0.04172969748488376,-0.29973534384142203
385,19.3,-1.92,-8.64,2.85,-0.218,-0.146,-0.0311,0.0561,0.40399999999999997,-0.386,60.0,19300000000.0,-1.6716214949044326,-8.857448475712795,2.8705994757194997,-0.1545426801716919,-0.18322035456619815,-0.02798589735950173,0.3096418332810555,0.18516510347964937,-0.34284121008859475
386,19.3,-1.77,-8.7,3.5,-0.35200000000000004,-0.536,0.0715,0.16399999999999998,0.387,0.369,60.0,19300000000.0,-1.717269009700568,-8.794926868229195,3.184094795349421,-0.2981671159752861,-0.4165135323827614,0.04035079690452102,0.2365061895127633,0.26507854991633467,0.012860999884540814
387,19.4,-2.88,-8.71,3.12,-0.47200000000000003,-0.316,0.19699999999999998,-0.9670000000000001,0.42700000000000005,0.106,60.0,19400000000.0,-2.2567750282791534,-8.761203102540826,3.152170045597515,-0.4246078605673296,-0.3500439460381865,0.14795286324553408,-0.3678476644720216,0.3291888727484348,0.05940192478029022
388,19.4,-0.342,-9.47,3.19,-0.584,-0.0281,0.10300000000000001,1.65,-0.293,0.37799999999999995,60.0,19400000000.0,-1.3683214179363152,-9.042660793504112,3.1710126285440348,-0.5405448392817391,-0.1371424245993398,0.11707481879679361,0.6454366885830367,0.08284267407935503,0.21860321383279518
389,19.5,0.0335,-13.1,1.06,-0.7829999999999999,0.252,-0.23800000000000002,1.98,-3.82,-1.46,60.0,19500000000.0,-0.7178777432845602,-10.653797927084012,2.1195476692113626,-0.7168993291366131,0.12019745184419497,-0.12682546795354965,1.315602321368228,-1.4624283246515062,-0.620183425847818
390,19.5,-2.01,-12.6,4.31,0.18600000000000003,-0.5579999999999999,0.10099999999999999,-0.149,-3.3,1.99,60.0,19500000000.0,-1.3174211168557568,-11.426619372206723,3.2105803410086127,-0.06015786858416339,-0.3282945214060923,0.029667456976368273,0.580136179230141,-2.189986781401402,0.6841075018231622
391,19.6,1.19,-5.53,-3.97,-0.43200000000000005,0.652,0.0245,3.08,3.79,-6.36,60.0,19600000000.0,-0.15398031011171676,-9.085119014854987,-0.365963133713338,-0.33062451172671725,0.3199742229387027,0.026117939217288805,1.8354702124062063,0.17769775443141222,-2.83578522209762
392,19.6,-1.55,-11.2,0.591,-0.653,0.519,-0.207,0.335,-1.73,-1.37,60.0,19600000000.0,-0.8017319664944508,-9.924921281117259,0.11068640554208392,-0.5651106158465936,0.4515899592647851,-0.13401037427099985,1.081992621042524,-0.5776260801013866,-2.103342308331636
393,19.7,-1.74,-9.85,0.5870000000000001,-0.44799999999999995,0.402,-0.0476,0.11,-0.364,-1.05,60.0,19700000000.0,-1.2370873588096054,-9.89517079046043,0.34793134046806046,-0.47992793273006923,0.418796127306298,-0.07465523739774951,0.5938958515144996,-0.49304408928398413,-1.5769942900054885
394,19.7,-0.182,-9.93,-0.725,-0.52,-0.115,-0.14400000000000002,1.6,-0.377,-2.07,60.0,19700000000.0,-0.7475279242361079,-9.909001312477594,-0.1864802909486984,-0.509075119445188,0.06579676288444553,-0.12228803143120312,1.0991221108391862,-0.447098203804234,-1.8233458601855672
395,19.8,-2.13,-10.1,0.342,-0.368,1.14,-0.0396,-0.4,-0.5539999999999999,-0.715,60.0,19800000000.0,-1.3889935770360051,-9.984845516754985,0.07674812041979917,-0.406461377159768,0.7761673220407452,-0.06548976455858548,0.34632147629897103,-0.48942434732102,-1.2695129514439898
396,19.8,-1.45,-9.78,-0.431,-0.307,0.478,0.063,0.32,-0.16899999999999998,-1.21,60.0,19800000000.0,-1.4173005157189844,-9.903502892664495,-0.17615388929909181,-0.33411621051909746,0.5789892711066519,0.022769634656697485,0.33310385431721323,-0.3625572144671566,-1.2397747530322245
397,19.9,-1.42,-9.37,-0.73,-0.307,0.185,-0.0207,0.361,0.255,-1.3,60.0,19900000000.0,-1.4185530536941382,-9.691653111055492,-0.45201665518715956,-0.3143927134690295,0.3184441794696024,-0.007089582860145865,0.3471122109499269,-0.11804485713705865,-1.2698688759120607
398,19.9,-1.54,-9.92,-0.14800000000000002,-0.376,0.255,-0.1,0.201,-0.278,-0.494,60.0,19900000000.0,-1.4749042922757474,-9.782327866534962,-0.3005903467935901,-0.3592039669260185,0.27648854232821396,-0.07090958978929868,0.2737403621089002,-0.18137665496031036,-0.8821724642134645
399,20.0,-1.53,-9.72,-0.23,-0.41600000000000004,0.19899999999999998,-0.21600000000000003,0.14300000000000002,-0.0557,-0.33899999999999997,60.0,20000000000.0,-1.500468629858621,-9.757578074747972,-0.2654303156701068,-0.400515676842673,0.22524537223194302,-0.17057194713429882,0.20808765681747088,-0.1316169005743506,-0.6107528677803513
400,20.0,-1.86,-9.91,0.19899999999999998,-0.32799999999999996,0.25,-0.256,0.0185,-0.0349,-0.125,60.0,20000000000.0,-1.667290816850935,-9.818103542873354,-0.034104276146646156,-0.3477699899171075,0.24161560683549704,-0.22925233822753258,0.11288413298554481,-0.09332331844274819,-0.3680254602168558
401,20.1,-1.37,-9.73,-0.105,-0.314,0.305,-0.245,0.0627,-0.0278,0.165,60.0,20100000000.0,-1.5293481904493862,-9.783118148142213,-0.06941641162268684,-0.32320673597784944,0.28353170887177115,-0.240069383318643,0.08768362117708749,-0.06738035969827016,-0.1016762561320233
402,20.1,-1.59,-9.83,-0.414,-0.305,0.276,-0.34299999999999997,-0.302,-0.122,0.0159,60.0,20100000000.0,-1.5574905822412541,-9.801734526648735,-0.2410485273111499,-0.3099637162564515,0.2785509854475338,-0.31077224347084054,-0.10800028181832762,-0.0890061736830436,-0.04292419935456708
403,20.2,-1.6,-9.68,-0.259,-0.24600000000000002,0.536,-0.28800000000000003,-0.447,0.0389,0.313,60.0,20200000000.0,-1.5772149187593367,-9.753394839917988,-0.24998989850122907,-0.26343846320407543,0.44880201990995494,-0.2951300200393112,-0.2782327116937929,-0.038363675569525454,0.13492870150571662
404,20.2,-1.62,-9.75,-0.266,-0.21100000000000002,0.37799999999999995,-0.23600000000000002,-0.544,-0.0269,0.402,60.0,20200000000.0,-1.5970671539951278,-9.752046776110204,-0.2579643003569893,-0.22529631976769193,0.40198064042482695,-0.25451371184718286,-0.4116906890597614,-0.03382480843240978,0.2683824197409268
405,20.3,-2.17,-9.86,-0.287,-0.131,0.39399999999999996,-0.182,-1.19,-0.132,0.47,60.0,20300000000.0,-1.8629074317359169,-9.794914002475569,-0.2724265636354571,-0.1567080483307085,0.39670303905096277,-0.2047041652254753,-0.802527285794643,-0.07269577774445957,0.3691293541023831
406,20.3,-2.25,-11.6,-0.7090000000000001,0.0663,0.257,-0.0274,-1.29,-1.86,0.0519,60.0,20300000000.0,-2.042517979242643,-10.511699381531056,-0.48987748876892356,0.005501208162385751,0.30431742302672554,-0.08291423876962759,-1.0473170435771386,-0.7803516277355453,0.21061200097458727
407,20.4,-1.95,-13.0,-0.591,0.21899999999999997,-0.254,0.156,-0.975,-3.3,0.11599999999999999,60.0,20400000000.0,-1.9995897555983386,-11.499783676426198,-0.5402451627461792,0.16079372090898267,-0.06489787750362519,0.08119554357771841,-1.0110022579204527,-1.777967948637321,0.16333502526452118
408,20.4,-0.809,-10.4,1.71,0.765,-0.401,0.444,0.318,-0.688,2.19,60.0,20400000000.0,-1.4471573591892466,-11.063068213946568,0.5805695034095587,0.6002749455228464,-0.28716219649822644,0.3304053052966228,-0.34362918442588997,-1.3464117743477886,1.1760457714802166
409,20.5,-0.429,-8.65,1.04,1.63,-0.34600000000000003,0.565,0.945,1.06,0.963,60.0,20500000000.0,-0.9747334030595953,-10.104857954326654,0.8094051857155176,1.3492655671641898,-0.3260716248940601,0.4915479963976161,0.3034701088654024,-0.39362976092337343,1.0695882467808822
410,20.5,0.5870000000000001,-9.68,-1.52,1.93,-0.583,0.627,2.23,-0.0637,-2.53,60.0,20500000000.0,-0.25009072891122397,-9.936150376320928,-0.3508379171939191,1.77167405833872,-0.49597835451473016,0.5845897272672771,1.2708982607236763,-0.26299910383087366,-0.7291015282998585
411,20.6,-1.68,-12.4,-0.429,1.17,-0.867,0.402,0.113,-2.96,-2.25,60.0,20600000000.0,-0.9135671133739651,-10.91452522506179,-0.38976931798322795,1.3340346523135616,-0.7413349468698015,0.45916916418992926,0.6894469318970654,-1.330835485326208,-1.4890841608058738
412,20.6,-0.9840000000000001,-10.5,1.21,0.7,-0.511,0.42100000000000004,0.94,-1.18,-1.1,60.0,20600000000.0,-0.946247911840018,-10.749920570109188,0.4070527155025307,0.8728571589220444,-0.5890144385646685,0.43295083350595276,0.8152649054599742,-1.271114454898415,-1.2946614612119307
413,20.7,-0.4,-7.95,0.565,0.46,-0.7020000000000001,0.302,1.63,1.27,-2.08,60.0,20700000000.0,-0.6927894538556344,-9.638094406418753,0.4857239777284164,0.572557448870814,-0.6637318014720761,0.3430009214564424,1.2243930783346655,-0.2649989546807878,-1.687089754908174
414,20.7,-0.52,-9.01,1.38,0.0657,-0.755,0.11699999999999999,1.49,0.165,-1.44,60.0,20700000000.0,-0.6126153188280009,-9.388683226783565,0.9311499586886747,0.20388478784181768,-0.7240874552789347,0.187761275895532,1.3577705157738902,-0.0947474249271191,-1.563620711833977
415,20.8,-0.124,-9.05,1.78,0.0192,-0.47600000000000003,0.10400000000000001,1.82,0.11599999999999999,-1.11,60.0,20800000000.0,-0.3858983201203691,-9.254194899134056,1.3539499021011738,0.06955070185505807,-0.5600272357664069,0.13022580086560567,1.589884153892592,-0.011305197964594046,-1.3369495314218969
416,20.8,-0.127,-9.01,1.68,0.0394,-0.23,0.0648,1.8,0.146,-1.25,60.0,20800000000.0,-0.26576977178387695,-9.157227146611541,1.516350725216984,0.04762000021972504,-0.34178023737170515,0.08528493181252494,1.6953961095950099,0.05097739488003402,-1.2935014413522752
417,20.9,-1.9,-9.29,2.79,-0.0449,-0.20199999999999999,0.027,-0.00587,-0.126,-0.146,60.0,20900000000.0,-1.0240508802949595,-9.209950170733059,2.150737032715,-0.019676228584125335,-0.24934357522441852,0.04524911276990119,0.8410866490994555,-0.019094105917247202,-0.7201027667785307
418,20.9,-2.36,-9.02,2.92,-0.0822,-0.214,0.0789,-0.486,0.155,0.0143,60.0,20900000000.0,-1.6439298282828099,-9.134522657348292,2.533895855154734,-0.06515411327300702,-0.22597087100911245,0.06836385072797208,0.1746755132664678,0.04983580026479872,-0.3531266941855655
419,21.0,-1.71,-8.64,2.58,-0.16399999999999998,-0.46399999999999997,0.14,0.158,0.54,-0.306,60.0,21000000000.0,-1.6745863366751144,-8.938151797518465,2.556859626472304,-0.13705160237475358,-0.38337951807115167,0.11757059899552963,0.16630172479826133,0.24390884697280937,-0.3295778024458881
420,21.0,-2.38,-9.14,3.26,-0.284,-0.511,0.3,-0.495,0.0606,0.428,60.0,21000000000.0,-2.001897593027798,-9.018304242354233,2.9070836962822697,-0.24393739551149196,-0.46777492413783944,0.24288104930518606,-0.16577820122075765,0.17133050563841018,0.04897867959388291
421,21.1,-1.93,-8.87,3.55,-0.242,-0.254,0.34,0.0634,0.33399999999999996,0.8059999999999999,60.0,21100000000.0,-1.9685371605942907,-8.959413767173634,3.2273110068823985,-0.24252819210221205,-0.32640557855195096,0.309591892135614,-0.05069385043994473,0.23573700726889266,0.42725708693138137
422,21.1,-0.5670000000000001,-7.84,2.54,-0.384,-0.228,0.11599999999999999,1.52,1.36,-0.139,60.0,21100000000.0,-1.318225368385765,-8.514903564566144,2.8849712924486184,-0.34543047642760727,-0.26132997247391787,0.17661395174175204,0.738047306581552,0.6808717960660835,0.1443022687619136
423,21.2,-0.79,-10.7,0.213,-0.866,-0.0116,-0.222,1.25,-1.41,-2.23,60.0,21200000000.0,-1.0731293589372979,-9.382587825139892,1.554100944866368,-0.7240768817746144,-0.09618354903921131,-0.09719328882319395,0.995129973924713,-0.14697698545654492,-1.0421204521821845
424,21.2,-2.56,-16.2,5.45,-0.377,-0.069,0.0538,-0.617,-6.81,3.42,60.0,21200000000.0,-1.7630357573813988,-12.089728033865748,3.4945919559546135,-0.47162373763144666,-0.07820706772851893,0.006523743046031469,0.1855812110007754,-2.7850992916219095,1.187570857849596
425,21.3,-0.0958,-8.38,1.19,0.203,0.396,0.249,1.93,1.0,-0.8370000000000001,60.0,21300000000.0,-0.9894401055527864,-10.616624716561143,2.3467079837636255,0.01907700660162731,0.23538605057599787,0.17308026596143494,1.0615602370323332,-1.2864469627560973,0.17590655001081434
426,21.3,1.5,-6.32,-1.42,-0.696,0.596,-0.28300000000000003,3.59,3.08,-3.27,60.0,21300000000.0,0.1656575041706232,-8.910469438390347,0.47056510762179315,-0.5010482024017839,0.4738600549639188,-0.14020047990328688,2.3312439886194323,0.4423810787564877,-1.5459895301555062
427,21.4,-3.39,-11.8,1.27,-0.446,0.867,-0.439,-1.43,-2.33,-0.225,60.0,21400000000.0,-1.4841639139370255,-10.057879013751425,0.8687520831036843,-0.4610078246064621,0.7338434781512311,-0.345445364101312,0.44249403951457,-0.6553008909187341,-0.8859000344720305
428,21.4,-1.36,-9.61,-1.09,-0.44,0.18,-0.107,0.509,-0.0658,-2.32,60.0,21400000000.0,-1.4265519941487765,-9.880029699465185,-0.10687408361163875,-0.4457273714393675,0.3675868073240374,-0.18165765370120254,0.47589073962714157,-0.42189700652310047,-1.6025100098414446
429,21.5,-0.922,-9.91,-0.187,-0.39399999999999996,0.244,-0.0977,0.889,-0.315,-1.15,60.0,21500000000.0,-1.192440391468505,-9.89193060576334,-0.1467836496476514,-0.40810245326911726,0.28585885714555703,-0.12398728548901516,0.683338090834354,-0.3795727663896143,-1.376393820606543
430,21.5,-0.977,-10.2,-0.067,-0.34700000000000003,1.02,-0.109,0.7859999999999999,-0.5579999999999999,-0.754,60.0,21500000000.0,-1.0924762738859046,-10.014262425102869,-0.10704456577427421,-0.3636583928590973,0.7713463603718824,-0.11369254303454265,0.7348909026753053,-0.45021831905380405,-1.0653878613785823
431,21.6,-1.53,-9.6,-0.948,-0.302,0.66,-0.0903,0.182,0.045,-1.37,60.0,21600000000.0,-1.2954868127041672,-9.84976227739285,-0.5259123404454008,-0.31880994679356517,0.6977130329273402,-0.09762424624147152,0.45725066210838367,-0.25414417868197225,-1.2176004797316593
432,21.6,-2.17,-9.83,-0.395,-0.266,0.496,-0.0567,-0.498,-0.172,-0.593,60.0,21600000000.0,-1.7012600539204548,-9.841914804638492,-0.4607067979255443,-0.28039760271721303,0.5643202049173445,-0.0695134509005205,-0.022438946543470617,-0.22162044642401452,-0.9054918612604834
433,21.7,-1.53,-9.59,-0.278,-0.321,0.332,-0.13699999999999998,0.11599999999999999,0.0745,-0.272,60.0,21700000000.0,-1.6217955544408418,-9.74188150902394,-0.36970317669942226,-0.3099305563062011,0.41068685198898847,-0.11586984176279294,0.04707968914495769,-0.10437607172869372,-0.5889402898596203
434,21.7,-1.52,-9.83,-0.23199999999999998,-0.32899999999999996,0.26899999999999996,-0.193,0.0352,-0.146,-0.0384,60.0,21700000000.0,-1.5745625146161242,-9.776872627457221,-0.3011152079563123,-0.3238010857581552,0.31698933690177206,-0.16885041747837187,0.04111417268046731,-0.12085643037150438,-0.3138390485951104
435,21.8,-1.02,-9.8,-0.20800000000000002,-0.284,0.382,-0.223,0.43200000000000005,-0.111,0.16,60.0,21800000000.0,-1.3172460780092727,-9.786056398053192,-0.25473586855448277,-0.294850995626742,0.3599808859936545,-0.20604567603629353,0.23740178926419703,-0.11695392767641923,-0.07706489731662405
436,21.8,-1.56,-9.75,-0.271,-0.3,0.26,-0.24100000000000002,-0.22,-0.0507,0.251,60.0,21800000000.0,-1.4298836178005714,-9.771738690464964,-0.2628367966863049,-0.29859623316963285,0.2938635227659988,-0.23005573881977728,0.00771245812712118,-0.0907216961725919,0.08686689638971151
437,21.9,-1.56,-9.58,-0.467,-0.275,0.35700000000000004,-0.34,-0.358,-0.0414,0.39399999999999996,60.0,21900000000.0,-1.4902574567348599,-9.695600758114326,-0.3645275462204611,-0.2814330565616795,0.3356156688601982,-0.30557626538768967,-0.1759340741799353,-0.0711935230762102,0.24033921833867217
438,21.9,-1.84,-10.0,-0.10300000000000001,-0.209,0.545,-0.28800000000000003,-0.7290000000000001,-0.285,0.627,60.0,21900000000.0,-1.6525376471273039,-9.816475265017871,-0.23426444904435817,-0.22874746311645255,0.4740815318249235,-0.29350315037435715,-0.4536621887973562,-0.15584693492146026,0.43355097088673833
439,22.0,-1.78,-9.74,-0.575,-0.193,0.313,-0.213,-0.679,-0.0185,0.159,60.0,22000000000.0,-1.7116800325002077,-9.786107457404198,-0.40397990462182387,-0.20274585049046168,0.36755831538388856,-0.23820567436573464,-0.5668180554440647,-0.10146651114210918,0.2963597133819558
