,Time (s),Acceleration x (m/s^2),Acceleration y (m/s^2),Acceleration z (m/s^2),Gyroscope x (rad/s),Gyroscope y (rad/s),Gyroscope z (rad/s),Linear Acceleration x (m/s^2),Linear Acceleration y (m/s^2),Linear Acceleration z (m/s^2),Timestamps,Acceleration x (m/s^2)_kalman,Acceleration y (m/s^2)_kalman,Acceleration z (m/s^2)_kalman,Gyroscope x (rad/s)_kalman,Gyroscope y (rad/s)_kalman,Gyroscope z (rad/s)_kalman,Linear Acceleration x (m/s^2)_kalman,Linear Acceleration y (m/s^2)_kalman,Linear Acceleration z (m/s^2)_kalman
0,0.251,0.113,7.75,5.91,-0.389,0.35100000000000003,-0.0978,2.19,1.61,0.7070000000000001,251000000.0,0.12239048163074909,7.3721895208123405,5.922891972967284,-0.4585568395886524,0.0773394293470534,-0.14754576551484372,1.2942413582521666,1.6340701394511203,0.04272852072234504
1,0.271,-0.0575,7.2,6.33,-0.833,-0.894,-0.358,-0.7909999999999999,2.02,-1.96,271000000.0,0.018455761884253102,7.271245089723401,6.147782014916833,-0.6942873744424427,-0.5241208253513224,-0.28191349541199007,0.22024629103641336,1.8596074603766652,-1.0198472453521403
2,0.321,0.496,6.59,6.34,-0.965,-0.8340000000000001,-0.419,-0.14400000000000002,1.53,-1.57,321000000.0,0.31993755688650205,6.837050622477158,6.264801531945626,-0.8734861546054496,-0.7271197332937924,-0.37372706888133705,0.009515224199263816,1.6501653959196392,-1.3451740315274339
3,0.371,0.982,6.27,6.94,0.14400000000000002,-1.01,-0.0715,-1.33,1.62,-0.115,371000000.0,0.7426346504463064,6.471895938152548,6.681552371070827,-0.19623226480149825,-0.9136247042236013,-0.17029008771662524,-0.7801618160277979,1.6307965839670042,-0.6055409649616617
4,0.42100000000000004,0.0718,6.23,8.43,0.517,-1.04,-0.172,-1.55,1.16,0.491,421000000.0,0.3137125856551813,6.315924118207345,7.762897535976931,0.2787974761884125,-0.9970065756337497,-0.17144169485988658,-1.2354186379227274,1.328103478110819,0.055466198480320084
5,0.47100000000000003,0.10099999999999999,6.0,8.37,-0.319,-0.33,-0.41600000000000004,-1.86,1.26,-0.425,471000000.0,0.17768147331328074,6.112186469741396,8.138474985166908,-0.1193771990098269,-0.5568806864598885,-0.336157866901078,-1.6049674258407904,1.2843097616015626,-0.23428302989777017
6,0.521,0.373,6.34,7.44,-0.0325,-0.442,-0.569,-1.89,1.45,-0.254,521000000.0,0.3025920395419928,6.259105229219921,7.706352634293821,-0.06151050301061111,-0.48107563779404966,-0.49298385414665846,-1.7736284921030046,1.3908586270964838,-0.24617428924962212
7,0.5710000000000001,0.0982,6.37,7.99,-0.0141,-0.282,-0.72,-1.56,1.04,-0.495,571000000.0,0.17187833916321618,6.330622213752882,7.881836412280228,-0.029931544669427636,-0.34971364814071926,-0.64588598317184,-1.647217182805557,1.1652346876275326,-0.39624197187701726
8,0.621,0.38299999999999995,6.06,7.7,-0.317,-0.0147,-0.638,-1.32,1.03,-0.973,621000000.0,0.306895844589393,6.156095363309705,7.7693395865300845,-0.22114073208444052,-0.12865160937803044,-0.6405745468711556,-1.4535911644777426,1.0782703253478558,-0.7440873615144081
9,0.6709999999999999,0.304,5.99,6.93,-0.528,0.486,-0.424,-1.25,0.909,-1.81,671000000.0,0.30504387413270256,6.048978747704883,7.250065308416488,-0.42553208861439334,0.27693228586179375,-0.4947051493091968,-1.33311898041823,0.9694189242908555,-1.386944260141491
10,0.721,0.402,5.75,6.57,-0.102,0.665,-0.15,-1.0,0.44799999999999995,-1.03,721000000.0,0.36704972038746525,5.856164529482733,6.82932944290976,-0.21003537571889377,0.5330025886671038,-0.26253599000474614,-1.136000535182737,0.634114007312179,-1.1716694696842456
11,0.7709999999999999,0.187,5.27,7.42,-1.0,-0.305,0.23600000000000002,-0.772,0.36700000000000005,-1.14,771000000.0,0.2519034762622654,5.478141475599584,7.1947596163096526,-0.7362112477450332,-0.01996164624355312,0.07324281764454121,-0.9206083730317145,0.4623430305479246,-1.152569453835099
12,0.821,0.47600000000000003,4.97,7.43,-0.8440000000000001,0.353,0.40299999999999997,-0.40299999999999997,0.606,-1.47,821000000.0,0.3952187514142609,5.150436103085564,7.3402956674488875,-0.8080066540654169,0.2261407455937642,0.2953440790332087,-0.6143209333452899,0.5547234359507347,-1.3440133377086219
13,0.871,0.642,4.63,7.64,-0.41600000000000004,0.884,-0.0276,-0.439,0.527,-1.47,871000000.0,0.5530414745205395,4.814802018286246,7.525713650471309,-0.5469007359139693,0.6602356314111499,0.07783164351781804,-0.5105772554948538,0.5368955419995091,-1.4199965080236223
14,0.9209999999999999,0.6579999999999999,3.78,7.36,-0.797,0.467,0.47200000000000003,-0.0154,0.153,-0.594,921000000.0,0.6201650419835143,4.1474484041299355,7.42319167656264,-0.7134856557493189,0.5327272091247996,0.34331574895545747,-0.21756311406945528,0.29002673589861905,-0.9218340888192955
15,0.971,0.718,3.73,8.51,-0.473,0.29,-0.0758,-0.18,-0.613,-0.8059999999999999,971000000.0,0.6827329134350006,3.878231997642625,8.0955674736058,-0.5533041096328406,0.3725612731561716,0.061028834038981516,-0.19533567652334702,-0.29067582538268044,-0.8519739974788392
16,1.02,0.419,2.66,8.42,-0.8270000000000001,2.43,-0.9079999999999999,-0.7140000000000001,-0.442,-0.738,1020000000.0,0.5140691938457217,3.0925827310348897,8.296284176978963,-0.7356061784865635,1.7301824477026595,-0.5916408818948599,-0.5022479504794141,-0.3879867195415767,-0.7832357248247718
17,1.07,-1.31,2.69,8.69,-0.565,0.574,-1.05,-0.773,0.298,-0.309,1070000000.0,-0.652468122585672,2.832953362140048,8.539864067482497,-0.6219696266271793,0.9672641163154603,-0.9003593391115325,-0.6624616497061384,0.053145579761801176,-0.4972219030706097
18,1.12,-3.32,4.12,9.62,-0.192,0.311,-1.04,-2.69,1.61,-0.379,1120000000.0,-2.358420675270425,3.6629818217543124,9.208111644339033,-0.3355775080348027,0.5342217932981504,-0.9944114489081028,-1.862228842157516,1.0543001924528568,-0.42592171797949585
19,1.17,-3.92,4.09,9.03,-0.22399999999999998,0.348,-1.21,-2.71,2.18,0.314,1170000000.0,-3.357089315229306,3.938369976665207,9.097919156330635,-0.2612584978575301,0.411341509265136,-1.1396167714560996,-2.3638854637454547,1.7781955012625916,0.020328582853003596
20,1.22,-4.3,4.43,9.73,-0.439,1.48,-1.36,-2.52,2.26,0.612,1220000000.0,-3.9601041353699755,4.255426711646975,9.488968299587613,-0.37964771749063586,1.1165063121197536,-1.2880514357165915,-2.4562640225362826,2.0880258720897777,0.3771684114858307
21,1.27,-4.72,3.43,9.51,-1.45,1.09,-1.31,-1.78,1.15,-0.27399999999999997,1270000000.0,-4.446076196485807,3.723101271877797,9.501980122316082,-1.0925828963746065,1.0990158840256878,-1.3028344075741205,-2.056094329576165,1.4848166498922672,-0.015554336668804625
22,1.32,-4.33,2.23,7.36,-2.47,0.773,-1.71,-0.193,-0.511,-2.34,1320000000.0,-4.371842549837758,2.7601861710148916,8.176801461228091,-2.0100463351575217,0.8838911055006177,-1.577072561488112,-0.9536345979381686,0.20138193797961645,-1.4174384797029318
23,1.37,-3.59,-0.0718,6.85,-2.41,0.365,-2.11,-0.17300000000000001,-1.29,-1.79,1370000000.0,-3.871834851789804,0.9338115394798756,7.355949203274756,-2.2764456232592747,0.5414957247217738,-1.9360149602688348,-0.49170510507826143,-0.7576697467332111,-1.64213207510779
24,1.42,-3.78,-2.5,7.25,-0.542,1.27,-1.71,-3.17,-1.44,0.899,1420000000.0,-3.8131041749828634,-1.2806859560331267,7.290401614561041,-1.1211743458852188,1.0222064059079399,-1.7837871926340518,-2.0765482953542573,-1.1964507416459524,-0.10956328513214264
25,1.47,-6.65,-3.23,9.46,-1.45,1.97,-3.4,-1.38,-0.0192,0.146,1470000000.0,-5.627369263686273,-2.537817007326937,8.632666971425877,-1.3401970021829537,1.6476173271381311,-2.872354619491735,-1.6643756847897841,-0.4394050068431735,0.04456814191791264
26,1.52,-5.41,-1.74,7.07,-0.42700000000000005,1.67,-2.17,-4.01,2.81,0.653,1520000000.0,-5.488356147108984,-2.0232972897562687,7.665891974336812,-0.7319390859799471,1.662386725115825,-2.399297959358916,-3.0523658522660604,1.6501652712992443,0.41151627708072
27,1.57,-8.42,-1.25,8.41,-0.368,1.73,-1.62,-3.94,2.78,0.0883,1570000000.0,-7.363214930263974,-1.5245905634949786,8.12624915792498,-0.4895282745705426,1.7070020205225458,-1.8744176247511506,-3.5776108459268947,2.3767195312714384,0.2165830069753681
28,1.62,-8.02,-2.37,6.56,-1.49,0.862,-0.517,-3.59,3.02,-1.02,1620000000.0,-7.783245515364475,-2.0698030205181386,7.15725782807707,-1.1559177196309538,1.149419138980372,-0.9601565226613458,-3.5849419019341227,2.7903890273634557,-0.5292060530333005
29,1.67,-9.62,-2.03,5.7,0.109,0.5660000000000001,0.212,-4.74,2.81,0.006679999999999999,1670000000.0,-8.957895352329858,-2.044133658179778,6.255696076648524,-0.31338735517967486,0.7644442858306544,-0.17067426765345595,-4.268431068745396,2.8030000704977915,-0.20601063489002586
30,1.72,-7.42,-3.9,6.58,-0.27899999999999997,-0.28600000000000003,0.581,-2.51,2.22,-0.602,1720000000.0,-7.97437329593534,-3.2409994529115465,6.456333122781626,-0.29048279889837714,0.07129830856674801,0.33560067286243234,-3.227904334410315,2.4280946405588484,-0.444833696379329
31,1.77,-7.67,-3.26,5.68,0.0891,-0.9440000000000001,1.2,-1.06,-0.40700000000000003,-1.68,1770000000.0,-7.779719095771106,-3.253253079046205,5.9760390392390645,-0.03765209510875367,-0.5986562457300024,0.9177993433687897,-1.9450775549962662,0.6049517576501766,-1.1897683157504155
32,1.82,-2.96,-6.59,5.74,0.428,1.12,-0.317,3.35,0.21,1.76,1820000000.0,-4.697389581750516,-5.405152783663558,5.830008636094338,0.2725072352062187,0.5354159437806456,0.08612528394259555,1.188209683364784,0.3509731121501662,0.5892509282932454
33,1.87,-9.96,-6.21,4.74,0.8340000000000001,0.7959999999999999,0.8740000000000001,-8.6,-3.24,-3.45,1870000000.0,-8.062959096613548,-5.9242063801792275,5.155652901766837,0.6465036542348266,0.7073648925181818,0.6167823309870925,-4.603825261614655,-1.9582468284289534,-1.8468404768005307
34,1.92,-9.38,-4.36,6.28,0.10099999999999999,-0.759,1.36,0.215,-0.0143,-3.97,1920000000.0,-8.905239393844434,-4.915434997161006,5.851252799085155,0.28315718238994336,-0.2602303712716485,1.1173615305197497,-1.752353527266708,-0.7081676360500815,-3.1273280638723824
35,1.97,-5.93,-4.22,2.41,-0.131,-0.502,1.16,-1.24,1.43,-1.75,1970000000.0,-7.002500123277694,-4.466942263527034,3.722253141358568,0.007297342008919405,-0.4197644159232019,1.1460797845281852,-1.4491755755044649,0.6668076291573899,-2.2966549815733983
36,2.02,-7.03,-2.08,5.7,0.58,0.324,0.5529999999999999,-1.2,0.973,0.512,2020000000.0,-7.020087108605703,-2.927580602965964,4.945825581367168,0.3887603878735966,0.07101583200774841,0.7466229042241272,-1.3017294791281224,0.8637084360749417,-0.6027418376711553
37,2.07,-9.02,-2.37,5.75,-0.386,0.511,1.01,-2.35,-0.777,-2.95,2070000000.0,-8.299081147032519,-2.5679915317407813,5.443344131930872,-0.12728832376000637,0.36134368737976763,0.9240151998652045,-1.9220286856320103,-0.1913695419535809,-2.018384387479384
38,2.12,-9.0,-4.49,3.51,-0.502,-0.08,1.38,-1.77,-0.198,-1.03,2120000000.0,-8.747336085049616,-3.8075127994400786,4.247242200910648,-0.3768744740740502,0.07011872619252729,1.2311345122644444,-1.8320678486187434,-0.19563333979878655,-1.4222850623112637
39,2.17,-8.65,-3.23,5.26,-0.243,0.129,1.42,-2.02,-0.302,-0.52,2170000000.0,-8.685087007882254,-3.4350693525459937,4.873805163463719,-0.2877040028939366,0.10897210794511013,1.3583410027847005,-1.9432740314040644,-0.26403373503803745,-0.8781126539171326
40,2.22,-7.45,-2.87,4.83,-0.5579999999999999,-0.278,1.04,-0.379,1.24,-1.37,2220000000.0,-7.895218204499516,-3.0706507159824605,4.846704177798967,-0.46774149117684244,-0.14637523237672379,1.1439288500267824,-1.0176369898559772,0.7031538758356435,-1.1747722462053352
41,2.27,-7.58,0.802,4.55,-0.6970000000000001,-0.632,0.937,-1.08,2.59,-0.684,2270000000.0,-7.693628319563885,-0.5731416994520644,4.6631423357777235,-0.6204449238927308,-0.46681951920037495,1.0045561034847175,-1.0545394449731955,1.9165136947128152,-0.8787851880160602
42,2.32,-8.63,1.37,6.45,-0.6940000000000001,-1.2,0.611,0.0107,0.456,-2.35,2320000000.0,-8.292461235951476,0.6800087393384167,5.768617366660639,-0.6694381422401401,-0.9506158845308852,0.739484371528646,-0.4241990607973408,0.9773121934816368,-1.7660817555015942
43,2.37,-7.13,-1.62,4.05,-0.77,-1.69,0.332,-0.213,-1.27,-2.69,2370000000.0,-7.549038604695508,-0.8032886242245203,4.705360557529445,-0.7364198924829204,-1.4385057853580183,0.46503152759650473,-0.29922500168497396,-0.46784985869536866,-2.3233012615962316
44,2.42,-7.12,-2.12,6.64,0.33299999999999996,-1.82,0.395,-0.691,-0.405,0.701,2420000000.0,-7.274657735013927,-1.6524481535156421,5.902263769760192,-0.024105784406526776,-1.6902385205362565,0.41786321951862115,-0.5310523099875177,-0.4274334759236308,-0.4993308539137251
45,2.47,-7.09,-4.73,7.29,0.292,-1.35,0.0897,-0.977,-1.54,-2.07,2470000000.0,-7.15656464504448,-3.6371904203033902,6.760814455852152,0.1864444470783583,-1.465728810237796,0.1968355365372303,-0.7949355507464497,-1.142883195948631,-1.446608818852424
46,2.52,-6.7,-3.28,7.33,-0.15,-0.354,-0.0783,-1.77,-1.54,-0.28600000000000003,2520000000.0,-6.8645801431344555,-3.406834925994524,7.112952403052748,-0.03765287073519197,-0.7321436484758728,0.011523575651135542,-1.3719161443178116,-1.3982540727247663,-0.7466401482814506
47,2.57,-6.98,-3.5,7.79,-1.21,0.7340000000000001,0.33899999999999997,-2.0,-1.98,-0.846,2570000000.0,-6.938394007772209,-3.4669179622014736,7.53182138509482,-0.8185242846948023,0.23530564099418472,0.23208867166860125,-1.7435758876613117,-1.7723530409254706,-0.8065645551964803
48,2.62,-5.29,-2.73,7.09,-0.428,0.115,-0.634,0.214,2.1,0.095,2620000000.0,-5.884205255746252,-2.9916726201980195,7.258479863514439,-0.5584057324163213,0.15592078478030558,-0.35124779272163065,-0.58520802646327,0.7178116959919227,-0.2628267002799308
49,2.67,-5.02,0.38799999999999996,7.71,-0.136,0.266,0.0799,0.38299999999999995,1.48,0.17,2670000000.0,-5.331524613389009,-0.8120898177128986,7.537821829173277,-0.27705174024232937,0.22855763671729706,-0.060856942150273374,-0.012284620914483235,1.2079463794032244,-0.0017868651535471458
50,2.72,-9.38,0.462,7.42,-0.11599999999999999,0.27399999999999997,0.46299999999999997,-1.08,-1.36,-1.23,2720000000.0,-7.920624802525957,0.009582748005727337,7.464929050742129,-0.16977916243778013,0.2585432187509066,0.29197627807372095,-0.644090129231086,-0.4434034964498861,-0.7425280386241577
51,2.77,-6.98,-3.96,6.16,-0.0648,0.596,0.826,-1.98,0.904,0.18100000000000002,2770000000.0,-7.319071994781186,-2.5504386850570233,6.657608560576895,-0.09985514336283734,0.4812173972032505,0.651657110273179,-1.4345959228398009,0.42306107463814113,-0.1855439055023368
52,2.82,-6.65,0.52,7.54,0.217,0.324,-0.573,2.41,4.1,-1.4,2820000000.0,-6.8911839710378615,-0.5702837878617175,7.203517608192618,0.11119421557922514,0.37747595574733517,-0.17318586190668883,0.8403894201442976,2.7875623334289865,-0.9179881168633299
53,2.87,-6.55,0.5870000000000001,7.01,0.46299999999999997,0.621,0.128,0.225,3.31,0.49700000000000005,2870000000.0,-6.672988507119794,0.17605946592692456,7.083794220040992,0.34552333547121666,0.5381676803379687,0.02967177198877477,0.4762414260615933,3.123522337678211,-0.06460207281915897
54,2.92,-8.7,-1.18,6.86,0.23399999999999999,0.0354,0.23,0.0643,1.63,-1.57,2920000000.0,-7.9693123565301764,-0.6984760583382555,6.945339542829639,0.27124040194472704,0.20641149320494823,0.16459879049369394,0.23248091056767586,2.1630942147136123,-0.9725147282199086
55,2.97,-6.64,-0.498,5.26,-0.166,-0.784,-0.0453,-0.815,-0.7490000000000001,-1.35,2970000000.0,-7.119184149381023,-0.5691871521266914,5.902670747036754,-0.01999459692255362,-0.4471212344924772,0.02322571690544703,-0.38735111022172986,0.29043579280009735,-1.20017789886295
56,3.02,-9.16,-1.56,5.69,0.147,-0.624,0.109,-1.94,-1.51,-0.594,3020000000.0,-8.424336251300137,-1.2081716794357633,5.771097781156207,0.09123636823372568,-0.5638364318564751,0.08099724417515683,-1.3061091771956646,-0.8673568365390028,-0.8345891245327812
57,3.07,-7.49,-3.14,7.14,-0.102,-0.579,0.536,-0.852,-0.496,-0.919,3070000000.0,-7.826804968987042,-2.45402607790069,6.61799637128366,-0.037473589700343354,-0.5738422585563707,0.3874551327476843,-1.0373964895051957,-0.6285511976033167,-0.8854977413692898
58,3.12,-8.23,-1.48,6.37,-0.364,-0.831,0.9309999999999999,-0.73,2.92,-0.425,3120000000.0,-8.084657868328406,-1.8258674725032709,6.464568396874394,-0.2549647399518185,-0.7435302978466131,0.7535487521570137,-0.8554989733188283,1.6533888459917656,-0.6077693785004732
59,3.17,-6.78,1.13,7.08,0.12300000000000001,-0.423,0.251,0.584,-1.28,0.65,3170000000.0,-7.250297035576528,0.08039937677139597,6.845317391254299,-0.003211785050560134,-0.5320252411167801,0.4150672222201007,-0.0036958089215582968,-0.23296332681066945,0.15079727969860246
60,3.22,-6.26,2.33,7.17,0.7140000000000001,-1.78,0.0806,-0.495,-0.473,0.106,3220000000.0,-6.61697774073363,1.5311880178527504,7.046188813064361,0.4745052136705655,-1.3555136114085389,0.18979360768243372,-0.29441812200136813,-0.3873218893206353,0.12377982726902126
61,3.27,-3.07,-1.04,7.6,-0.139,-1.39,-0.55,0.977,0.794,-3.16,3270000000.0,-4.348597727108022,-0.12699539614266198,7.388815095595886,0.06586458581701476,-1.3782697838449174,-0.30847938316883017,0.4579255784798016,0.37234186724067336,-1.8566833997249277
62,3.32,-6.05,-1.92,9.03,-0.373,-1.22,-0.24600000000000002,-0.354,0.826,-0.0416,3320000000.0,-5.436686672991417,-1.2833209731284243,8.404166719665868,-0.22645224321183755,-1.2738339329874415,-0.26639766617722316,-0.022519906910945686,0.6640723574492067,-0.7619979999762929
63,3.37,-4.54,-0.622,8.71,0.203,-0.7659999999999999,-0.28600000000000003,-0.337,1.29,-0.0411,3370000000.0,-4.863233348943446,-0.8568288175901059,8.593376604734692,0.05959525632197249,-0.938734711751299,-0.2796004296174361,-0.20860906401071005,1.0665828905186445,-0.3272209994064445
64,3.42,-3.97,-2.95,9.4,-0.324,-0.0324,-0.682,-0.882,0.6709999999999999,-0.695,3420000000.0,-4.291988553707003,-2.2067347147041594,9.092410027555038,-0.19590804446079257,-0.34068086024135324,-0.5506284878116601,-0.6070786489012165,0.812198393845085,-0.5490302532072576
65,3.47,-3.94,-2.09,8.55,-0.569,-0.469,-0.9490000000000001,0.524,0.40399999999999997,-0.205,3470000000.0,-4.066883206622514,-2.1314513392330676,8.75683735877374,-0.444415359892134,-0.4253535113249093,-0.8189435422583837,0.06222114677537083,0.5497013474028284,-0.3415439761051519
66,3.52,-3.22,-1.15,8.2,-0.588,0.12,-0.9179999999999999,1.38,-0.851,0.0908,3520000000.0,-3.5252804734952443,-1.4985040849913696,8.412338697647522,-0.5400535323450049,-0.06549664790361842,-0.8856609991284319,0.8419981529345099,-0.3510370869814956,-0.08079527395731967
67,3.57,-1.95,-3.17,9.02,0.8440000000000001,-0.12300000000000001,-1.14,-0.000715,-3.28,0.5870000000000001,3570000000.0,-2.5178496894006797,-2.5764676377203735,8.788280770811143,0.3818302361250733,-0.10344080122119143,-1.056965866010755,0.3433345568426221,-2.234543108523205,0.3219552278379519
68,3.62,-4.74,-6.45,9.39,0.8,-0.0629,-0.33299999999999996,-1.89,-3.37,-0.58,3620000000.0,-3.938969613522867,-5.0745451221865805,9.160546591042952,0.6603627674244719,-0.07668955532039279,-0.5693533405249933,-0.9782095894849745,-2.9647127150183983,-0.2220182342535762
69,3.67,-4.74,-1.96,8.36,0.562,0.142,0.69,0.131,0.627,-0.0383,3670000000.0,-4.451248206290814,-3.065945579384424,8.665272256003837,0.594845748524365,0.06761489650112526,0.27885856304667533,-0.32185049572136815,-0.6550171863046592,-0.11121689663764651
70,3.72,-2.97,-1.66,8.01,0.193,0.154,0.96,-0.812,3.89,-0.0641,3720000000.0,-3.5039533700011805,-2.1592379740034913,8.259875141142954,0.32718624997246465,0.1246169540628517,0.7376275511783209,-0.6118895225618863,2.2677127265847905,-0.0828004713554496
71,3.77,-4.11,2.34,9.04,0.0964,0.27,-0.074,-1.92,0.937,0.373,3770000000.0,-3.891535260920422,0.7423630371530723,8.74251492806666,0.17346524460228496,0.22054939043174934,0.1909722717303538,-1.3859453814433964,1.41198133756135,0.1920949504533871
72,3.82,-4.09,-1.32,9.25,0.0836,0.205,-0.0245,-0.313,-0.191,-0.0884,3820000000.0,-4.018458466561601,-0.5876743991649584,9.056480694162822,0.11360823046621923,0.21028897141238145,0.0458452929130804,-0.7510451147453922,0.3811642462576641,0.02292711730345398
73,3.87,-4.25,-1.53,8.97,0.264,0.20800000000000002,-0.0807,-0.7709999999999999,0.0477,-0.0406,3870000000.0,-4.16653500249782,-1.1953890613289135,9.002977852288057,0.2137804626096665,0.20877857399945834,-0.03938672478475952,-0.7628531523886292,0.16672591352862445,-0.015386389281773584
74,3.92,-4.12,-1.69,9.53,0.209,0.0147,-0.0887,-0.262,-0.27699999999999997,0.0145,3920000000.0,-4.136774644546712,-1.5143683643750347,9.329030454954278,0.2105963190662357,0.08071392285637621,-0.07260067894827299,-0.4664803760092678,-0.11861756192300923,0.0026382334701190446
75,3.97,-4.01,-1.48,9.0,0.24600000000000002,0.175,-0.19,-0.0787,-0.0678,-0.455,3970000000.0,-4.055699270991809,-1.4922038938675084,9.125469198531237,0.23417783865750472,0.14292951398219567,-0.151672609397929,-0.2370168191076068,-0.08593869671519291,-0.2733655617319681
76,4.02,-4.73,-0.654,8.36,0.222,0.0715,-0.221,-0.7929999999999999,0.43799999999999994,-0.406,4020000000.0,-4.486931272751444,-0.9516382753983859,8.65189619230292,0.22606648382874642,0.0957960505519107,-0.1983666680700215,-0.566011997162885,0.25098659629904485,-0.3533580129428961
77,4.07,-5.06,-0.373,8.79,0.154,-0.0922,-0.13699999999999998,-0.919,0.6679999999999999,-0.33899999999999997,4070000000.0,-4.853422857441209,-0.5784689835136606,8.737336845054303,0.178064783187204,-0.02825499028256391,-0.1570343894994606,-0.7748876756867298,0.5191522425020043,-0.34469861924397305
78,4.12,-5.51,-0.828,8.82,0.113,-0.0525,-0.114,-0.301,0.662,-0.136,4120000000.0,-5.273320321594882,-0.7393938988072508,8.788477866516926,0.13472674118512928,-0.04425329674326387,-0.12804944914927,-0.49447134165674056,0.6110122704120836,-0.21883149744000518
79,4.17,-4.26,-0.261,8.79,0.0207,-0.0965,-0.138,-0.18,0.609,-0.317,4170000000.0,-4.625277066048953,-0.43087315961417055,8.789419541168458,0.05877635300945845,-0.07872879772571642,-0.1347514385677578,-0.30838737466196986,0.6097182723675393,-0.2780373875481716
80,4.22,-4.13,-0.414,8.51,-0.0648,-0.069,-0.0948,-0.20800000000000002,0.35100000000000003,-0.218,4220000000.0,-4.308535208836195,-0.4199915025267632,8.616551208096277,-0.02353479636793593,-0.07230915395157998,-0.10784295919599762,-0.2489845672672773,0.44334627570473945,-0.2418285514451319
81,4.27,-4.18,-0.737,8.94,-0.0502,-0.0593,-0.115,-0.11900000000000001,0.252,-0.255,4270000000.0,-4.226333654727597,-0.6244332694369663,8.816658997692482,-0.04129582838898519,-0.06372493720592946,-0.11266344030320863,-0.17206803860140535,0.32029867521314115,-0.24977231161051733
82,4.32,-3.93,-0.826,8.83,-0.0752,0.00489,-0.0612,-0.0989,0.0863,0.121,4320000000.0,-4.036820997812066,-0.754425541863353,8.824912627775287,-0.06387855670859943,-0.018448697686100073,-0.07800128390225575,-0.12877188470405915,0.16982291633273122,-0.026157773832150177
83,4.37,-3.99,-0.879,9.07,-0.106,-0.0281,-0.0508,-0.188,0.23399999999999999,-0.14400000000000002,4370000000.0,-4.006877818072502,-0.834764791798284,8.976540632266396,-0.09193460607508179,-0.024817204670014293,-0.05968041030761497,-0.16381928090438624,0.21109278671451864,-0.09722897513430157
84,4.42,-4.04,-0.802,8.71,-0.0862,0.0593,-0.0618,0.0712,0.132,-0.0771,4420000000.0,-4.028060248027802,-0.8136344591732205,8.811639975169978,-0.08811492622898887,0.030688359277389516,-0.06110801650995745,-0.024749944565579496,0.16023118577805115,-0.08508909561150771
85,4.47,-3.77,-0.848,8.86,-0.0941,0.0287,-0.0532,0.0141,0.14800000000000002,-0.113,4470000000.0,-3.8630243261883157,-0.8357971145906264,8.841558657102341,-0.09210143462566524,0.029376320685037444,-0.0557817316991202,-0.001761038875683421,0.1523657708239432,-0.10192229312805393
86,4.52,-4.21,-0.9390000000000001,8.82,-0.142,0.0538,-0.0599,-0.17600000000000002,0.228,-0.158,4520000000.0,-4.084923873616642,-0.902353636948401,8.828220774901979,-0.12533763633444178,0.045492526262735686,-0.05855550826807787,-0.1048644806081942,0.20100330292468885,-0.13574302827307985
87,4.57,-4.16,-0.838,8.74,-0.14300000000000002,0.0519,-0.0581,0.0918,-0.0502,0.0135,4570000000.0,-4.132936815254298,-0.8608513683274132,8.77364109055139,-0.1371021037939584,0.04972056026624633,-0.058248709927028956,0.011508943950574613,0.039463893541284795,-0.045733850467200715
88,4.62,-4.11,-1.18,8.91,-0.146,0.0336,-0.0147,-0.12,-0.0702,0.10800000000000001,4620000000.0,-4.118268240128796,-1.0666733015507437,8.858002156382543,-0.14302877066299582,0.039083249616919,-0.02891735955958722,-0.06630961310513772,-0.031056839878820824,0.04698376496372679
89,4.67,-4.35,-1.18,8.89,-0.133,0.0324,-0.0282,-0.198,0.0498,0.0484,4670000000.0,-4.266466369582672,-1.1397587259691242,8.877798473224138,-0.13634885576950834,0.03467324233896303,-0.0284341969282194,-0.14423553741064774,0.020939157628875847,0.04783790286728525
90,4.72,-4.13,-1.16,8.77,-0.0312,-0.133,-0.139,-0.439,-0.382,-0.159,4720000000.0,-4.179192825033243,-1.1528124932522663,8.81110707996058,-0.06631180648558253,-0.07596759261198666,-0.1029035505557893,-0.31865824772314266,-0.23817588012110505,-0.07690701315064599
91,4.77,-4.51,-1.67,8.67,0.0885,-0.115,-0.17300000000000001,0.156,-0.596,0.23,4770000000.0,-4.390752339633184,-1.4863515737170696,8.723808416496547,0.036804504115327694,-0.10172351097054076,-0.15011558791672241,-0.03778593724273116,-0.4682791421564878,0.1081900633890518
92,4.82,-4.22,-2.15,8.73,-0.0215,-0.171,-0.0404,-0.569,-0.514,-0.39,4820000000.0,-4.281551862085569,-1.9143447737510595,8.727638679973033,-0.0020306825976853862,-0.14743628448101398,-0.07621887744273373,-0.3521243533082747,-0.49768050767817085,-0.19227071607095364
93,4.87,-4.35,-1.64,8.6,-0.027,-0.19899999999999998,-0.038,-0.10400000000000001,-0.0437,0.0127,4870000000.0,-4.325326077801693,-1.7374172286390561,8.648672699712504,-0.018662126997798033,-0.18146110871360796,-0.05047732672563471,-0.20530027586057734,-0.2057426932989906,-0.0686519059717124
94,4.92,-3.65,-2.02,9.19,-0.11900000000000001,-0.247,0.0256,-0.635,-0.0559,-0.397,4920000000.0,-3.8934384133227216,-1.9196575146946309,8.98357537606271,-0.08549470107132143,-0.22470758515292916,0.000763013548773582,-0.4595690079720689,-0.10938448522892334,-0.26668020639391
95,4.97,-4.54,-1.64,8.46,-0.306,-0.374,0.132,-0.679,0.13699999999999998,0.0898,4970000000.0,-4.306930511065079,-1.7393037327671876,8.659655045851768,-0.23236781586033187,-0.32321965836977123,0.08915502405033257,-0.5894142075966015,0.04905611969818201,-0.05168530448963668
96,5.02,-4.1,-1.47,8.62,-0.29600000000000004,-0.262,0.0812,0.5870000000000001,0.256,-0.0017100000000000001,5020000000.0,-4.174593271500846,-1.5656272302768117,8.635121589658608,-0.27475164034720945,-0.2828232625185374,0.08379708135510425,0.10671227792476401,0.18213396429867124,-0.02154496151481074
97,5.07,-2.87,-1.87,9.76,-0.125,-0.0513,-0.0276,0.74,-0.174,1.35,5070000000.0,-3.3402735426520476,-1.761920107467154,9.331050205614662,-0.17500578144872236,-0.13005036641554113,0.008767836347858785,0.4814513412905193,-0.04688240882524519,0.8056403187260937
98,5.12,-3.77,-1.19,9.03,-0.262,-0.0635,0.11699999999999999,-0.498,1.11,0.26,5120000000.0,-3.615094225727561,-1.3930834650529293,9.144799323560077,-0.2329504722815695,-0.08613645551366061,0.08166541454646949,-0.09812514252105836,0.6970652259437796,0.4765620510326269
99,5.17,-4.16,-0.8,9.16,-0.33799999999999997,-0.0519,0.161,0.45,0.184,0.527,5170000000.0,-3.9635748446169874,-1.0105983442212958,9.154203430952014,-0.3029213607292566,-0.06354519402248099,0.13509961477772564,0.22622015550877544,0.36713224967446717,0.5069814231129306
100,5.22,-3.28,-2.07,9.17,-0.45299999999999996,0.058,0.0347,0.26,-0.149,0.514,5220000000.0,-3.526411810506494,-1.6938164354465264,9.163976340798671,-0.40288503154686023,0.016657593694325915,0.06747748934987843,0.2462088953494648,0.03522698287909737,0.5112143592308918
101,5.27,-3.28,-2.07,9.17,-0.513,0.127,0.0971,-0.0618,-0.266,0.682,5270000000.0,-3.3688253463925513,-1.9364207263766422,9.167703044960291,-0.47622989255788467,0.08946811579564107,0.08742912875801899,0.06394898577347907,-0.1584807776608366,0.6142159772938278
102,5.32,-3.08,-2.49,8.64,-0.526,0.17300000000000001,-0.00252,0.239,-0.0741,0.0203,5320000000.0,-3.184114346829662,-2.2934292348609535,8.841229238825544,-0.5093805437679488,0.14458744452108732,0.026845717018415254,0.16753294464129,-0.10421867052113867,0.25602243744419095
103,5.37,-3.5,-2.61,8.73,-0.573,0.297,-0.18,0.6890000000000001,-0.905,-0.0951,5370000000.0,-3.3861310329023495,-2.4975886437809924,8.772414767556006,-0.5517558971805789,0.24515835867345154,-0.11247102605207016,0.47610370967882043,-0.6191710484270067,0.0442588311963307
104,5.42,-3.36,-4.12,8.77,-0.5579999999999999,0.379,-0.131,0.213,-0.925,-0.0349,5420000000.0,-3.3694195241332694,-3.5438969779168636,8.7709211066279,-0.5559149581666151,0.33347508424084454,-0.12495083887502803,0.32041580828710925,-0.815838168167254,-0.0034822340904748367
105,5.47,-3.36,-4.12,8.77,-0.312,0.249,-0.20800000000000002,0.8420000000000001,-0.0956,0.014,5470000000.0,-3.363395438445679,-3.9154311845741967,8.770351528837441,-0.3934492495973216,0.27773336973883533,-0.1808869201593872,0.6290558854134796,-0.3526800547418234,0.007061384396133212
106,5.52,-3.89,-2.71,7.55,-0.0471,0.29600000000000004,-0.151,-0.755,1.42,-0.67,5520000000.0,-3.7001721439423116,-3.1380372524713307,8.015356822659799,-0.16275459215311255,0.2897867874571228,-0.1607571864800624,-0.18993961768684042,0.7872638804700205,-0.401277555103917
107,5.57,-4.78,-2.03,7.58,0.361,-0.102,-0.132,-0.136,2.18,-1.39,5570000000.0,-4.3907488928550125,-2.4234535440533014,7.746014590021248,0.1861053713698187,0.03126243299070214,-0.14138836618669026,-0.1580216157556567,1.6828802118531,-0.9975807384196109
108,5.62,-3.86,-1.3,7.04,0.556,-0.152,-0.106,0.179,1.48,-1.14,5620000000.0,-4.0513217850151575,-1.6989277112804417,7.309224552506512,0.43248301890916657,-0.08966507827496098,-0.11755324890854603,0.041406164444232924,1.5524155798886208,-1.0834744613575142
109,5.67,-3.86,-1.3,7.04,0.68,-0.25,-0.271,0.405,0.017,-0.45,5670000000.0,-3.9289667056161406,-1.4416554314946515,7.142663387397897,0.5973479547927474,-0.19546364950350426,-0.22090419504750192,0.25655767777236044,0.5650474899944723,-0.70142300457061
110,5.72,-4.34,-2.92,9.17,0.8240000000000001,-0.21,-0.26,0.7759999999999999,-0.4,2.26,5720000000.0,-4.191832758534,-2.395053856473147,8.396915683409693,0.7483152694946359,-0.20505559867584053,-0.24723637526008832,0.563930342936324,-0.05553830826909567,1.084625237530556
111,5.77,-2.94,-3.16,10.9,0.309,0.0214,0.12,-1.34,-0.846,-0.0166,5770000000.0,-3.3912547921126714,-2.8883749050042433,9.945498506347105,0.4556982388429476,-0.05562664942349138,0.00010823662214864971,-0.5626935443096373,-0.5638545432534576,0.4204710783698823
112,5.82,-4.49,-2.44,8.86,0.11,-0.125,0.16,0.358,0.0957,0.373,5820000000.0,-4.093929374734511,-2.5992137305914467,9.27393298298159,0.22543720308675494,-0.10140333545897812,0.1078000891303064,-0.017886147827950727,-0.13971978674767643,0.3918410436013214
113,5.87,-4.49,-2.44,8.86,-0.0557,0.191,0.39299999999999996,-0.166,-0.69,0.951,5870000000.0,-4.347226186811555,-2.496535328798644,9.01784487104803,0.038178674481363195,0.09154187412696735,0.2998907102714802,-0.10553042245416358,-0.4935843222877946,0.729072445032222
114,5.92,-3.53,-2.11,9.37,-0.0917,0.155,0.298,0.902,1.31,-0.242,5920000000.0,-3.824589814585405,-2.247254976624284,9.23571259766776,-0.048330295725329694,0.13341534189117163,0.2986172660074029,0.4906614690489416,0.6662329774450758,0.14341405243883365
115,5.97,-2.9,-0.9740000000000001,8.5,0.0586,0.11699999999999999,0.179,0.0878,0.86,0.0043100000000000005,5970000000.0,-3.233291826915888,-1.4261208010437392,8.780549318729584,0.022893326721217286,0.12258351661965505,0.2180514855553247,0.2522738914960997,0.7908372811202687,0.05951973935105795
116,6.02,-4.33,-1.99,8.66,0.0567,0.17800000000000002,0.106,-0.54,0.136,-0.0795,6020000000.0,-3.934663772995261,-1.789771828662091,8.705968982857852,0.04541111365756269,0.1591506289429568,0.14258147881128153,-0.21654299733529342,0.36973602553086726,-0.024323722558378474
117,6.07,-4.36,-1.92,8.75,0.0225,0.0733,-0.00863,-0.33799999999999997,0.207,0.0622,6070000000.0,-4.206676892793269,-1.8737571787377676,8.733209650206671,0.030150588860531402,0.10250124683701228,0.04073605350731785,-0.28841346152894043,0.2650866011988889,0.027859143725168067
118,6.12,-4.31,-2.51,8.56,0.039,-0.0147,-0.0636,0.0284,-0.491,0.0627,6120000000.0,-4.272754538117331,-2.284076177583483,8.626050303489473,0.03604496299271002,0.02516485407493191,-0.02953738209736259,-0.10094357386498318,-0.22112429189883492,0.048871831292617685
119,6.17,-4.02,-2.61,8.74,0.0274,0.0232,-0.0978,-0.22699999999999998,-0.35100000000000003,0.33,6170000000.0,-4.1111117489593045,-2.4942674614850726,8.696547415382827,0.03028676725760264,0.02386832564070846,-0.07551428515898242,-0.1755356810357186,-0.30464248880724254,0.2184215699781876
120,6.22,-4.08,-2.43,8.98,0.0836,0.022,-0.126,0.18600000000000003,-0.10800000000000001,0.23199999999999998,6220000000.0,-4.091214967411125,-2.4528208115942136,8.87191072965749,0.06579739093445411,0.022635492556923,-0.10951791599911329,0.0383979503527295,-0.17818909178588463,0.22661078144458807
121,6.27,-4.08,-2.43,8.98,0.0977,0.0819,-0.088,0.35200000000000004,0.0487,-0.13,6270000000.0,-4.084042669648564,-2.438103497697902,8.938782030360887,0.08704692860858229,0.061741759645337096,-0.0950249596998849,0.2239675291925199,-0.032285237923413895,0.011537132099333297
122,6.32,-4.07,-1.95,8.77,0.0567,0.111,-0.0141,-0.0335,0.0726,-0.0425,6320000000.0,-4.0750621449584346,-2.1233209724544237,8.834361942610286,0.0668335901505736,0.09424529378519705,-0.04051959427767267,0.0716147577219321,0.03516251892944966,-0.0210529186142848
123,6.37,-4.09,-2.03,8.64,0.0286,0.0177,0.0555,-0.0725,-0.0188,-0.336,6370000000.0,-4.084615370207965,-2.0631373774142183,8.714116260924499,0.04136714253799766,0.04373613048081677,0.024152456831804087,-0.013663111796662283,0.00046124996785899125,-0.21099899315899942
124,6.42,-4.62,-2.21,8.68,0.126,0.0281,0.0702,-0.672,-0.147,0.423,6420000000.0,-4.4270070061697995,-2.1578504944964454,8.693009744151615,0.09773899423290114,0.03341847682714463,0.0551668482555813,-0.40322465413284325,-0.09436554128733629,0.17136880879861463
125,6.47,-4.62,-2.21,8.68,0.061,-0.162,0.203,-0.67,0.191,-0.27399999999999997,6470000000.0,-4.550430724653225,-2.19148222776965,8.684961195139191,0.07326806050583405,-0.0955303227729492,0.15473686589862845,-0.5610852039322191,0.0891423199910763,-0.09723522371796053
126,6.52,-4.99,-1.89,8.71,0.0311,-0.136,0.315,-0.21100000000000002,0.508,0.44799999999999995,6520000000.0,-4.83154599904365,-1.997053482237116,8.700451974990411,0.045180959283002545,-0.12223464123701801,0.2626788484298187,-0.35392723044142493,0.35849397248272363,0.23159873184465365
127,6.57,-4.46,-1.36,9.09,-0.0147,-0.033,0.215,0.89,0.691,0.17600000000000002,6570000000.0,-4.593933169873581,-1.586211683546854,8.941453728095814,0.0052957351953735535,-0.06335228757187722,0.23056572931662056,0.3821491162194406,0.5723161003155952,0.19806687261885925
128,6.62,-2.94,-1.09,8.77,0.00176,-0.0568,0.158,1.11,0.526,-0.0869,6620000000.0,-3.5362020477073672,-1.266200103438874,8.835380741230509,0.0029406695566179084,-0.059028696573565353,0.1816905587305907,0.812844596651814,0.5425319705155531,0.02620199935893519
129,6.67,-2.94,-1.09,8.77,-0.0123,-0.0244,0.213,0.36200000000000004,-0.0624,0.33899999999999997,6670000000.0,-3.154916132569088,-1.152567013977944,8.794931924267187,-0.007210762715910472,-0.036178611068855844,0.20277839767945824,0.5460636727085766,0.1535229421095901,0.21485194780205774
130,6.72,-4.48,-1.71,8.92,-0.0697,0.0183,0.28800000000000003,-0.267,-0.124,-0.27899999999999997,6720000000.0,-4.002340043194074,-1.5120608364390145,8.87230783212536,-0.0488332978461522,-0.00023036465592619904,0.2601776714373044,0.06494474348164397,-0.024941637125920457,-0.08299251070084285
131,6.77,-4.39,-1.75,8.47,-0.111,-0.0244,0.305,0.154,-0.0632,-0.155,6770000000.0,-4.250258085811372,-1.6655100504486087,8.623412229343153,-0.09024099948823389,-0.01617893536770827,0.2903668467450783,0.11764193219526772,-0.04954415137533209,-0.12642056945019514
132,6.82,-3.86,-1.64,8.66,-0.14400000000000002,-0.00305,0.248,0.581,-0.0761,0.008320000000000001,6820000000.0,-4.00067832297686,-1.6490583687363234,8.64604788932994,-0.1260485342092205,-0.007515678511758057,0.2618315135105424,0.39182750154362767,-0.06662121972721363,-0.04515789348318672
133,6.87,-3.86,-1.64,8.66,-0.14400000000000002,0.0391,0.163,0.494,0.153,-0.0474,6870000000.0,-3.9107109898067227,-1.6432165319529044,8.654679546594501,-0.1380055568590132,0.023244133514379834,0.19526555339009227,0.4522866260544384,0.07460893604833735,-0.04651011941486938
134,6.92,-3.67,-1.59,8.91,-0.0276,-0.0116,0.0433,0.0229,-0.11800000000000001,0.102,6920000000.0,-3.7567704085826725,-1.6088967093715474,8.812638545350296,-0.06446714951774979,0.00025189023856751064,0.09291223586750208,0.1982031597926896,-0.04925063695211215,0.04305703622393922
135,6.97,-4.04,-1.77,8.88,-0.0386,-0.0183,0.0219,-0.262,0.114,-0.0589,6970000000.0,-3.9379027112854836,-1.7127937308811971,8.854313124199297,-0.047237682836230144,-0.011989756938983825,0.04508338442855363,-0.07411555158479449,0.05572971615134069,-0.01843373467854626
136,7.02,-4.62,-1.56,8.59,-0.0923,-0.0935,0.0793,-0.519,0.0707,-0.18899999999999997,7020000000.0,-4.3741207203762364,-1.614255573736931,8.690790630217387,-0.07725257482837901,-0.06577509268551772,0.06812929284874294,-0.3373696316184958,0.06535654165212171,-0.12130305492499713
137,7.07,-4.54,-1.68,9.07,-0.10300000000000001,-0.0177,0.151,-0.491,0.00527,0.301,7070000000.0,-4.480204596978642,-1.6566547413891377,8.92539588476472,-0.09440229715598723,-0.034052270912528125,0.12394517253046569,-0.4282782284966502,0.026717143568820795,0.1333899181640463
138,7.12,-4.35,-1.24,8.72,0.0152,-0.0825,0.0708,0.324,-0.2,0.46399999999999997,7120000000.0,-4.396935476666034,-1.3879501693494825,8.798323787393311,-0.02139892125113202,-0.06602098245964169,0.0881503185427979,0.01687177997910344,-0.11907613806853429,0.3327824171849294
139,7.17,-3.75,-1.86,9.23,0.0885,-0.10300000000000001,0.0421,0.298,-0.302,-0.15,7170000000.0,-3.9832042426347987,-1.6923795730580768,9.065388606774302,0.05180202880392676,-0.09042195008244464,0.057134061061478766,0.1832254349544352,-0.23670759431538985,0.04161404994318346
140,7.22,-4.2,-1.73,8.55,-0.0166,-0.0501,0.16699999999999998,-0.354,0.0868,-0.157,7220000000.0,-4.121850368175343,-1.7166413540333443,8.746533279143769,0.006241131629342055,-0.06381511485163577,0.13113203346704502,-0.1346701235190367,-0.028672010084362404,-0.07817102794696615
141,7.27,-4.2,-1.73,8.55,-0.1,-0.0122,0.172,0.0342,0.00875,-0.46799999999999997,7270000000.0,-4.171828868145012,-1.7252564832955846,8.624944162383203,-0.06452345598237774,-0.029756374739022658,0.15865782753356086,-0.034743614091782615,-0.004607320914872669,-0.3132787251772524
142,7.32,-3.29,-2.34,9.18,-0.085,-0.0177,0.18,0.607,-0.113,-0.0993,7320000000.0,-3.607877477683645,-2.1217103283598786,8.968340720698405,-0.0781623754276312,-0.021800857401171336,0.17303241983640308,0.3449990942533148,-0.07431058043034866,-0.18422714025140494
143,7.37,-3.35,-1.78,8.72,-0.0948,0.0238,0.16899999999999998,0.18600000000000003,0.0307,-0.22399999999999998,7370000000.0,-3.4429583932067254,-1.9013380915609484,8.814699943656425,-0.08924428702284318,0.008289316130269859,0.17031646506495302,0.25091363036480896,-0.00678222026414492,-0.20821434461411284
144,7.42,-3.63,-1.84,9.0,0.0671,0.11900000000000001,-0.0019100000000000002,0.478,-0.155,0.436,7420000000.0,-3.562576198896329,-1.8617805984770344,8.92933952098613,0.014892772792485437,0.08134284893031216,0.05431682195697053,0.3852887708783263,-0.10209550824175587,0.1803143731433587
145,7.47,-3.63,-1.84,9.0,0.00542,0.0336,0.0555,0.0739,0.201,0.0602,7470000000.0,-3.6056954600709346,-1.847734106319039,8.973055036285515,0.008583193321890378,0.04983926084348349,0.05511372801695864,0.20102886689834015,0.09281383231181828,0.10787282448056563
146,7.52,-4.72,-0.919,8.74,-0.00557,0.0354,0.106,-1.2,0.47,-0.069,7520000000.0,-4.318320632465346,-1.2487847279605062,8.828870746110724,-0.0008438982580125948,0.04031137255486244,0.08938714378954658,-0.6280101891124665,0.3353680891852858,0.0011999869016424275
147,7.57,-5.17,-1.14,8.75,-0.00619,-0.0263,0.158,-0.894,0.147,-0.17800000000000002,7570000000.0,-4.862990696178893,-1.1786284201586705,8.780075785244403,-0.004404804295124059,-0.0036427952015547632,0.13559994664730168,-0.7854058961477922,0.21423564590306238,-0.10687637627332587
148,7.62,-4.86,-1.35,8.78,0.0115,-0.099,0.22699999999999998,-0.5429999999999999,0.00472,0.11800000000000001,7620000000.0,-4.8610781574076345,-1.2891475860462513,8.780028733988036,0.006188991963672993,-0.06656518203235089,0.19716059787602008,-0.641965623464221,0.07950400331135163,0.028747632348226068
149,7.67,-4.86,-1.35,8.78,-0.0202,-0.128,0.27899999999999997,-0.10099999999999999,-0.0052899999999999996,-0.109,7670000000.0,-4.860388734471734,-1.3283918979558804,8.78001079193028,-0.011388061511672844,-0.10710355344859285,0.2522818771007756,-0.32185686466005115,0.024976164723492462,-0.054328615907297276
150,7.72,-4.09,-1.17,8.82,-0.038,-0.0684,0.299,0.555,0.0225,0.19899999999999998,7720000000.0,-4.367706187042177,-1.226243439213762,8.804750724643197,-0.029113613855796958,-0.08156463595522903,0.28374791805106897,0.19701079445672842,0.023383836767454255,0.09845507341273647
151,7.77,-3.66,-1.3,8.96,-0.0606,-0.0403,0.304,0.414,-0.11,0.0934,7770000000.0,-3.9151106359454872,-1.2738097111728945,8.900798810283279,-0.050085916786362,-0.05433576135447786,0.29738829058952093,0.32541109227449394,-0.06239029848791078,0.09540633560244817
152,7.82,-3.91,-1.39,8.89,-0.0477,-0.00916,0.342,0.156,-0.10099999999999999,0.0784,7820000000.0,-3.9118423127790556,-1.3487419166750318,8.894118123225807,-0.04849671608107638,-0.02452609191585331,0.3274356079594463,0.2251644750299695,-0.08721874964334986,0.08514973457059792
153,7.87,-3.91,-1.39,8.89,-0.0606,0.0195,0.301,0.195,0.082,0.0503,7870000000.0,-3.910664163093029,-1.375349635084647,8.891570576522705,-0.056558414659695834,0.004524957062907457,0.30963043964077774,0.20731506908739697,0.02159947399265766,0.06413169352136014
154,7.92,-3.95,-0.991,8.83,-0.121,0.069,0.233,0.245,0.18899999999999997,0.10300000000000001,7920000000.0,-3.9358204339429217,-1.1274789229322573,8.853478663578397,-0.09948135826316529,0.04706944560212255,0.25801755781154384,0.2296145970825798,0.1292484620064184,0.08757335342234424
155,7.97,-3.89,-0.991,8.92,-0.13,0.10800000000000001,0.166,0.319,0.0948,0.12300000000000001,7970000000.0,-3.9065172005283406,-1.0394623742834463,8.8946334629215,-0.11980906652580937,0.08727507159107273,0.19604099343632791,0.28250714914080005,0.10709595179328849,0.1089393339046001
156,8.02,-4.04,-1.29,8.95,-0.1,0.109,0.14,-0.0769,-0.089,-0.0141,8020000000.0,-3.9918827270092274,-1.2010364309332604,8.928886957865698,-0.106614738895207,0.10161047702558423,0.15829571911539975,0.06983305027194558,-0.019005990599927497,0.034733728401254535
157,8.07,-4.48,-1.48,8.68,-0.147,0.0299,0.19899999999999998,-0.264,-0.276,-0.0901,8070000000.0,-4.3040458049076165,-1.3809426838458547,8.774908263900956,-0.13351436105965744,0.054291614841548895,0.18571126274077446,-0.1277079374950865,-0.1842691811166457,-0.04055408345256255
158,8.12,-4.48,-1.48,8.68,-0.125,0.0336,0.184,0.0688,-0.465,0.245,8120000000.0,-4.416572875667444,-1.4448256949697003,8.71619156144456,-0.12784315602378427,0.04063804898174372,0.18455867666381034,-0.011427141830560567,-0.36479662902314175,0.13166494035695853
159,8.17,-4.19,-1.72,8.99,-0.0972,0.0159,0.12300000000000001,0.14400000000000002,-0.063,-0.0391,8170000000.0,-4.27167395582911,-1.622288221864439,8.885588473921393,-0.10743250790025566,0.02431440525699344,0.14309708058015802,0.08054466864487751,-0.17072255278151047,0.028675796335484866
160,8.22,-4.16,-1.28,8.63,-0.0508,-0.0257,0.061,-0.0216,0.0501,-0.0694,8220000000.0,-4.200255602142882,-1.401543296085986,8.72746363532498,-0.06971099653499882,-0.00868809023002384,0.08780225719249266,0.0201020045049696,-0.02871986382791719,-0.03047417975052441
161,8.27,-4.16,-1.28,8.63,-0.0147,-0.00611,-0.00252,-0.185,-0.0905,0.05,8270000000.0,-4.174511051592876,-1.323158857964824,8.667165883345366,-0.03306953425697074,-0.006986912069341904,0.026967532362196782,-0.10126420885975006,-0.06844834714959613,0.018060179862977317
162,8.32,-4.31,-1.35,8.73,-0.016,-0.0232,-0.0202,0.0345,-0.19399999999999998,0.0854,8320000000.0,-4.261159547725853,-1.3404689793643065,8.706039180199538,-0.021699940737271863,-0.0176852770206335,-0.004801202060998648,-0.0209276578684338,-0.14918590316117813,0.05867314463162802
163,8.37,-4.23,-1.54,8.81,-0.0251,-0.00489,-0.0196,0.132,-0.0852,0.138,8370000000.0,-4.241232258674382,-1.4691483946199995,8.77035687540497,-0.023964636141571457,-0.009242187925635546,-0.01476863247740421,0.06956512154863911,-0.10803897005664787,0.10651554493891044
164,8.42,-4.08,-1.52,8.94,0.0274,0.00428,-0.0538,0.16899999999999998,-0.157,0.154,8420000000.0,-4.1381201936876915,-1.5019430629423316,8.875309719886163,0.010248075913877153,-0.0003194395539029733,-0.04105741976127918,0.12840430517305326,-0.13952397285046114,0.13515364430560567
165,8.47,-4.02,-1.43,8.71,0.0622,0.0232,-0.10300000000000001,0.195,-0.0312,-0.036,8470000000.0,-4.062579396881239,-1.4555462682934104,8.773037586692903,0.04485196500935444,0.015200093202355585,-0.08277758868154962,0.16781136199345886,-0.06986489392479689,0.0319300712848041
166,8.52,-4.06,-1.48,8.75,0.158,0.0171,-0.16899999999999998,0.0659,-0.22899999999999998,0.284,8520000000.0,-4.060929772201321,-1.4713167231467887,8.758784923993902,0.12021707374525305,0.016453765841276245,-0.1408509452350823,0.10750675288487513,-0.1721987050387751,0.18395464542722567
167,8.57,-4.14,-1.63,9.03,0.134,0.00916,-0.19699999999999998,-0.0638,0.0697,-0.083,8570000000.0,-4.111497052653753,-1.5736530641403057,8.926577377381307,0.1293975417999897,0.01164090282175461,-0.17866900038648925,0.006138403570175088,-0.016642731626286877,0.022953035612152617
168,8.62,-4.44,-1.32,8.78,0.0977,0.0226,-0.196,-0.174,0.0244,-0.228,8620000000.0,-4.321582846932296,-1.4100698410499746,8.83589419286029,0.10828459409868194,0.01887237109801973,-0.19034194028336068,-0.10045594743994492,0.009750307248751658,-0.12839792947104528
169,8.67,-4.74,-0.934,8.53,0.0573,-0.022,-0.153,-0.502,0.397,-0.215,8670000000.0,-4.589170816099024,-1.1030479137302296,8.646646481439396,0.07432501957087484,-0.008097663912174924,-0.16519103170330876,-0.3380639492943184,0.2587760493849151,-0.1806280507598138
170,8.72,-4.54,-1.25,8.69,0.0134,-0.0122,-0.11900000000000001,-0.0038399999999999997,-0.0166,0.134,8720000000.0,-4.557724838966334,-1.197818702185938,8.673467741167709,0.03374437262479302,-0.010804630474496603,-0.13408000081407062,-0.14029165165244892,0.08169205508865965,0.009125619647690653
171,8.77,-4.27,-1.34,8.87,0.0152,0.000611,-0.106,0.17800000000000002,0.0066099999999999996,0.0908,8770000000.0,-4.3737176777085365,-1.289512785630759,8.79505627389299,0.021392425458538297,-0.0032719147040288837,-0.11516728483265751,0.04805293584690504,0.03340960550694475,0.058383826819634284
172,8.82,-4.07,-1.32,8.77,0.0299,0.0177,-0.12,0.182,0.0285,-0.0192,8820000000.0,-4.1794828226015746,-1.3091743119680765,8.779554993281451,0.027059109829225755,0.010566608804630725,-0.11842226032863806,0.1273142154689061,0.030252422615729475,0.011592652655102939
173,8.87,-4.05,-1.36,8.76,0.0561,0.0434,-0.139,0.184,-0.007209999999999999,0.024,8870000000.0,-4.09667547781983,-1.3419522874740093,8.767457048090343,0.04640252734520873,0.03223204464539398,-0.13228197864267308,0.16085722739696232,0.0061617457197025265,0.019075582761424088
174,8.92,-4.14,-1.36,8.81,0.061,0.047,-0.132,-0.0327,-0.0181,0.00707,8920000000.0,-4.124382495649043,-1.3535914369752775,8.793777353794509,0.056125542817323425,0.04197682382019744,-0.13209205716415473,0.04632247501238276,-0.009440072291827988,0.011834958795212224
175,8.97,-4.27,-1.38,8.74,0.0708,0.0305,-0.113,-0.14300000000000002,-0.015,-0.0127,8970000000.0,-4.217508478151737,-1.3706225656340323,8.76050677919523,0.06589983461362554,0.034403729243577943,-0.11923298788768982,-0.06570642736551711,-0.013015452759067885,-0.0029621910295753087
176,9.02,-4.43,-1.29,8.7,0.0439,0.0275,-0.111,-0.20600000000000002,0.0961,0.0101,9020000000.0,-4.353401950846801,-1.3186282869434154,8.723072934893393,0.05124629081858684,0.029848235667842414,-0.11368782680904248,-0.14872316599837387,0.057152598249383346,0.004915678043120642
177,9.07,-4.43,-1.29,8.7,0.0305,0.00672,-0.0917,-0.17600000000000002,0.0823,-0.0248,9070000000.0,-4.4023881875302235,-1.3001656096868182,8.708798285322892,0.03742770053353737,0.014586842404215193,-0.09887837365209107,-0.16486384638382062,0.07332394773061984,-0.013005988632973805
178,9.12,-4.38,-1.26,8.7,0.0323,0.007940000000000001,-0.077,-0.0606,0.0267,0.0174,9120000000.0,-4.38807046120216,-1.2742624224694503,8.703354932545187,0.03401226563263031,0.01020085817747207,-0.08414263845025283,-0.10316718991168042,0.04334183768223012,0.005332007348962109
179,9.17,-4.35,-1.32,8.73,0.0219,0.00489,-0.0685,-0.0434,0.127,0.0436,9170000000.0,-4.363723398909387,-1.3037590520551823,8.719839151996496,0.025944585499854178,0.006696436289611977,-0.07360685467887747,-0.06780080058041643,0.09713926234387266,0.028411615329829106
180,9.22,-4.32,-1.25,8.74,0.0121,0.00122,-0.0526,0.00238,0.0785,-0.006690000000000001,9220000000.0,-4.335761313944791,-1.269089331609375,8.732311921300612,0.016723049928594066,0.0030827560562463646,-0.05945811372582003,-0.02627230389776314,0.08515305449228999,0.007241664671546057
181,9.27,-4.32,-1.25,8.74,0.007859999999999999,0.0104,-0.0386,0.00948,0.0905,0.00525,9270000000.0,-4.325681673730493,-1.2567784413482335,8.737068162993406,0.010819592036092349,0.007911111284453268,-0.04540955518899776,-0.005116383712524798,0.088591472481635,0.006040482227210182
182,9.32,-4.32,-1.28,8.77,-0.00435,0.00733,-0.0208,-0.0175,0.0302,-0.0151,9320000000.0,-4.322048212671408,-1.271754225408518,8.757442384283229,0.0007155024290243089,0.007527659258856668,-0.028834288365392133,-0.01244421364656962,0.05104211021217565,-0.006709443043027616
183,9.37,-4.31,-1.31,8.7,0.000535,0.0055,-0.0068,-0.0128,0.0356,0.0008300000000000001,9370000000.0,-4.314343046159298,-1.2964192497869547,8.721904389040562,0.0005952742308384273,0.0061896883828282045,-0.01399354031180765,-0.012654745000666157,0.041111868567990775,-0.002162369230182903
184,9.42,-4.32,-1.31,8.71,-0.00619,0.00367,0.006640000000000001,-0.0352,0.0188,0.0231,9420000000.0,-4.317960917801005,-1.3051775669728678,8.714539524821118,-0.003924228958669395,0.004527047285100092,-9.623777702168212e-05,-0.02599558084602751,0.026763943732829604,0.013073485292113584
185,9.47,-4.34,-1.34,8.75,-0.0276,0.009770000000000001,0.0311,-0.0416,0.0118,0.0395,9470000000.0,-4.332055553408985,-1.3276349044698355,8.73647785536798,-0.019694073484703076,0.007986661308560138,0.020915355120616097,-0.03522927537170628,0.017141193837140713,0.029011442640645924
186,9.47,-4.34,-1.34,8.75,-0.0434,0.0415,0.0567,0.45399999999999996,-0.061,0.0768,9470000000.0,-4.337136321029137,-1.335609292896611,8.744843599965119,-0.03548400455760447,0.030100765618423626,0.045017376142146945,0.25426523058962847,-0.033108473441761,0.05783295024780334
187,9.57,-3.85,-1.42,8.78,-0.0117,0.0568,0.0128,-0.0127,0.0993,-0.0291,9570000000.0,-4.025600537374242,-1.3900336293345423,8.766593643153936,-0.019642067943073042,0.04771851762886031,0.02331801553201672,0.09629232915631702,0.052038440805504835,0.005403275471823163
188,9.62,-4.53,-1.31,8.64,-7.64e-05,0.0287,0.0244,-0.313,-0.0041,-0.0791,9620000000.0,-4.348176600131802,-1.3384191489255304,8.688274172173795,-0.006609861087693309,0.035168961956658765,0.024046763912653677,-0.14590061727595993,0.015937918023911986,-0.045561049135460205
189,9.67,-4.53,-1.31,8.64,-0.0215,-0.011,0.0543,-0.342,0.0274,-0.0698,9670000000.0,-4.464457294452614,-1.3200913344513867,8.658408604700309,-0.016527814335566486,0.004703919461486822,0.04442321694580302,-0.2619396595618245,0.02330875244983916,-0.06017967340498372
190,9.72,-4.66,-1.38,8.65,-0.0331,-0.033,0.0903,-0.0491,-0.0997,0.0379,9720000000.0,-4.589511592229692,-1.3587269956494612,8.653206217613514,-0.02756613778967052,-0.020175381609704342,0.07532259468743957,-0.1359947998467245,-0.05579355383630443,-0.0010273570988031944
191,9.77,-4.44,-1.45,8.7,-0.0184,-0.022,0.0769,0.226,-0.0351,0.0596,9770000000.0,-4.493895268635791,-1.4175898490162773,8.682156006806963,-0.021460800687737498,-0.02137937387814779,0.076385022627731,0.0782105036704503,-0.042486307781310184,0.035537288873579626
192,9.82,-4.11,-1.39,8.76,0.000535,0.00122,0.0457,0.281,-0.0374,0.0852,9820000000.0,-4.24838483719233,-1.399796885563186,8.73031588809527,-0.006809942596344572,-0.00646695530612186,0.055717747020673725,0.19820831468697156,-0.03921549415433894,0.06548910338659097
193,9.87,-4.17,-1.37,8.74,0.00909,0.00672,0.0299,0.18600000000000003,-0.035,0.0562,9870000000.0,-4.198255844386339,-1.3805805956953352,8.736307015559346,0.003780615278653138,0.002234586501413916,0.038328726713355625,0.19098421965113838,-0.03650466828997806,0.05988680195187671
194,9.92,-4.37,-1.37,8.68,0.00481,-0.000611,0.0378,-0.102,-0.0168,0.00288,9920000000.0,-4.308090405412571,-1.3737570726686879,8.701471745637845,0.0044662628402948774,0.00035689833168840225,0.03797261296301157,0.01761495026897522,-0.023833335818510448,0.025505729573253283
195,9.97,-4.46,-1.34,8.69,-0.0123,-0.00489,0.0549,-0.0878,-0.0175,0.0102,9970000000.0,-4.40524037179922,-1.3519868391819791,8.694374261687818,-0.006701329335773139,-0.0031053190005933566,0.049373712414222476,-0.04476285858677236,-0.019760605476388676,0.01627477175775159
196,10.0,-4.38,-1.33,8.71,-0.0166,-0.0055,0.05,0.0493,-0.0463,0.0505,10000000000.0,-4.389098603105482,-1.337807346595676,8.704041460090632,-0.013294588542852254,-0.004685472733831837,0.04979553621949942,0.010897508402167466,-0.036827094224409045,0.036916170159993225
197,10.1,-4.25,-1.3,8.75,-0.0111,0.00367,0.0244,0.10800000000000001,0.0149,0.063,10100000000.0,-4.300141606943466,-1.3134250009191664,8.732474627861134,-0.011832827312607907,0.0008279679330601385,0.03269088745573871,0.06835653687415602,-0.003563342861893755,0.05264745215547269
198,10.1,-4.25,-1.3,8.75,0.000535,0.0116,0.00481,0.0181,-0.0319,0.0157,10100000000.0,-4.2680748094570475,-1.304767060270296,8.743317049035687,-0.0035949238407932908,0.00793599888502678,0.01391228097344431,0.03861794212147944,-0.02178558265487016,0.030364268313682757
199,10.2,-4.34,-1.34,8.7,-0.000687,0.00489,0.0128,-0.0395,-0.0448,0.0239,10200000000.0,-4.314072844879374,-1.3274891374171498,8.716517974300503,-0.0016580277828259463,0.00592606662298462,0.013163126460971824,-0.007607246971325504,-0.036585289019828895,0.026465637688647434
200,10.2,-4.43,-1.35,8.68,-0.00557,-0.00244,0.0225,-0.0758,-0.0159,0.0222,10200000000.0,-4.3882110173155,-1.3420066206966326,8.693925589623825,-0.004263695618115642,0.00040563550910244304,0.019451788901013792,-0.047959345599219876,-0.023283357171448926,0.023893011107526677
201,10.3,-4.43,-1.35,8.68,-0.00619,-0.007940000000000001,0.0195,-0.0684,0.0197,-0.00925,10300000000.0,-4.414935995272181,-1.3471616418858294,8.68531043453526,-0.005546759328082183,-0.00510131391415907,0.019484260780087054,-0.06005481568742915,0.004357625446443459,0.0039043039762868756
202,10.3,-4.39,-1.27,8.72,-0.0111,-0.00367,0.0097,-0.0088,0.00512,0.0385,10300000000.0,-4.39898872432021,-1.297399357910888,8.706771991607456,-0.00924563525569607,-0.004156847388183263,0.01289427053088825,-0.029725502986754613,0.004847879804503523,0.0247691320668494
203,10.4,-4.37,-1.3,8.72,-0.00374,0.00122,0.007859999999999999,0.0303,-0.0454,0.0284,10400000000.0,-4.380449645128599,-1.2990765058065665,8.714955928153557,-0.005578468012520828,-0.0006088818996145165,0.009503539865608937,0.005793740321193026,-0.02746464514193284,0.026958925834979088
204,10.4,-4.33,-1.35,8.7,-0.000687,-0.00122,0.00725,0.0184,-0.00686,0.0117,10400000000.0,-4.348185800814097,-1.3319175635802105,8.705703026769209,-0.0023203823060573346,-0.0010121341586118435,0.007985713646197375,0.013253316532404039,-0.014214571796889978,0.017756195162427157
205,10.5,-4.36,-1.33,8.71,-0.0013,0.000611,0.007859999999999999,-0.000746,-0.0216,0.0236,10500000000.0,-4.355741358707665,-1.3306809363917003,8.708361458600521,-0.00164073092505394,5.890683860784989e-05,0.007901041934237761,0.004969418875347615,-0.018963863644037987,0.02128062208861701
206,10.5,-4.34,-1.35,8.72,0.00115,0.00122,0.00848,0.0211,-0.0030800000000000003,0.00933,10500000000.0,-4.345674468162975,-1.343139998364697,8.715562039675177,0.0002181058461093509,0.0008250655376982551,0.008290987607799779,0.014514461974565912,-0.008749547478649283,0.014073145152134658
207,10.6,-4.34,-1.31,8.7,0.00298,0.00305,0.00298,0.0357,0.0162,0.0235,10600000000.0,-4.342045603044523,-1.3217676634969524,8.705934155303645,0.002057735212188288,0.0022932103337838777,0.004713879673283615,0.02705070512044528,0.007294569690743814,0.019758525498218514
208,10.6,-4.36,-1.29,8.74,0.00298,0.000611,-0.00496,-0.0259,0.000321,0.026,10600000000.0,-4.353527969239738,-1.301280372648331,8.727009528271754,0.002672033017631387,0.001183187337263583,-0.0018017658456691748,-0.004282126569769104,0.0028101289438292702,0.023522788671304848
209,10.7,-4.36,-1.29,8.74,0.00176,0.000611,-0.00435,-0.00881,-0.007209999999999999,0.00692,10700000000.0,-4.35766707832989,-1.2940055291785169,8.73504620121567,0.0020645504210777908,0.0008056239060030094,-0.0035180773280396012,-0.00696143140981154,-0.0036334396016313927,0.013509568188963404
210,10.7,-4.35,-1.31,8.72,0.000535,0.0,-0.00924,-0.00451,0.00592,0.00446,10700000000.0,-4.352763731165081,-1.3043204775833535,8.725737733804769,0.0010457547657965291,0.0002740250672369569,-0.007371962029204394,-0.005510831455604367,0.00251001852815498,0.008051730709798099
211,10.8,-4.36,-1.3,8.69,0.00115,0.00122,-0.00863,0.031,-0.0018899999999999998,0.0189,10800000000.0,-4.3573915894012085,-1.3015341300295578,8.703627612072346,0.0011151899515676447,0.0008982358925310049,-0.008219288030707754,0.016093936660926324,-0.00031946809788420535,0.014594373061234114
212,10.8,-4.33,-1.29,8.7,0.00237,0.0055,-0.0068,0.0329,0.00147,0.0332,10800000000.0,-4.339873941878413,-1.294095636027752,8.701383199476577,0.00195098777207988,0.003934755069450514,-0.0072633554188544745,0.026038688177231185,0.0008312716361361288,0.025815514524890164
213,10.9,-4.33,-1.29,8.7,-0.000687,0.00489,-0.00435,-0.0138,-0.00972,0.0123,10900000000.0,-4.333559263103415,-1.2914542970672165,8.700527337518135,0.00019388945430256913,0.004565082797374747,-0.005301123995039573,0.0024647076810261938,-0.005953855137948565,0.017664243422227964
214,10.9,-4.41,-1.31,8.68,0.0042,-0.000611,-0.00374,-0.0339,0.0101,0.00355,10900000000.0,-4.382444906906856,-1.3034145591580226,8.687827879363642,0.0028622603740386453,0.0011495937810632128,-0.004249660633936792,-0.01905359414892443,0.004369775878782298,0.00915187634265853
215,11.0,-4.4,-1.3,8.69,0.000535,0.00428,-0.0068,0.0041600000000000005,-0.00233,0.0489,11000000000.0,-4.393671884012633,-1.301212446953479,8.689171445533523,0.0013121298751091427,0.003215223034522337,-0.005967390058550735,-0.00531727793951052,6.14016191802869e-05,0.03312415853450325
216,11.0,-4.4,-1.27,8.74,-7.64e-05,-0.00122,-0.0068,0.0134,-0.0172,0.0203,11000000000.0,-4.397718931651022,-1.281083232798654,8.720617403383615,0.0003872645137347995,0.00028859761447697,-0.00652817766155976,0.005758406460430736,-0.011038757813788443,0.025389848296741575
217,11.1,-4.38,-1.35,8.7,0.00603,0.00183,-0.0068,-0.0168,-0.0367,0.0158,11100000000.0,-4.386387309913891,-1.3255283222886511,8.707861917379255,0.004145750750341657,0.0013057070787514725,-0.006711258146287025,-0.007590211334531796,-0.027540538285283977,0.019606164883807536
218,11.1,-4.38,-1.25,8.71,0.00542,-0.000611,-0.00924,-0.0339,0.0247,-0.0108,11100000000.0,-4.382302540473436,-1.2768193938499484,8.709184708456213,0.004994496502155953,4.0949109782925566e-05,-0.00841444065906301,-0.02315865696796701,0.006053390341887215,0.0012680625825898656
219,11.2,-4.4,-1.28,8.67,0.00359,-0.00305,-0.000687,0.0107,-0.0045,0.0222,11200000000.0,-4.3936205644336646,-1.2788705783471872,8.684942353879842,0.00405899622888905,-0.001998643948357706,-0.0032097796961384987,-0.0031232750486931762,-0.0007330984858047321,0.013892212955945199
220,11.2,-4.32,-1.3,8.72,0.00237,-0.000611,0.000535,0.0402,0.0488,0.0188,11200000000.0,-4.346538502852326,-1.292497111195117,8.706631631394185,0.0029339975941412673,-0.0010829934714029882,-0.0006875592694678564,0.022512659836703346,0.031119776122635966,0.01685212241601286
221,11.3,-4.32,-1.3,8.72,-0.00435,0.00367,0.00237,0.0182,0.0629,0.0253,11300000000.0,-4.3295665838452795,-1.2973357643014471,8.71490240458697,-0.0019176928491255359,0.0020533159084007825,0.0013717976978127665,0.01996070478242106,0.0515564440223122,0.021947077337622415
222,11.3,-4.35,-1.3,8.71,-0.00313,0.00305,-0.000687,0.00715,0.025,0.0163,11300000000.0,-4.342634197741256,-1.2990539243165207,8.711869457767166,-0.0027251806747996534,0.0027109876463830397,-1.4863737904407875e-05,0.012380151289747995,0.034478992549175885,0.018541298385522372
223,11.4,-4.35,-1.28,8.7,-0.00435,0.00733,-0.0019100000000000002,-0.00542,0.0233,0.0388,11400000000.0,-4.3473447494292845,-1.2867658501019694,8.704526062874713,-0.003807432627867747,0.005758888224451241,-0.0012912943318707465,0.0018471634799771038,0.02729020201553654,0.03075941802274969
224,11.4,-4.4,-1.3,8.71,-0.00557,0.00611,0.00359,0.00469,-0.008440000000000001,0.00464,11400000000.0,-4.381019145159753,-1.2953006476212887,8.707912646904465,-0.004981435127858435,0.005990572747051905,0.0019964025457121226,0.003529371720711158,0.004313451092896117,0.015006673201135204
225,11.5,-4.4,-1.3,8.71,-0.00496,0.000611,0.0121,-0.0571,-0.0106,0.03,11500000000.0,-4.393157932157459,-1.298331273605875,8.709204053148396,-0.004967157752905267,0.002440808885414842,0.008801475684806048,-0.0323472029900559,-0.005276828967796462,0.024049219240532004
226,11.5,-4.42,-1.29,8.69,-0.00435,-0.00428,0.0201,-0.121,-0.00823,0.012,11500000000.0,-4.410324147055526,-1.2929583319639426,8.697322822866694,-0.004556084298866846,-0.00199398279480467,0.016411367208832916,-0.0848062420843392,-0.007175902213268289,0.016782278079801847
227,11.6,-4.49,-1.31,8.69,-0.0068,-0.0116,0.0268,-0.0613,-0.0107,0.0225,11600000000.0,-4.46127867877409,-1.3039486277436483,8.692792152776542,-0.006050701034808258,-0.008332607399878424,0.02340841960924983,-0.07089675460441233,-0.009442117427107728,0.020230663804627354
228,11.6,-4.36,-1.34,8.71,-0.0019100000000000002,-0.0134,0.025,0.0414,-0.021,0.0302,11600000000.0,-4.3965085447769265,-1.3271985197573548,8.70343815442668,-0.0032926826182994927,-0.011676375854478517,0.024480396558071923,-0.004446737165876888,-0.016874557423168117,0.026243218221491074
229,11.7,-4.29,-1.31,8.71,0.00237,-0.00305,0.0164,0.073,-0.0171,0.0228,11700000000.0,-4.328393672370924,-1.3161069950170292,8.707497794725905,0.00047908995599227344,-0.005984177070257173,0.019038009365926038,0.04138127417163843,-0.017019531561760424,0.024166597227012594
230,11.7,-4.27,-1.31,8.75,-7.64e-05,0.00183,0.00176,0.0636,-0.0187,0.0394,11700000000.0,-4.291049462797754,-1.3121684993455593,8.73379263210668,0.00010909185374366107,-0.000827915684846278,0.007400756532517629,0.05452889330944364,-0.018100177632228733,0.03335393470399509
231,11.8,-4.3,-1.31,8.73,0.00176,0.0104,-0.0117,0.005679999999999999,0.0168,0.0263,11800000000.0,-4.296773674637214,-1.3107699767332632,8.731445961371165,0.0012087208928659348,0.006580934661329854,-0.0054641704885248915,0.02562325116208799,0.00434281539606559,0.029099673272518223
232,11.8,-4.37,-1.28,8.71,0.000535,0.0104,-0.0172,-0.00571,0.0167,0.00896,11800000000.0,-4.343603647178317,-1.2909261096524252,8.718178013037095,0.0007599720909229931,0.009100982414545215,-0.013368600868706313,0.0070822425950205666,0.012289256413259285,0.016953341026915557
233,11.9,-4.37,-1.28,8.71,-0.0019100000000000002,0.0104,-0.0147,-0.0243,0.0393,0.00855,11900000000.0,-4.360484694319737,-1.28387973988516,8.713118545688213,-0.001018430189048221,0.00995815193231844,-0.014265337872727596,-0.011487755679922662,0.02965885010465738,0.011885246458618864
234,11.9,-4.4,-1.28,8.7,0.00176,0.00305,-0.00863,-0.0289,0.0148,0.00294,11900000000.0,-4.3857557703827705,-1.2813776405365418,8.705002377629134,0.0008322133586596925,0.005399740061511922,-0.010469770359610345,-0.021791204732921086,0.020103681691336247,0.0064903259501023205
235,12.0,-4.4,-1.29,8.69,0.00115,-0.00367,-0.00252,-0.0847,0.00735,0.0253,12000000000.0,-4.394865368428339,-1.286938256994764,8.695720597747552,0.001043883187175756,-0.0005850169095934074,-0.005115363805321898,-0.05901659702004119,0.011902268069421247,0.017834529423500726
236,12.0,-4.42,-1.28,8.69,-0.000687,-0.00183,0.00115,-0.0459,0.0136,0.0134,12000000000.0,-4.410939635611587,-1.2824636910732634,8.692181176198119,-0.00010901523187434553,-0.0014065311936633626,-0.0008954550469335515,-0.05125503519384207,0.012994015824517329,0.015160043465492382
237,12.1,-4.42,-1.28,8.69,-0.000687,-0.00183,0.00481,-0.0173,0.0009289999999999999,0.0156,12100000000.0,-4.416734011464489,-1.280874814978576,8.690831488415773,-0.0004939965665824513,-0.0016859612170911295,0.00294733839516437,-0.031162623333175557,0.005235457282111698,0.01542538308112071
238,12.1,-4.37,-1.27,8.7,0.00115,-0.00244,0.0042,-0.0108,0.0141,0.005529999999999999,12100000000.0,-4.386846382358323,-1.2738615317813102,8.69650365305368,0.0006010288483316415,-0.002183521075184113,0.0037910431165986184,-0.019113328976658364,0.010935911927749361,0.00945743077176682
239,12.2,-4.38,-1.29,8.69,-7.64e-05,-0.00428,0.0042,-0.0211,0.0104,0.0242,12200000000.0,-4.382468024738219,-1.2842693577683888,8.692479778714045,0.0001498102698243391,-0.003566903259225781,0.004066487631666437,-0.020288913204151417,0.010591287113628625,0.018348744057336348
240,12.2,-4.36,-1.3,8.7,0.000535,-0.00305,0.00237,-0.0029100000000000003,-0.00201,0.026,12200000000.0,-4.368099252739482,-1.2944141667739877,8.697132195668981,0.0004063756089961411,-0.0032258195331831795,0.0029238527118780736,-0.010005186997822832,0.002487872704437351,0.022963253098188575
241,12.3,-4.36,-1.29,8.69,0.006640000000000001,-0.00428,-0.00863,0.00648,0.00908,0.0006219999999999999,12300000000.0,-4.362919665729002,-1.2915674043265564,8.692719460898466,0.004558438303302496,-0.0039214308531885945,-0.004858010528592268,-0.0002503106283781569,0.006727022315955407,0.009489137495297714
242,12.3,-4.36,-1.27,8.7,-0.000687,0.00122,-0.00435,0.0363,-0.000332,0.0455,12300000000.0,-4.361052552686811,-1.2776583692630603,8.697223593687399,0.0010645817625828699,-0.0005288072750286306,-0.004515850379712577,0.021377818913990085,0.002187630198185039,0.03120745876545954
243,12.4,-4.33,-1.3,8.73,-0.00374,0.0055,0.00298,0.074,0.0291,0.0333,12400000000.0,-4.3411936286186315,-1.2920666671991359,8.717501088267662,-0.002135631208132112,0.0034493603374586494,0.0005328277135105515,0.052516251297038206,0.019493964963346294,0.032469481008462635
244,12.4,-4.34,-1.29,8.7,-0.0019100000000000002,0.00611,0.00115,-0.00379,0.00744,0.0147,12400000000.0,-4.34043037118602,-1.2907338294005846,8.70667357279266,-0.0019853438428755013,0.00520500949625581,0.0009485116091617945,0.019197823014119715,0.01174251273021553,0.02175262291015988
245,12.5,-4.43,-1.31,8.71,-0.00435,0.00122,0.00176,-0.0631,-0.0158,0.0283,12500000000.0,-4.397712253809354,-1.3031587278947026,8.708731556960313,-0.0035603827869502367,0.002575461865640636,0.0014950731686008164,-0.02950075203787727,-0.0059690422419907685,0.025701377274095806
246,12.5,-4.4,-1.34,8.7,0.00298,-0.00122,-0.0019100000000000002,-0.0368,-0.0173,0.0188,12500000000.0,-4.399175385056955,-1.3269180337819093,8.703329487015614,0.0007960042798714553,7.098912990731324e-05,-0.000798344810042398,-0.03381997932441186,-0.013255555861163315,0.021539123771801685
247,12.6,-4.4,-1.32,8.7,0.00237,-0.00305,-0.000687,0.00611,0.0323,0.0282,12600000000.0,-4.399702807693027,-1.3224565622792488,8.701269515434973,0.0018444037713744698,-0.001988426130250464,-0.0007233507660296953,-0.010191978512558552,0.016039510536073,0.025556330106390364
248,12.6,-4.36,-1.25,8.69,0.00115,-0.00183,0.00237,-0.0114,0.0447,-0.00118,12600000000.0,-4.374311965832083,-1.2757286408845927,8.69429714523525,0.001381878633805603,-0.001883887070501107,0.001360112837975467,-0.010906808265554766,0.034469995125871636,0.009431522706515861
249,12.7,-4.36,-1.25,8.69,-7.64e-05,0.000611,0.000535,-0.0215,0.00238,0.039,12700000000.0,-4.365159195177803,-1.2591359973609721,8.69163837098609,0.00041055535165556,-0.0002376113611556711,0.0008043748171771244,-0.01717518016679734,0.013834124509448716,0.02726441196865859
250,12.7,-4.35,-1.27,8.72,-0.0019100000000000002,0.000611,-7.64e-05,0.0555,-0.007370000000000001,0.0128,12700000000.0,-4.355464454031994,-1.2661422829769935,8.70918502390549,-0.0011351090919157984,0.00032235316892155203,0.00021114679975717395,0.025829330822788762,0.00019854859224587539,0.018540856370387063
251,12.8,-4.31,-1.3,8.7,0.00298,0.00428,-0.0013,0.0030399999999999997,-0.0216,0.0417,12800000000.0,-4.326388774890016,-1.287977413732924,8.70350240758669,0.0016058632307720056,0.002933845256784926,-0.0008066554863688165,0.012344066504045426,-0.013819279632285214,0.03250824673077891
252,12.8,-4.4,-1.31,8.71,0.00115,0.00305,-0.0105,-0.0513,-0.00939,0.0278,12800000000.0,-4.373465034514454,-1.302179950726548,8.707522296386369,0.0013022240396230612,0.0030104910649101676,-0.007335411025261148,-0.025316410447652947,-0.010970976424122592,0.029668680418457022
253,12.9,-4.4,-1.28,8.71,-0.000687,0.00122,-0.008020000000000001,-0.0291,0.0141,0.026,12900000000.0,-4.390434862059503,-1.2878758725536195,8.709055200767365,-2.2748823193919233e-05,0.0018290179527660037,-0.007796501778236868,-0.02755529659035316,0.005151227037760525,0.02745608219621952
254,12.9,-4.35,-1.28,8.69,0.00298,-0.000611,-0.00619,0.0187,0.0393,0.0141,12900000000.0,-4.3645757069541755,-1.2827966295020647,8.697266060981384,0.001977307873121026,0.0002189481691071743,-0.006714475151009152,-0.0001843787330289906,0.02711101932206761,0.01940096588912339
255,12.9,-4.35,-1.28,8.69,0.00237,0.000611,-0.0019100000000000002,-0.0132,0.048,-0.00313,12900000000.0,-4.355254120955226,-1.2809930382699088,8.692770507764205,0.002238870297227983,0.0004776474136003865,-0.003478518333282559,-0.007886188593595116,0.04054393849153077,0.005812433539046671
256,13.0,-4.37,-1.27,8.67,-0.00374,0.0,0.00603,-0.0124,0.0414,0.0185,13000000000.0,-4.364684402036312,-1.273903511755397,8.678683125974501,-0.001743507184080991,0.00016246708129204342,0.002925751250459402,-0.010557172899258175,0.04109443978597001,0.013464365140157017
257,13.1,-4.37,-1.27,8.67,-0.00496,0.00122,0.00359,-0.0259,0.026,0.0164,13100000000.0,-4.368083785184508,-1.271386087853464,8.673311184028266,-0.0038859334222212448,0.0008602905381645467,0.003373142589870255,-0.01963607437610118,0.03138777283924099,0.015234860484247551
258,13.1,-4.39,-1.26,8.7,-0.00496,0.00305,0.0042,-0.0126,0.0144,0.0172,13100000000.0,-4.382099661093117,-1.264043086100345,8.689822634575226,-0.004601342602288008,0.002305191772081913,0.0039300555304739694,-0.015472576831915344,0.020463574013942488,0.01642004579102586
259,13.2,-4.38,-1.28,8.7,-0.00496,0.00244,0.007859999999999999,0.00566,0.022,0.0204,13200000000.0,-4.380756949093774,-1.274333832142562,8.696118946772232,-0.0048402354452771225,0.002394146272875173,0.0065769901011897315,-0.0029676733337560598,0.021451591782028923,0.018820375478896482
260,13.2,-4.39,-1.3,8.71,-0.00924,-0.00244,0.0146,-0.0592,-0.008790000000000001,0.0239,13200000000.0,-4.386668023314459,-1.2908861554692093,8.70470676093417,-0.007770809369490147,-0.0007957125445024892,0.01198072595872086,-0.036242357779084244,0.0020043597363387997,0.02188392132751905
261,13.3,-4.39,-1.3,8.71,-0.00252,-0.00428,0.0213,-0.0398,-0.0472,0.009640000000000001,13300000000.0,-4.3887988194085255,-1.2967637291392886,8.707981552503794,-0.004273375353801728,-0.003094853804016797,0.018257533477821258,-0.038347541946376365,-0.029637117077301225,0.014499554249559982
262,13.3,-4.39,-1.32,8.68,-0.00252,-0.00611,0.0213,0.0103,0.0378,0.0258,13300000000.0,-4.389566918712473,-1.311749053519938,8.690670395507201,-0.0031054955188006307,-0.005084427577151263,0.02030672457436223,-0.009561046537889663,0.013729159465543574,0.021314907161418054
263,13.4,-4.36,-1.25,8.71,-0.00313,-0.00367,0.0176,0.0195,-0.0226,0.00839,13400000000.0,-4.37065822848362,-1.2719265056607991,8.702629064629509,-0.00312181740322724,-0.004151103666330584,0.018483665060385627,0.007635417197616994,-0.009632758959295901,0.013519834457203514
264,13.4,-4.33,-1.32,8.69,-7.64e-05,0.00183,0.0097,0.0472,-0.0415,0.0387,13400000000.0,-4.3446562372248785,-1.3029295900600846,8.694815582192176,-0.0010933402932747703,-0.000204413751725409,0.012567605767979757,0.03104720085826204,-0.030125383749647936,0.02870611129085504
265,13.5,-4.33,-1.32,8.69,0.000535,0.000611,0.000535,0.0461,-0.006409999999999999,0.0284,13500000000.0,-4.335283162324517,-1.313938492493928,8.691836066574734,-8.743151787093603e-06,0.0003336450100504569,0.004463288151196685,0.039954483026671365,-0.014874911135427812,0.028521494232157312
266,13.5,-4.34,-1.29,8.69,0.0042,0.00367,-0.0105,0.000233,0.00807,0.0115,13500000000.0,-4.338299794234451,-1.2985003079747608,8.690699887747204,0.0027945963284828758,0.0025351715884993457,-0.005614931060165817,0.016449856926528755,-0.00011990028843896633,0.0182557504115888
267,13.6,-4.37,-1.28,8.7,-0.0019100000000000002,0.0055,-0.0147,0.01,0.0383,0.0214,13600000000.0,-4.35857278648127,-1.286569266168135,8.696453469764677,-0.0003390187667907099,0.004491542685617186,-0.011733995133790632,0.012633245129709442,0.0245864946517314,0.02015206278135959
268,13.6,-4.38,-1.25,8.72,-0.00557,0.00672,-0.0123,-0.01,0.0512,0.0011099999999999999,13600000000.0,-4.372276092542678,-1.2629854010051826,8.711021165744343,-0.003823245841192837,0.005962012073851104,-0.012115215960915231,-0.000759657612121779,0.041700639528223206,0.008667704452194617
269,13.7,-4.42,-1.29,8.7,-0.00374,0.00244,-0.00619,-0.0462,0.0022199999999999998,0.0147,13700000000.0,-4.402796760217379,-1.2804073464591248,8.704202583638606,-0.003767797896568624,0.003637977819579584,-0.008124406971400246,-0.027648337751711292,0.016312123048301597,0.012305810588483106
270,13.7,-4.43,-1.34,8.69,0.00176,-0.00244,-0.00252,-0.0404,-0.0198,0.00591,13700000000.0,-4.4201937949282275,-1.3188392331298942,8.695415612268334,-8.586860949553717e-05,-0.0003726354477612075,-0.0043496723676526225,-0.03519395270534605,-0.006910226873621084,0.00844846681264565
271,13.8,-4.41,-1.32,8.69,0.00603,-0.00916,0.00237,-0.0057799999999999995,0.000515,0.000299,13800000000.0,-4.413674513427036,-1.3195878564751722,8.692064876071292,0.003987759882919091,-0.006171064098631156,0.00017622661609799101,-0.01778866183805097,-0.0021353423427113924,0.0035334847626831683
272,13.8,-4.37,-1.3,8.68,0.00542,-0.00611,0.00176,-0.00387,0.0092,0.0151,13800000000.0,-4.385743508967697,-1.3069554320676355,8.684600888550634,0.0049417394387347505,-0.006130770326584979,0.0012429450721182008,-0.009552490382117652,0.005153990703090225,0.010509305171538925
273,13.9,-4.37,-1.3,8.68,0.00237,-0.00305,-0.0013,-0.0344,0.0238,0.0282,13900000000.0,-4.375675072507021,-1.3024697774787433,8.681754645845855,0.003228767413854366,-0.004097893760728631,-0.00046980401741512066,-0.024255653658729587,0.017144539305890927,0.021178647372813802
274,13.9,-4.35,-1.25,8.68,-0.0019100000000000002,0.00122,-0.00313,0.0385,0.0322,0.0514,13900000000.0,-4.3592551677842195,-1.2686315223849878,8.680669287984243,-0.00019403828873983293,-0.0005888294016601447,-0.002261525134686819,0.012879117190124405,0.026826141366556443,0.03940528737233625
275,14.0,-4.33,-1.26,8.74,-0.00863,0.00489,-0.00313,0.0167,0.04,0.0346,14000000000.0,-4.340545715804988,-1.263064965920445,8.717375275254039,-0.00581302349680248,0.0030264299227373325,-0.00284646882617727,0.015140070328973198,0.035297754479556825,0.036507196286126926
276,14.0,-4.35,-1.3,8.71,-0.0019100000000000002,0.007940000000000001,-0.0013,0.0101,-0.00242,0.0018100000000000002,14000000000.0,-4.346591903332927,-1.2868846875126154,8.712812437652453,-0.0032133162020570355,0.006268697297042471,-0.0018048761101880117,0.012157679722750267,0.011042883199875723,0.015581152807764141
277,14.1,-4.35,-1.3,8.71,-0.00313,0.0055,-0.00313,-0.0252,0.0107,-0.0133,14100000000.0,-4.348771404433326,-1.2953428456633431,8.711072490579838,-0.0031578213996447135,0.005761464823839603,-0.0026973864921404933,-0.00994819920446658,0.010822388181832572,-0.0018372071690153577
278,14.1,-4.43,-1.28,8.7,-0.00313,0.00244,-7.64e-05,-0.0492,-0.0164,0.00248,14100000000.0,-4.400718990047184,-1.2854480811248257,8.704222155340489,-0.0031392903107395342,0.0035697636401602565,-0.0009320741888471991,-0.03317489652347529,-0.006683307259284215,0.0007665209481713398
279,14.2,-4.42,-1.31,8.68,0.00115,-0.00305,-0.000687,-0.0196,-0.016,-0.00419,14200000000.0,-4.413049721463315,-1.301281808607955,8.689236824413891,-0.0002823002459693721,-0.000798352308861861,-0.0007670094335225021,-0.025142143530717306,-0.012674522922273073,-0.0022227801877329643
280,14.2,-4.41,-1.31,8.68,0.00298,-0.00428,0.00115,-0.03,-0.00952,0.0145,14200000000.0,-4.411099251593664,-1.3069042156814217,8.683522467481957,0.0018906372250271464,-0.0030957516939635536,0.0005241534142437663,-0.028016711031572574,-0.010645967613721972,0.007862807538921972
281,14.3,-4.38,-1.31,8.7,0.00542,-0.00367,0.000535,-0.007909999999999999,-0.0184,0.0133,14300000000.0,-4.391210584399494,-1.3089006793273605,8.693716503764593,0.004241458246097634,-0.003474675076584898,0.0005314589116044714,-0.016118849091196825,-0.015632294868857102,0.011142003932753292
282,14.3,-4.35,-1.25,8.69,0.000535,-0.00183,-0.00252,0.0123,0.0319,0.0314,14300000000.0,-4.36485533567654,-1.2709150748890308,8.691416954947359,0.0017726782016905277,-0.0023894200672449108,-0.0015237894253558354,0.0006976029050766372,0.014933938576502756,0.02335969664554146
283,14.4,-4.36,-1.26,8.72,-0.00435,0.00305,0.00176,0.0246,0.00101,0.0268,14400000000.0,-4.3617503138397975,-1.2638758338455778,8.709100591317252,-0.0023054861554052484,0.0011998345942319144,0.0006879403622361154,0.014841508034860352,0.005979976654207552,0.025434559405682792
284,14.4,-4.35,-1.25,8.7,-0.007409999999999999,0.00611,0.00298,0.035,0.0259,0.0178,14400000000.0,-4.354235636600682,-1.2549271775358488,8.70347021090393,-0.0057054764615274665,0.004439855385949817,0.002231710724374635,0.026770010793779282,0.01878979594250489,0.02083012018651776
285,14.5,-4.35,-1.25,8.7,-7.64e-05,0.000611,0.00603,0.0105,0.0017399999999999998,0.0091,14500000000.0,-4.3515267812705885,-1.2517495942038475,8.701323177681783,-0.001956088039528627,0.0019133475899205535,0.004789971319109479,0.01714246180693784,0.007825712533871418,0.013755629340096269
286,14.5,-4.36,-1.29,8.69,0.00115,0.00122,-0.00313,-0.0532,0.0128,0.0406,14500000000.0,-4.356945699550169,-1.2764176175905912,8.694317608262295,0.00011280029547793306,0.0014558353643864892,-0.0005443648176604388,-0.024481695072636894,0.011024489765281767,0.02994559758986017
287,14.6,-4.43,-1.28,8.72,-0.000687,0.0,-0.00496,-0.0268,0.0274,0.0191,14600000000.0,-4.403665621311898,-1.2787279113924246,8.710206697579338,-0.000419926868534447,0.0004951881152474853,-0.003518426387113097,-0.02585351875636042,0.021554965360036128,0.023404565816630293
288,14.6,-4.4,-1.32,8.69,0.00176,-0.00428,-0.0019100000000000002,0.0154,-0.0249,-0.005229999999999999,14600000000.0,-4.401321426833349,-1.3053447049934288,8.697705161313692,0.001032068439863176,-0.002655766610292314,-0.002435103404410368,-0.0014423322192722438,-0.008318478401759567,0.006134923611693155
289,14.7,-4.4,-1.28,8.72,0.000535,-0.00244,-0.000687,-0.0242,0.0129,0.0419,14700000000.0,-4.400476402688475,-1.2889996469014384,8.711498473340338,0.0007009834619052725,-0.0025133908644226237,-0.0012577037995677488,-0.014908860360740527,0.0053263283916504395,0.027705011551817163
290,14.7,-4.42,-1.32,8.69,0.00237,-0.009770000000000001,0.00542,0.00229,-0.00952,0.0311,14700000000.0,-4.412962274718931,-1.3089921012520922,8.698197754224088,0.001812673966977811,-0.007301735834084196,0.0032399280665497757,-0.00473167787099326,-0.0042207876827089815,0.029752544765314422
291,14.8,-4.37,-1.3,8.72,0.0042,-0.00428,-0.0013,-0.01,-0.00916,0.0222,14800000000.0,-4.385486764524875,-1.3031929794690014,8.71168631381753,0.0034028126135048024,-0.005307813792031572,0.00018215157620158707,-0.007849132888394414,-0.007397009546647809,0.025197568950033073
292,14.8,-4.37,-1.29,8.74,0.0042,-0.00183,-0.00374,0.0409,0.0304,0.002,14800000000.0,-4.375582522483875,-1.2946846777952121,8.729202999142595,0.003933799288822898,-0.003012944215438531,-0.0024595341331199562,0.02099747707518304,0.016908827998046126,0.01120700524331482
293,14.9,-4.37,-1.29,8.74,0.00298,0.00367,0.000535,0.0565,0.00296,0.0348,14900000000.0,-4.372012288129213,-1.29166346023511,8.735882637563803,0.0032984972752680658,0.0013968620985552005,-0.00044262639184198486,0.0420055925893671,0.007938860589565012,0.025436052479960333
294,14.9,-4.33,-1.26,8.69,-0.0019100000000000002,0.00733,0.0042,-0.0149,0.0626,0.0226,14900000000.0,-4.345144342245429,-1.271243389505299,8.707496168689694,-0.0001707537610897954,0.005311901312918378,0.0026843203697273802,0.008332512659412573,0.04308938740582772,0.02372561622638079
295,15.0,-4.38,-1.22,8.71,-0.0105,0.00611,0.0134,-0.0076,0.0703,0.00207,15000000000.0,-4.367435470439339,-1.2381960620503423,8.709045237491589,-0.007050808773276098,0.005838534534712194,0.009901648813728845,-0.0010953265691741425,0.06058750902318977,0.010665011414609309
296,15.0,-4.38,-1.2,8.67,-0.0202,0.0122,0.0195,-0.0526,0.102,0.0377,15000000000.0,-4.375470870962937,-1.2135630916089053,8.684889169410484,-0.01580915887355458,0.010036209782231425,0.016366423889592734,-0.031572489061175685,0.0872183253249536,0.02696994183952675
297,15.1,-4.5,-1.23,8.7,-0.0239,-0.00122,0.0286,-0.11699999999999999,0.0463,0.0182,15100000000.0,-4.455110328200395,-1.2241634213840673,8.6942376682739,-0.02119826802287749,0.002608689332505499,0.024606100900309538,-0.08212301032581522,0.06090528809447579,0.021680748807646272
298,15.1,-4.51,-1.27,8.66,-0.0215,-0.0116,0.0378,-0.0706,-0.0434,0.015,15100000000.0,-4.490213776942793,-1.253723851577349,8.67305575721712,-0.021399244706508933,-0.00676705363495437,0.03349258349712672,-0.07530443362622465,-0.006169525560924469,0.01765155734035338
299,15.2,-4.46,-1.32,8.69,-0.016,-0.0195,0.0439,-0.0153,-0.0551,-0.0208,15200000000.0,-4.470891343891026,-1.2964659995262886,8.683538391515507,-0.01780294203094299,-0.01516901348888934,0.040502289048052205,-0.03979765826953109,-0.03763487678149067,-0.005538759142665252
300,15.2,-4.37,-1.32,8.67,-0.0166,-0.0153,0.0421,-0.0227,-0.0482,0.0341,15200000000.0,-4.406368761555609,-1.3116433325465353,8.67516264266048,-0.017001691963394988,-0.015255446280451182,0.0415783956198932,-0.02968036099987388,-0.04442891075586043,0.018367564227732964
301,15.3,-4.37,-1.32,8.67,-0.0239,-0.014,0.0433,0.0214,-0.0534,0.0256,15300000000.0,-4.3831099660665815,-1.3170326601461368,8.671968717964102,-0.021596484355751476,-0.014427028019614771,0.04273794672496733,0.0005457211098016529,-0.05019788046266489,0.022729480125520285
302,15.3,-4.3,-1.41,8.76,-0.0013,-0.00244,0.0231,0.153,-0.0757,0.0236,15300000000.0,-4.329959209695555,-1.3769881542048592,8.726431168771954,-0.00807749878980232,-0.006517269938911425,0.029511205844933545,0.09075838393820757,-0.06659733565263132,0.0232544953227217
303,15.4,-4.22,-1.36,8.71,0.0097,0.0134,-0.0172,0.121,-0.0124,0.0759,15400000000.0,-4.259637441968178,-1.3660323423238416,8.716265721944435,0.0037636530685800397,0.006625335777463659,-0.0019501800293550212,0.10865343237554008,-0.03174506493050381,0.05500525067244938
304,15.4,-4.29,-1.32,8.72,0.007859999999999999,0.0122,-0.0386,0.0492,-0.0449,0.00606,15400000000.0,-4.279055024205273,-1.3363456837924392,8.718576172779903,0.006492128473178552,0.010303832505242187,-0.02663492408032321,0.07347270320978963,-0.04020450964655287,0.025486138072905958
305,15.5,-4.32,-1.34,8.72,0.0213,0.0177,-0.0618,0.026,-0.0272,0.0288,15500000000.0,-4.305240458449668,-1.3387024083573262,8.71945721710333,0.01635528443864221,0.015184266019234952,-0.05031964743033035,0.0453814024514933,-0.031841798163365034,0.027484743606727514
306,15.5,-4.4,-1.28,8.69,0.0286,0.009770000000000001,-0.0728,-0.0855,0.0745,-0.0683,15500000000.0,-4.3658415893698335,-1.3008446522893118,8.701232662349527,0.02451118611922263,0.011611609697528816,-0.06546083505938136,-0.0320658185085335,0.03654261939046281,-0.030283489971903985
307,15.6,-4.44,-1.24,8.62,0.0103,0.0,-0.0581,-0.11800000000000001,0.049,-0.00485,15600000000.0,-4.413267763268693,-1.2616053674765653,8.650976384071296,0.015045467130279643,0.003949575111147148,-0.060503093885177314,-0.08291615610986294,0.04455349214746866,-0.014944431730141053
308,15.6,-4.48,-1.26,8.68,-0.008020000000000001,-0.0171,-0.038,-0.133,0.079,-0.0297,15600000000.0,-4.455944690937104,-1.2605700446772645,8.668932612005191,-0.00031786902194129614,-0.009940194051670726,-0.045346590496538865,-0.11255256354944738,0.06670474990321251,-0.023843584781341916
309,15.7,-4.48,-1.26,8.68,-7.64e-05,-0.0153,-0.0312,-0.162,-0.0135,0.0727,15700000000.0,-4.471328668093808,-1.2602024113302643,8.675779861229653,-0.00015703248640875633,-0.013476914651514658,-0.03581844076395673,-0.14181238538878901,0.015128087439281075,0.03438230949136947
310,15.7,-4.33,-1.18,8.61,0.00298,-0.0202,-0.0233,-0.0567,0.0372,0.0874,15700000000.0,-4.380945441437318,-1.2084790848931668,8.635083625106729,0.0019324672323154505,-0.017913207963191145,-0.0273868985248515,-0.09144833365499405,0.029321705492473316,0.06635752796141069
311,15.8,-4.41,-1.28,8.78,-0.0233,-0.00855,-0.0068,-0.0364,0.10800000000000001,0.0375,15800000000.0,-4.3995264524833395,-1.2546035801377686,8.724738866889519,-0.014874253976255717,-0.01173480357020328,-0.013521010548001094,-0.05887426123364619,0.07991676340014124,0.048953416994529333
312,15.8,-4.39,-1.3,8.74,-0.0135,-0.0104,0.0103,0.00103,0.00234,0.0223,15800000000.0,-4.393433965174925,-1.2838801293423083,8.734180329806277,-0.013958897670576976,-0.010854020356643257,0.0025231481944954625,-0.023426761397631175,0.03003006050575742,0.032878614518821875
313,15.9,-4.39,-1.3,8.74,-0.00557,-0.00489,0.025,0.00615,-0.0116,-0.00744,15900000000.0,-4.391237774148514,-1.2942759554363024,8.737780643294863,-0.008371260715966073,-0.006918602996347407,0.017661976190437294,-0.005925131041733662,0.0032593322799802996,0.008562267133680579
314,15.9,-4.3,-1.37,8.71,-0.0019100000000000002,-0.000611,0.0268,0.0982,-0.0754,0.0559,15900000000.0,-4.332889083533663,-1.3431111100940245,8.720593617586612,-0.004067574966627996,-0.0027564692693312293,0.02381670627130844,0.0556894438819488,-0.04732353140939024,0.037111878174251156
315,16.0,-4.24,-1.4,8.75,-7.64e-05,0.011,0.00909,0.10800000000000001,-0.0668,0.0104,16000000000.0,-4.273484071380007,-1.3797992771565202,8.738786462840883,-0.0014091521662481922,0.006320871910492559,0.013897831779350962,0.0866434776885471,-0.05984811573608449,0.021001817880338558
316,16.0,-4.26,-1.38,8.72,0.00359,0.0214,-7.64e-05,0.0788,-0.0376,0.0346,16000000000.0,-4.2648608206889165,-1.3799287221390188,8.727164007942456,0.0019206593462734807,0.016270983123319146,0.004485771335905846,0.08200221078567703,-0.0455411877782194,0.029202946456387924
317,16.1,-4.26,-1.38,8.72,0.00298,0.0189,-0.016,0.0686,-0.055,0.0169,16100000000.0,-4.261752352040962,-1.3799746868296452,8.72273201668112,0.002626259991192829,0.018005765412984782,-0.00931200504607588,0.07407164137895879,-0.05162379446124221,0.02178298068275906
318,16.1,-4.36,-1.34,8.73,0.0128,0.014,-0.0227,-0.0254,-0.0232,-0.0356,16100000000.0,-4.324584237655456,-1.3541946552427206,8.727228216381874,0.009402736033673394,0.015362522087752309,-0.018329217937117358,0.015210703852360348,-0.03334551962767615,-0.012824966372614596
319,16.2,-4.37,-1.35,8.66,0.00909,0.009770000000000001,-0.0318,-0.0744,0.0684,0.0406,16200000000.0,-4.35362866747762,-1.3514894978323586,8.685636044445515,0.00919443019507958,0.011672241750273142,-0.02740219128581638,-0.03781516362568075,0.03208320450686637,0.019395885113451767
320,16.2,-4.44,-1.24,8.7,-0.0019100000000000002,0.00305,-0.0208,-0.0764,0.0965,-0.00806,16200000000.0,-4.408865306914144,-1.279588873768388,8.694522474165382,0.0017980442590242876,0.005982770895273533,-0.02295541926349856,-0.060647193287478036,0.07350722743520285,0.002837110748657813
321,16.3,-4.44,-1.24,8.7,-0.0105,-0.00183,-0.0141,-0.114,0.0712,0.053,16300000000.0,-4.428776749600623,-1.2540576412929851,8.697911136819455,-0.006393378355270416,0.0008274373882222975,-0.016991031366568966,-0.09221796252822967,0.07202353500995473,0.03309058659406115
322,16.3,-4.44,-1.32,8.66,-0.0111,-0.00489,-0.00313,-0.0549,-0.0458,0.0149,16300000000.0,-4.4359543323410175,-1.2965845251015358,8.674456561146668,-0.00952834231617131,-0.0029452697572137383,-0.007655214822445069,-0.07013558673521104,-0.0037443552764826055,0.022119757516616934
323,16.4,-4.42,-1.38,8.7,-0.0013,-0.0116,0.00542,0.0109,-0.111,0.0269,16400000000.0,-4.425751191099757,-1.3503799496804019,8.690259401284502,-0.004047647284174856,-0.008656178326576834,0.0011513308635592596,-0.022183923694980852,-0.07271643288485857,0.025002744936127686
324,16.4,-4.34,-1.43,8.68,0.00725,-0.00367,0.00542,0.0218,-0.0664,0.0206,16400000000.0,-4.370911281614798,-1.4017276383473984,8.68391240676709,0.0034774356362578893,-0.005365999639466388,0.0040264062830501855,0.003842941548874587,-0.06865457146966279,0.022347428840169832
325,16.5,-4.33,-1.36,8.73,0.00725,0.00122,0.00725,0.0264,-0.0264,0.0456,16500000000.0,-4.344747456621451,-1.3748170994686857,8.712425132746699,0.005990247188974117,-0.0010201631742746287,0.006197592322133969,0.017190761948202505,-0.041482243512256586,0.03637116516128405
326,16.5,-4.31,-1.36,8.71,0.00359,0.00122,0.00237,0.00658,0.00852,0.0307,16500000000.0,-4.322525562321546,-1.3652614212934935,8.710924799582301,0.0043915020438971206,0.00045803046012646243,0.003619595052903159,0.010911993442114704,-0.00932767895631028,0.03295085857940108
327,16.6,-4.35,-1.33,8.72,0.006640000000000001,0.00428,-0.00985,0.00889,0.0144,-0.0030800000000000003,16600000000.0,-4.340096083584525,-1.3425210253198183,8.716539518609736,0.005889170715228946,0.0029799945561886786,-0.005452577577831321,0.009715507506312428,0.005930700029446309,0.011220477062787702
328,16.6,-4.38,-1.33,8.68,0.00359,0.00428,-0.016,2.1e-05,0.00968,0.0308,16600000000.0,-4.365615698019828,-1.3344461255015627,8.693933805116256,0.004357750106061985,0.0038378158991790377,-0.012556580580115304,0.003978919725710688,0.008341734105956027,0.02302898003036482
329,16.7,-4.34,-1.28,8.68,-0.00313,0.00428,-0.019,0.0171,0.0571,0.000152,16700000000.0,-4.349233923323292,-1.2993332864494982,8.685313567349366,-0.000629654854959247,0.004129595412471375,-0.016896414658378524,0.01174313395163782,0.039696344690035114,0.00923176495896448
330,16.7,-4.36,-1.3,8.72,-0.0111,0.00428,-0.0166,0.0111,-0.0213,0.0231,16700000000.0,-4.356119180955419,-1.2997632255639102,8.706773186243602,-0.0076036922955159845,0.0042288413511190805,-0.016696770401330278,0.011362568390962365,0.0004718869018678906,0.017595763156474528
331,16.8,-4.35,-1.36,8.71,-7.64e-05,0.00916,-0.0135,-0.00942,-0.0414,-0.00173,16800000000.0,-4.352205752436275,-1.3386104995833075,8.708769542562145,-0.002589949317554373,0.007482714701441402,-0.014543650757900864,-0.0009352226930277475,-0.02645435118261842,0.005940303803599185
332,16.8,-4.38,-1.37,8.69,0.00359,0.00367,-0.00985,-0.0436,-0.00536,0.0163,16800000000.0,-4.369980934206416,-1.358853887963395,8.697157130924841,0.0015263619339273646,0.00496685750083097,-0.011382337489462184,-0.02618150183902452,-0.012889366117654934,0.012188285823874764
333,16.9,-4.38,-1.37,8.69,0.00237,0.00244,-0.0013,-0.027,0.0238,-0.004079999999999999,16900000000.0,-4.376388447709562,-1.3660421239703875,8.692728969460731,0.0020882882800412356,0.003299485755539482,-0.004591583526787822,-0.026665836970355777,0.010704187563021644,0.00237680562993149
334,16.9,-4.39,-1.37,8.69,0.00115,0.0,0.00359,-0.00703,-0.0174,0.0298,16900000000.0,-4.38509328658491,-1.3685945986807504,8.691040378445816,0.001463317711273088,0.0011222877067971599,0.0009189562143319119,-0.015046607992284175,-0.007368560045889209,0.01891586390994064
335,17.0,-4.37,-1.37,8.71,0.00359,-0.00305,-0.00252,0.0072,0.0119,-0.006490000000000001,17000000000.0,-4.375440683416004,-1.3695009583412714,8.702770150240518,0.0028798481777302046,-0.001630837234151741,-0.0013972830731590552,-0.0018824922521516047,0.005022327384773666,0.0035934669558299933
336,17.0,-4.34,-1.33,8.68,0.00909,0.00122,-0.00435,0.0261,0.00534,0.0122,17000000000.0,-4.352775587617267,-1.344026444881387,8.688683131242293,0.007016276394676827,0.0002503156702961492,-0.003386025724798669,0.0146757522094722,0.00522661080783322,0.008784107678009367
337,17.1,-4.34,-1.33,8.68,0.00237,0.0055,-0.0068,0.0238,0.0409,0.0167,17100000000.0,-4.344605381019186,-1.334980685768595,8.683311327639348,0.003921506681254788,0.003714371362935444,-0.0056854389295600116,0.020074897188531053,0.02816682717405177,0.013558219590955815
338,17.1,-4.39,-1.31,8.71,-0.00496,0.0055,-0.00557,-0.0481,0.0908,-0.0373,17100000000.0,-4.373636276939469,-1.3188703686619976,8.69982283094076,-0.0019942449933188907,0.004892635919156918,-0.005607687404732368,-0.02026663358318683,0.06844386959415512,-0.017114614758399198
339,17.2,-4.41,-1.25,8.64,-0.0068,-0.000611,-0.0117,-0.0991,0.00535,0.0463,17200000000.0,-4.396891679414782,-1.2744552174041182,8.66281245527944,-0.005195239444384584,0.0012610077616454873,-0.009711040798781843,-0.06691516449840218,0.027870571956358753,0.021131040785894353
340,17.2,-4.49,-1.4,8.74,0.0103,-0.00733,-0.0141,-0.0875,-0.0368,0.0438,17200000000.0,-4.456436606332772,-1.3554202181442816,8.710565928416862,0.005125755927702733,-0.004407852957697581,-0.01266713544550904,-0.07909594904852606,-0.013716644420743447,0.03480279757426558
341,17.3,-4.49,-1.4,8.74,-0.0251,-0.00244,-0.0123,0.0339,-0.0412,-0.0838,17300000000.0,-4.477901080125762,-1.3841701251607927,8.728775762526194,-0.015006871662142582,-0.0031093458448733765,-0.01241985853801801,-0.012232193357474885,-0.031390158651461816,-0.03672711345455323
342,17.3,-4.28,-1.54,8.73,-0.007409999999999999,0.0232,0.007859999999999999,0.245,-0.184,0.121,17300000000.0,-4.351338580084438,-1.4846662587177974,8.72953287826314,-0.009946783643694255,0.014251133950685717,0.0012392291078168454,0.13998132378713973,-0.12952781595337787,0.05839885572262266
343,17.4,-4.11,-1.56,8.8,0.0457,0.0177,-0.0105,0.174,-0.254,0.239,17400000000.0,-4.19699667595333,-1.5332496631255328,8.773128887226786,0.027118159956045666,0.016526901876900476,-0.006667490512771631,0.1601113916036456,-0.20957120765438284,0.16732025722397775
344,17.4,-4.17,-1.68,8.92,0.136,0.0959,-0.0813,0.255,-0.214,0.195,17400000000.0,-4.179731682929164,-1.627890307663761,8.863993679007265,0.09964166197358823,0.06890201887730275,-0.05693470243281561,0.21626038150610855,-0.21241919866664224,0.18401403694913623
345,17.5,-4.17,-1.68,8.92,0.182,0.0904,-0.16899999999999998,0.265,-0.0494,-0.0558,17500000000.0,-4.173508079853561,-1.661496306621123,8.89864315423894,0.15449850879169275,0.08308767456032268,-0.1324140109737276,0.24510135332791974,-0.10758767600482765,0.03938105581710705
346,17.5,-4.44,-1.4,8.64,0.188,0.0757,-0.16699999999999998,-0.313,-0.0253,-0.0507,17500000000.0,-4.343936288897889,-1.4928548531697126,8.738628618313376,0.1768130181026474,0.07821284497022697,-0.15570869965265077,-0.08514722967336916,-0.054671562134955574,-0.01494725668409047
347,17.6,-4.62,-1.4,8.65,0.162,0.0629,-0.21,-0.0314,0.0278,-0.114,17600000000.0,-4.52048578515731,-1.4329718659340656,8.683796519096685,0.1669464339200695,0.06810851352606487,-0.19227549965945456,-0.05334306555428067,-0.001637198513107986,-0.07468643561185856
348,17.6,-4.35,-1.39,8.62,0.14800000000000002,-0.009770000000000001,-0.23399999999999999,-0.0654,-0.097,-0.10800000000000001,17600000000.0,-4.411455848975876,-1.4052588944814843,8.644327458762195,0.15432668478217065,0.016719612036559785,-0.2203781890025065,-0.06047758426928937,-0.06296143624126507,-0.09477800585251978
349,17.7,-5.12,-1.27,8.63,0.0946,0.014,-0.174,-0.716,0.0516,-0.0305,17700000000.0,-4.864587280462317,-1.3180291435561722,8.635463561310361,0.11454421889349202,0.014925049635872783,-0.18914109689067912,-0.4483737197976885,0.010708721699672324,-0.05601163612450256
350,17.7,-5.04,-0.9740000000000001,8.49,0.0836,0.00733,-0.16699999999999998,-0.19699999999999998,0.32899999999999996,0.0229,17700000000.0,-4.976768027622008,-1.0961614846252308,8.545469484927079,0.09393304074878414,0.009913381571739998,-0.1742284071695689,-0.29962687255740394,0.21538988556460295,-0.008419654296480297
351,17.8,-4.68,-0.955,8.65,0.0891,-0.00672,-0.153,0.0192,0.0665,0.11,17800000000.0,-4.786977426025234,-1.0051250991015117,8.610139137872402,0.09071387416045215,-0.001062318421822325,-0.15993044206596194,-0.11096557694755502,0.11964439276047754,0.06299980002550182
352,17.8,-4.47,-1.27,8.76,0.0867,0.014,-0.11900000000000001,0.15,0.00172,0.156,17800000000.0,-4.584262390038064,-1.175945412238038,8.7028536921499,0.0880403319021092,0.008876700458107881,-0.13236257465202833,0.04345711786878606,0.04381164488148566,0.11908866328708917
353,17.9,-4.47,-1.27,8.76,0.0433,0.0629,-0.0838,-0.00783,0.174,0.10400000000000001,17900000000.0,-4.5111886320773795,-1.2366020919676814,8.738208537399695,0.058239904250060676,0.04452450426279726,-0.09965423922860639,0.013108691102700687,0.12753088307167923,0.10998862024956624
354,17.9,-4.63,-0.982,8.56,0.0366,0.0134,-0.0832,-0.0292,0.162,0.0284,17900000000.0,-4.5871715128874895,-1.0724067937354524,8.627956529372861,0.04382610073138419,0.02398669447510954,-0.08857182020996449,-0.011926879211733292,0.14969667784342117,0.06078213685069098
355,18.0,-4.56,-1.04,8.64,0.0531,0.025,-0.0263,-0.00735,-0.0175,-0.006520000000000001,18000000000.0,-4.569794621934991,-1.0515073217591857,8.635407675194928,0.05000321606823491,0.024655334313586456,-0.0466298984817909,-0.009218575686081965,0.04217877404321435,0.020191899288128486
356,18.0,-4.51,-1.22,8.58,0.028,0.0367,-0.00924,0.13,0.0351,0.0146,18000000000.0,-4.531554629048032,-1.1601698598874026,8.60112856413143,0.03534741935068736,0.03260312456500704,-0.021446690272041376,0.07316204573544142,0.037626681513298045,0.016819398535777647
357,18.1,-4.51,-1.22,8.58,-0.0105,-0.009770000000000001,-0.0355,0.14,0.314,0.0574,18100000000.0,-4.517770057168437,-1.198754900816262,8.588056909131902,0.004809588868895796,0.004642802343065126,-0.03091201284727716,0.11271246073873117,0.21535198902503755,0.04129375119318135
358,18.1,-4.64,-0.986,8.61,-0.0215,-0.009770000000000001,0.0103,-0.179,0.0757,-0.0242,18100000000.0,-4.595939042589987,-1.061547256648571,8.601632227745872,-0.01271457718190443,-0.00486762692764472,-0.003154497163141333,-0.059904267445801074,0.12554704005014003,0.0017941595613381323
359,18.2,-4.71,-1.07,8.6,-0.0783,-0.00733,0.0415,-0.0565,0.268,0.14,18200000000.0,-4.668883869622535,-1.0669985445022443,8.600622653485315,-0.056399402529683854,-0.006492447916076611,0.02692163282745433,-0.05788983972368821,0.21715319247155118,0.08514675722877507
360,18.2,-4.83,-0.9940000000000001,8.65,-0.0856,-0.0244,0.0671,-0.102,0.0709,-0.0192,18200000000.0,-4.771921570108126,-1.019921105030864,8.63117069817712,-0.07584919972302101,-0.018308921548132923,0.05398295955850048,-0.0839914024209873,0.12310325794822571,0.022214732908464097
361,18.3,-4.83,-0.9940000000000001,8.65,-0.0911,-0.00672,0.0409,-0.00687,0.188,0.113,18300000000.0,-4.8090641133311465,-1.0032043509395348,8.64281958546541,-0.08600737998423028,-0.010661857924534238,0.04517119706848407,-0.038355902778340785,0.1648359111542269,0.07696775652459725
362,18.3,-4.28,-0.96,8.63,-0.0874,-0.0397,-0.00985,0.174,0.271,0.0169,18300000000.0,-4.470714664922605,-0.9753414430982623,8.6348885639167,-0.086934967567179,-0.02982296185655985,0.008112785489020495,0.08730269797892623,0.23310604787579015,0.04074060744764372
363,18.4,-4.36,-0.8759999999999999,8.63,-0.13,-0.0263,-0.0471,0.00718,0.22,0.0892,18400000000.0,-4.3999099844608605,-0.9112751998221831,8.631864227104508,-0.11561951594954108,-0.027498300927619238,-0.029074666621167443,0.03989122413361917,0.22467803997258795,0.06996669522169396
364,18.4,-4.36,-1.04,8.63,-0.14400000000000002,-0.044,-0.074,0.276,0.139,-0.115,18400000000.0,-4.37438664793405,-0.9942910147119515,8.63071095660872,-0.1345230493778991,-0.038387108809852875,-0.059333214558973175,0.17960525065421604,0.16958170954256288,-0.04158759645766057
365,18.5,-4.15,-1.18,8.65,-0.162,-0.113,-0.0838,0.263,0.0757,-0.0142,18500000000.0,-4.230885899185769,-1.1140564595918767,8.642644272191973,-0.15282476601299422,-0.08762115582915991,-0.07581232372723357,0.22895292152802538,0.10920990820903752,-0.025070007303527122
366,18.5,-4.39,-1.2,8.61,-0.253,0.011,-0.0251,-0.198,-0.213,-0.139,18500000000.0,-4.332643215667805,-1.169482291323343,8.622448029413935,-0.21954900256437143,-0.02254501857180087,-0.041656066568438496,-0.023690433973869163,-0.09799118151614146,-0.09378172493535585
367,18.6,-4.59,-1.57,8.53,-0.228,-0.0544,-0.0147,0.26,-0.27699999999999997,0.0029,18600000000.0,-4.497229340465243,-1.4277799785232719,8.565253046108605,-0.22517800273893962,-0.04356484108868539,-0.02350035466736513,0.14417936459115208,-0.21310503569943506,-0.03547251848703625
368,18.6,-4.19,-1.84,8.56,-0.20600000000000002,-0.0055,0.00481,0.131,-0.331,0.107,18600000000.0,-4.300748617005066,-1.6936245854802487,8.562003403918608,-0.2124040102341727,-0.01844738220294229,-0.0044324894710611185,0.13638066026833587,-0.28891885935718437,0.050453333038448026
369,18.7,-4.54,-2.01,8.43,-0.11900000000000001,-0.14400000000000002,0.0274,-0.18899999999999997,-0.308,-0.192,18700000000.0,-4.453755767977371,-1.8976580724440983,8.480337052894784,-0.1501899140794678,-0.10129450482716283,0.01700763832280351,-0.05615874342900046,-0.3011892231595063,-0.09577142207821375
370,18.7,-4.62,-2.24,8.94,-0.0972,-0.0257,0.0592,-0.0498,0.0974,-0.384,18700000000.0,-4.560072991871125,-2.1184376212295755,8.764716447620284,-0.11489464385301759,-0.051412728581611215,0.045425447960248506,-0.052396047530593015,-0.04487146302402517,-0.26960344531345487
371,18.8,-4.39,-1.68,8.23,-0.052,-0.058,0.0366,0.431,-0.43700000000000006,-0.0121,18800000000.0,-4.451307022807369,-1.83568502425576,8.433903164376567,-0.07300207994071253,-0.05575940315687875,0.03948124722904345,0.23364672718249585,-0.2970346012696288,-0.11430189713021982
372,18.8,-4.11,-2.6,8.55,-0.00374,-0.0611,0.0537,-0.00343,-0.648,0.0653,18800000000.0,-4.233032827646116,-2.3285989098658417,8.505728906330326,-0.026868323879704996,-0.059283447494277206,0.0490579998602938,0.09335992503761262,-0.5227272684498385,-0.005983140236241816
373,18.9,-4.11,-2.6,8.55,0.105,-0.0635,0.0372,0.304,-0.632,0.19899999999999998,18900000000.0,-4.154350377532814,-2.5036279748801933,8.533118219815309,0.06096589863295509,-0.06206578237318507,0.04107128460481254,0.21800320611719426,-0.5929964766212098,0.11764316360369241
374,18.9,-4.11,-2.15,8.56,0.0567,-0.172,0.0836,-0.606,0.56,-0.158,18900000000.0,-4.125987299839371,-2.2755700152278115,8.549749429129191,0.0581244883210717,-0.1346069583497275,0.06971563815123585,-0.2695890471034892,0.1484522534338949,-0.048598538988231646
375,19.0,-4.77,-1.45,8.49,0.0097,-0.0672,0.0671,-0.253,0.526,-0.0287,19000000000.0,-4.537849333826257,-1.743152145325122,8.512784110957467,0.02587013611786032,-0.09012781393727198,0.0679539303789325,-0.2597727077538793,0.391239043588273,-0.03659763563193971
376,19.0,-4.06,-1.72,8.78,0.0225,-0.00672,0.00603,0.37200000000000005,0.0945,0.145,19000000000.0,-4.23225283252186,-1.7282211265748268,8.678102387530185,0.02362537250978471,-0.03509034951865544,0.026246322649177388,0.11406986687940035,0.20041730851129025,0.07292475646877769
377,19.1,-3.82,-1.88,8.98,-0.0544,-0.0171,0.00603,0.312,-0.0216,0.289,19100000000.0,-3.9686069097002097,-1.8261047525827923,8.864877086337515,-0.028345396229418843,-0.02321924137374389,0.012630028353428956,0.2311922291285195,0.057646315833697004,0.20324076252681203
378,19.1,-4.11,-1.96,8.9,-0.099,0.0116,-0.0166,0.10099999999999999,0.0384,-0.0539,19100000000.0,-4.059031372544284,-1.9124550869368404,8.886606341712705,-0.0754066776175955,-0.0002434234211597698,-0.007057264339020432,0.15415281995016683,0.045269734169619436,0.04815795026659464
379,19.2,-4.02,-1.86,8.64,-0.0337,0.0299,-0.145,0.205,-0.125,0.0782,19200000000.0,-4.034069832479736,-1.8786263151378195,8.734038620038756,-0.04762689289017723,0.0196470099455255,-0.09996579391230284,0.1842409189380903,-0.06422433668460197,0.06627645134510465
380,19.2,-3.9,-2.24,8.81,0.0152,0.0232,-0.2,0.10400000000000001,-0.259,0.0612,19200000000.0,-3.9483289204685814,-2.1116796239725595,8.781033903087526,-0.005779455330969109,0.021991485098493975,-0.16734180692312287,0.13675949066878595,-0.18947725229651408,0.06321481969073056
381,19.3,-4.17,-2.12,8.65,0.0274,-0.00733,-0.221,-0.11699999999999999,-0.0797,-0.0407,19300000000.0,-4.090093105857509,-2.1170454392578555,8.699966928291301,0.016320558159227234,0.0026434155110696585,-0.2034821953441749,-0.013399100150498194,-0.11888362486297431,0.0005432996295187675
382,19.3,-4.11,-2.37,8.68,0.0677,-0.0202,-0.22899999999999998,-0.11599999999999999,-0.134,0.00496,19300000000.0,-4.102824142283006,-2.2801781509318904,8.68761417848738,0.05054313098927437,-0.012430035823227848,-0.22066919666193582,-0.0741117303500315,-0.12860440010151167,0.003207032582868223
383,19.4,-4.14,-2.22,8.7,0.0824,-0.0269,-0.243,-0.113,-0.14400000000000002,0.061,19400000000.0,-4.126598937150659,-2.2413687114405842,8.69527679611061,0.07176220352877631,-0.021978184231750637,-0.2357096569050599,-0.09712331304776622,-0.1385047281639734,0.038062245518854294
384,19.4,-4.05,-2.22,8.75,0.0836,-0.0476,-0.262,-0.0191,0.0474,0.0377,19400000000.0,-4.07761214476887,-2.227587846047663,8.72913239814224,0.07964706628263718,-0.038884991478910697,-0.2534169806842264,-0.050954119985406846,-0.01895637898567311,0.037843774223592516
385,19.5,-4.05,-1.93,8.75,0.0201,-0.00122,-0.265,-0.11800000000000001,0.221,0.0274,19500000000.0,-4.059953617406332,-2.0356705994702646,8.742042556423156,0.03998423975860377,-0.014031377285437067,-0.2612184788274525,-0.09062757218269313,0.13535055631367499,0.03154508451024554
386,19.5,-3.86,-1.85,8.86,0.00237,0.044,-0.278,0.145,0.272,0.15,19500000000.0,-3.9320782677547763,-1.91592989151579,8.815019070208416,0.014930326130334948,0.024261196234687275,-0.2725213301883384,0.04880171048254814,0.22322469061408645,0.1029858089792523
387,19.6,-3.77,-1.9,8.88,-0.00557,0.0464,-0.262,-0.0341,0.214,0.0152,19600000000.0,-3.8284251956358974,-1.905656538637318,8.855220889853006,0.0012755665792953397,0.03886970272503063,-0.2654348978995182,-0.0002542047320570895,0.21729263954847766,0.05004177173297395
388,19.6,-4.06,-1.98,8.7,-0.0337,0.0525,-0.207,-0.254,0.225,0.0115,19600000000.0,-3.9765229725578926,-1.9536013513740567,8.75919027106971,-0.022020792446692247,0.0478637870341727,-0.2260772588953926,-0.15040469706417575,0.22224894973982268,0.026797046569882542
389,19.7,-4.06,-1.98,8.7,-0.0343,-0.00305,-0.157,-0.386,0.24,-0.0913,19700000000.0,-4.029908559140618,-1.9706261015192326,8.722570910789296,-0.030199668142737404,0.014267825157195442,-0.17955167545697057,-0.2898148917011431,0.23366397999773406,-0.044427843811244226
390,19.7,-4.41,-1.99,8.63,-0.0367,-0.0696,-0.0972,-0.462,0.235,-0.0546,19700000000.0,-4.272986336466263,-1.983120517793917,8.665300140472986,-0.03452937762256939,-0.04107318278811662,-0.12408537358012427,-0.391703002956876,0.2345231238980909,-0.050562719643266765
391,19.8,-4.47,-1.93,8.63,-0.0667,-0.0819,-0.038,-0.29100000000000004,0.237,0.115,19800000000.0,-4.398981311653933,-1.9488625602975607,8.643461074992398,-0.05595743018228479,-0.06801315907582786,-0.06610431503280707,-0.3321134295196798,0.23611591211292418,0.04928894241183594
392,19.8,-4.15,-1.94,8.75,-0.0929,-0.0886,0.007859999999999999,0.0361,0.172,0.0778,19800000000.0,-4.239751667307207,-1.9431470483533055,8.70937350682343,-0.08056396136265404,-0.08159758951868254,-0.016287150335395663,-0.11422833738426458,0.1948853809299763,0.06648409528218482
393,19.9,-3.85,-2.16,8.92,-0.0691,-0.0373,0.069,0.17,0.000778,0.239,19900000000.0,-3.9904957777272476,-2.0829976204848184,8.839681836863733,-0.07292810059069224,-0.052367391655827544,0.041156279144708555,0.053959764621683254,0.07006221475802048,0.17052925049027517
394,19.9,-3.72,-2.26,8.75,-0.0544,0.00305,0.094,0.17300000000000001,-0.0844,0.0126,19900000000.0,-3.8175070576478882,-2.1971481207410117,8.784198378978825,-0.06058699213302938,-0.015799682082073024,0.07674809358699267,0.12440013705601223,-0.02926663291472774,0.07528137112341379
395,20.0,-3.83,-2.26,8.7,-0.00557,-0.0183,0.0665,0.258,-0.292,0.0669,20000000000.0,-3.8254965544018287,-2.2376818851855518,8.73210725372927,-0.023941536244525427,-0.017449541773628455,0.06984569840526751,0.20345595941551994,-0.1982205904797728,0.07022652646628226
396,20.0,-3.82,-2.55,8.73,0.0182,0.022,0.0732,0.0497,-0.426,-0.00391,20000000000.0,-3.821981329256274,-2.439098756645315,8.730803275956939,0.0041278978723874905,0.00858162534675725,0.07210492178307487,0.11247304348338658,-0.3446969729229,0.025514436049049072
397,20.1,-3.82,-2.55,8.73,0.0158,-0.014,0.0977,0.0931,-0.325,0.0514,20100000000.0,-3.820714177511892,-2.5106199852389954,8.730306030053,0.011902395521095298,-0.006319081983373947,0.08934396756724768,0.10100931674693789,-0.33203058177227857,0.04112614135119858
398,20.1,-3.99,-2.55,8.64,-0.0117,-0.009770000000000001,0.19,-0.17,-0.151,0.048,20100000000.0,-3.928976653004177,-2.5360164979664384,8.67443661499989,-0.0038185753891142662,-0.00859620432860505,0.15713879549020798,-0.05935661665385597,-0.2156166095470919,0.04527179832824271
399,20.2,-4.11,-2.42,8.74,-0.0398,-0.0476,0.242,-0.0858,-0.109,0.0158,20200000000.0,-4.04474564493842,-2.4611964118090506,8.714998569778059,-0.027784910840206335,-0.03433324231233448,0.21429533807788098,-0.07500411468434823,-0.14705547069245278,0.02749721663334955
400,20.2,-4.01,-2.36,8.69,-0.0563,-0.000611,0.256,0.0117,-0.0891,0.08,20200000000.0,-4.022525092224103,-2.395933822339734,8.699532446159774,-0.04677810509842296,-0.012081289853555822,0.24238467561257182,-0.02369818061054993,-0.10978648633476354,0.05916189300716452
401,20.3,-3.76,-2.28,8.74,-0.041,-0.0226,0.20800000000000002,0.21899999999999997,-0.0469,0.0613,20300000000.0,-3.8546337982183476,-2.321166986821219,8.724568364229285,-0.0429294531467607,-0.01902216442602353,0.2192255775011867,0.11991503520987137,-0.06934654920938396,0.06045139444942901
402,20.3,-3.76,-2.38,8.72,-0.0343,-0.000611,0.16399999999999998,0.0731,-0.179,-0.0184,20300000000.0,-3.794113138159075,-2.3591090265252253,8.721742219744511,-0.03718158777265882,-0.006873376935377137,0.18202951269786402,0.09221290024346293,-0.1398605682163297,0.01289574454429053
403,20.4,-3.9,-2.41,8.67,-0.0153,-0.00367,0.114,0.233,-0.299,0.0519,20400000000.0,-3.861830465549116,-2.3919291513574175,8.689730910237365,-0.022606804132457782,-0.004759597238230032,0.13620961397179332,0.17552167368240376,-0.2421971564314121,0.036419395471836466
404,20.4,-3.65,-2.67,8.85,0.0476,0.0232,0.047,0.365,-0.391,0.16399999999999998,20400000000.0,-3.7263597059113596,-2.5712597173383913,8.78888481662834,0.024156210094746104,0.013689817130699554,0.07612428640148036,0.28764280056010316,-0.3378866779052485,0.11336386538260626
405,20.5,-3.52,-2.53,8.73,0.0463,0.0159,0.0299,0.341,-0.209,0.0212,20500000000.0,-3.5943875591490313,-2.5446509174615746,8.75245426663041,0.03890564110012751,0.01514822859580596,0.0449908553007167,0.3192161635977633,-0.2550045002842368,0.05777940104219777
406,20.5,-3.63,-2.37,8.68,0.0549,0.0318,-0.0294,0.146,0.0496,0.0125,20500000000.0,-3.6171626688459817,-2.4320168173398726,8.707629177631945,0.04955908860366186,0.026136064563064304,-0.0051135970143578804,0.21671794600982258,-0.05912478592823853,0.03047117981282598
407,20.6,-3.69,-2.27,8.73,0.0909,0.10400000000000001,-0.106,0.106,-0.0684,0.153,20600000000.0,-3.6637439797536557,-2.3275306292240656,8.72146905007215,0.07709524348090653,0.07751534774009881,-0.07306358711449717,0.15120216576732354,-0.06508932966789922,0.10436889019026713
408,20.6,-3.76,-2.35,8.83,0.0806,0.11199999999999999,-0.14300000000000002,0.0502,0.0365,0.0348,20600000000.0,-3.725302078714374,-2.342021277166165,8.78861384066814,0.07942967561116157,0.10027038616161282,-0.12016784433002,0.09143556212677777,0.00023895228543766023,0.06241156313341783
409,20.7,-3.76,-2.35,8.83,0.0653,0.091,-0.16699999999999998,-0.183,0.0985,0.0484,20700000000.0,-3.7474922512492816,-2.3471667693805274,8.814218166756426,0.07001825041544235,0.09415322967710005,-0.15171069022243022,-0.0709578015002978,0.06342694047049686,0.05396112285051795
410,20.7,-4.13,-2.15,8.7,0.0824,0.0855,-0.20800000000000002,-0.198,0.172,-0.0126,20700000000.0,-3.992115487990745,-2.2200121189925897,8.743554700784154,0.07826542822437725,0.08844331243196703,-0.18962321627154133,-0.14613322602726936,0.13324620089597636,0.013817794225029434
411,20.8,-4.11,-2.12,8.68,0.10099999999999999,0.0421,-0.225,-0.239,0.221,-0.025,20800000000.0,-4.067505633723958,-2.155513284996385,8.704235505778193,0.0934083657839572,0.05786322376904056,-0.2134505275622088,-0.20108582243723067,0.18967737367633802,-0.00959340164920959
412,20.8,-4.23,-2.01,8.63,0.0763,0.0403,-0.212,-0.29100000000000004,0.267,-0.0548,20800000000.0,-4.171424811136009,-2.061670386921592,8.658308299636222,0.08201290879443308,0.04627395854607551,-0.21247355245056126,-0.25429127111033145,0.23940064389857496,-0.036857715367891675
413,20.9,-4.23,-2.01,8.63,0.0677,0.0415,-0.188,-0.188,0.20600000000000002,-0.00221,20900000000.0,-4.208885104994834,-2.0283476601983663,8.640794876004318,0.07247943379771407,0.04312381411742424,-0.19598988313969587,-0.21506434467945562,0.21792194446125418,-0.015961514077258546
414,20.9,-4.07,-2.0,8.71,0.11199999999999999,0.0312,-0.155,-0.0535,0.12,0.21899999999999997,20900000000.0,-4.1200647559354175,-2.0100659863816244,8.683610030481969,0.09880310648463794,0.03525576782288056,-0.1683819793521197,-0.11946092773154587,0.1549520181205649,0.1257448865734365
415,21.0,-4.07,-2.05,8.9,0.0732,0.00733,-0.0648,-0.369,0.312,-0.14,21000000000.0,-4.088047216350628,-2.035819778204923,8.817483766960551,0.08174951288005247,0.016828675887931282,-0.09861643874064009,-0.2671221392008265,0.25594368081462626,-0.034527114208741494
416,21.0,-4.53,-1.7,8.48,0.00603,-0.0104,0.0231,-0.474,0.41,-0.163,21000000000.0,-4.370687083790536,-1.8192464620421758,8.60869241718302,0.031314620490596,-0.001138433069927957,-0.01663679969318406,-0.38953919310562507,0.3550115111551536,-0.1120097219554614
417,21.1,-4.53,-1.7,8.48,-0.0422,-0.0287,0.0909,-0.303,0.231,-0.0491,21100000000.0,-4.4725717671973015,-1.742343323093055,8.5290740021628,-0.017651646957696734,-0.01932520321507433,0.05579242871011142,-0.3383308506910301,0.2752643700872416,-0.07406857077121853
418,21.1,-4.2,-1.98,8.79,-0.0349,-0.022,0.138,0.152,-0.00944,0.12300000000000001,21100000000.0,-4.298255260242466,-1.895610371091932,8.69050105363532,-0.029140346719623813,-0.021090194038751335,0.11116166900800487,-0.04818450374062694,0.09218168283592576,0.04478442019211222
419,21.2,-4.01,-1.99,8.78,-0.0331,-0.0153,0.147,0.135,0.00533,0.0254,21200000000.0,-4.113909040036472,-1.9564831404723022,8.745871197460895,-0.03177777471364534,-0.017269477748742833,0.13529985003297004,0.06021234012433595,0.03633062772821271,0.033093584328886
420,21.2,-4.07,-1.96,8.65,-0.0404,-0.0116,0.152,0.0714,-0.00293,0.0066099999999999996,21200000000.0,-4.085828232980777,-1.9587512210011808,8.686558332136347,-0.03752082439145389,-0.013528417132732933,0.14654789410348867,0.0668324806864597,0.01108359265941861,0.01712120914224724
421,21.3,-4.07,-1.96,8.65,-0.0392,-0.0202,0.17,0.0289,-0.126,0.0423,21300000000.0,-4.075705796388267,-1.9595565949740719,8.66394055447228,-0.03863928198765084,-0.017930726026860244,0.16234358566955268,0.044386471040181674,-0.07706971833679853,0.032306657702066144
422,21.3,-4.14,-2.08,8.71,-0.0367,-0.0269,0.183,0.0375,-0.14400000000000002,0.0619,21300000000.0,-4.116823444008001,-2.037231635308005,8.692436173117429,-0.03734757370016726,-0.02384919003441907,0.17625629354425754,0.04031150002736955,-0.12011006464216221,0.05015454329563673
423,21.4,-4.14,-2.07,8.72,-0.0434,-0.0299,0.17800000000000002,0.0877,-0.11,0.0565,21400000000.0,-4.131645339263305,-2.058364220155633,8.709489249828954,-0.0413789454846801,-0.027841876027434376,0.1774307337559794,0.06835297614935312,-0.11360866141315115,0.053981517711188184
424,21.4,-4.09,-2.02,8.71,-0.041,-0.0318,0.154,0.0938,-0.10099999999999999,0.0726,21400000000.0,-4.105012212628368,-2.0336227599114243,8.709805259214153,-0.04112654003658972,-0.03045368419303741,0.1616494376041116,0.08341089330833278,-0.10550050709067947,0.06521041237286723
425,21.5,-4.09,-2.02,8.71,-0.0227,-0.0214,0.115,0.11199999999999999,-0.138,0.0823,21500000000.0,-4.095411629030903,-2.0248373010715426,8.709925763087556,-0.02885307843761093,-0.02447952244180917,0.13022965627440253,0.10032809511852385,-0.12639970810350243,0.07551722359140546
426,21.5,-3.97,-2.04,8.69,-0.0294,-0.0122,0.0757,0.136,-0.146,0.127,21500000000.0,-4.0152078095228525,-2.034615844226825,8.69759803255101,-0.02921736957755582,-0.016376758922522786,0.09350231200216533,0.12143644496673245,-0.13900391827153982,0.10656673245802603
427,21.6,-3.99,-2.09,8.81,-0.0196,-0.00244,0.0549,0.13,-0.138,0.046,21600000000.0,-3.9990867981212017,-2.070333554057089,8.767138012183656,-0.022811478039763213,-0.00718045177572418,0.0675025087041145,0.1265038047862322,-0.13835833391434027,0.07003864914868886
428,21.6,-4.0,-2.07,8.71,-0.00924,-0.00305,0.0292,0.121,-0.12300000000000001,0.0436,21600000000.0,-3.9996708133033367,-2.0701183988427725,8.731788464416137,-0.013771852346102778,-0.004454932606689443,0.04170463113346148,0.12324700571483885,-0.12848196840511775,0.05409337482382832
429,21.7,-4.0,-2.07,8.71,0.0042,-0.000611,0.00909,0.0561,-0.128,0.0483,21700000000.0,-3.9998813363356165,-2.0700419992583945,8.718308619738998,-0.0018012466875277095,-0.0019184759586247796,0.019737707584300206,0.08351371405725524,-0.12817203653573067,0.05059936408118286
430,21.7,-4.07,-2.08,8.7,0.0109,0.00183,-0.0166,0.0576,-0.0492,0.083,21700000000.0,-4.04472406534727,-2.076463958791209,8.706981508805791,0.00665873924645247,0.0005549926575934461,-0.004736818323645722,0.06817963948074898,-0.07738808492135643,0.07014033924096161
431,21.8,-4.03,-2.03,8.78,0.00298,0.00855,-0.0392,0.0205,0.0067599999999999995,-0.0281,21800000000.0,-4.035307795654953,-2.04649889444536,8.752155690189559,0.004208422212759105,0.005830576944370981,-0.027948795805946062,0.03996588712688767,-0.023275612178731774,0.010891124677826734
432,21.8,-4.07,-1.96,8.64,-0.00863,0.007940000000000001,-0.066,0.0242,-0.0271,-0.00496,21800000000.0,-4.057494427945676,-1.9907149650027638,8.682768546905386,-0.004342932904377853,0.0072225003935243205,-0.05357741254264132,0.03063664620007992,-0.025734932686881373,0.001331236238475952
433,21.9,-4.07,-1.96,8.64,0.0195,0.0354,-0.11199999999999999,0.18899999999999997,-0.125,0.163,21900000000.0,-4.0654921602800345,-1.9709066185588826,8.656309144363313,0.01153825447909892,0.025815699622736558,-0.09292676395205111,0.12434591966177547,-0.08956856916219437,0.09883443529998692
434,21.9,-3.81,-2.2,8.82,0.0305,0.0397,-0.141,0.0977,-0.0985,0.0362,21900000000.0,-3.9020985696601405,-2.118651134879156,8.757579569683156,0.024168203793825293,0.03497739242807839,-0.12530551902312867,0.10857857324148075,-0.0953120358802714,0.06105931166136163
435,22.0,-3.95,-2.15,8.73,0.0402,0.036,-0.16,-0.0774,-0.0202,-0.00432,22000000000.0,-3.932732749310864,-2.138868375601324,8.74051663537199,0.03484658538279965,0.03565216904514058,-0.14867328073710967,-0.0014716179318545186,-0.047010306245606946,0.021628739075311168
436,22.0,-4.18,-2.08,8.72,0.0604,0.0312,-0.15,-0.20199999999999999,0.0324,0.0363,22000000000.0,-4.090866160495338,-2.1009035549383506,8.727823774713373,0.05186708314100902,0.03271436105969104,-0.14956686960779125,-0.1201314576209327,0.004055479656024673,0.030477045945549747
