,Time (s),Acceleration x (m/s^2),Acceleration y (m/s^2),Acceleration z (m/s^2),Gyroscope x (rad/s),Gyroscope y (rad/s),Gyroscope z (rad/s),Linear Acceleration x (m/s^2),Linear Acceleration y (m/s^2),Linear Acceleration z (m/s^2),SPM/RPM,Timestamps,Acceleration x (m/s^2)_kalman,Acceleration y (m/s^2)_kalman,Acceleration z (m/s^2)_kalman,Gyroscope x (rad/s)_kalman,Gyroscope y (rad/s)_kalman,Gyroscope z (rad/s)_kalman,Linear Acceleration x (m/s^2)_kalman,Linear Acceleration y (m/s^2)_kalman,Linear Acceleration z (m/s^2)_kalman
0,0.247,4.48,1.81,15.0,-1.48,0.7170000000000001,-1.33,0.0381,2.39,-2.63,90.0,247000000.0,2.790415792010349,1.3005972852215975,10.697489248679542,-1.1934876909783014,0.36480486725676264,-1.2251222878885926,1.7883677495607744,0.19319635286408324,0.07465467516216918
1,0.267,2.73,1.68,15.9,-0.192,-0.574,-0.902,5.32,-3.1,7.74,90.0,267000000.0,2.776857132049991,1.3973675358992164,12.32149456192985,-0.43395194371840806,-0.198748830513651,-1.0043481416863127,2.7672518535052606,-0.6056199014303107,3.012539136080623
2,0.317,2.21,2.45,8.51,-1.15,-0.154,-1.5,7.22,-1.65,-0.815,90.0,317000000.0,2.593445093504552,1.7818506503024705,10.709767916734231,-0.9971824891025788,-0.16924538159753405,-1.362261643484182,4.479505552279412,-0.9720499540895688,1.127032527711535
3,0.36700000000000005,1.86,1.22,8.43,-0.332,-0.584,-0.9329999999999999,3.19,-3.19,0.0977,90.0,367000000.0,2.324952087477459,1.5533151485305645,9.666731351474365,-0.4731133486131943,-0.44548352359920373,-1.0510147403796652,3.934449486352032,-1.844801733938752,0.5925140925552468
4,0.41700000000000004,1.86,1.22,8.43,-0.634,-0.0586,-0.9520000000000001,3.64,-3.22,-1.23,90.0,417000000.0,2.1470118420715654,1.4129867418389568,9.088522097506829,-0.599878368281985,-0.1875191546844498,-0.9791994373998917,3.8063267992783785,-2.4069593969244476,-0.36498308640117194
5,0.467,0.304,1.24,2.95,-0.534,0.315,-0.0708,2.39,-1.7,1.7,90.0,467000000.0,1.4301148485939472,1.3393381123416928,6.201245149084359,-0.5479716229686538,0.14758988625754454,-0.3203226216809626,3.184462900174238,-2.114222433688715,0.7227229966322558
6,0.517,-0.792,1.26,10.5,-0.007640000000000001,0.8059999999999999,0.0453,7.07,-1.57,-0.433,90.0,517000000.0,0.5605683204160808,1.3054364719590017,8.226580410467726,-0.12223473732422102,0.5866621591134082,-0.05513015012161465,4.89528686659601,-1.8878850212635254,0.11360562779661709
7,0.5670000000000001,4.39,2.17,9.41,0.0889,-0.55,-1.08,6.82,-0.746,-0.823,90.0,567000000.0,2.062387981452701,1.675311064690647,8.784403780464235,0.04412207435994242,-0.17134201118441705,-0.7984862782683673,5.743494607777514,-1.4122794649358485,-0.3800912490802164
8,0.617,4.39,2.17,9.41,-0.703,-0.7290000000000001,0.16399999999999998,0.6779999999999999,0.647,0.623,90.0,617000000.0,2.9759687304845865,1.8870298858762438,9.079326978895589,-0.5445486930986638,-0.5432265893921265,-0.10037807080396599,3.5105526863588494,-0.554137789055056,0.14866640852049096
9,0.667,4.39,2.17,9.41,-1.32,0.19899999999999998,0.418,2.65,-0.0184,2.31,90.0,667000000.0,3.5311380901190668,2.0081519830462056,9.23522097468698,-1.1555406005443933,-0.04825898035701642,0.27561065896849,3.1311762916679364,-0.33084715289682065,1.2879735716039258
10,0.7170000000000001,-0.29,2.19,11.4,-1.6,1.98,0.915,3.35,-1.51,0.461,90.0,717000000.0,2.0307374285084494,2.0859931883779064,10.255804991912044,-1.505738079144908,1.3043232669144729,0.7393709951513625,3.2276477269990362,-0.8223360101455659,0.8520490502545599
11,0.767,-0.836,-0.304,12.8,0.601,2.97,0.317,4.16,-2.05,6.06,90.0,767000000.0,0.9050439789641718,1.0629276758924924,11.455268217999222,0.1541983032482963,2.4151108037717304,0.4330178941714199,3.6386915878438617,-1.334055190686584,3.597329313516412
12,0.8170000000000001,-0.836,-0.304,12.8,2.81,-0.713,0.836,4.22,-4.67,3.79,90.0,817000000.0,0.2213708735642601,0.477795124157014,12.089243880915712,2.246751614249919,0.32907191903594324,0.7253079126796547,3.8949722247252625,-2.7245647976931866,3.6988922847283527
13,0.867,-1.97,-0.342,16.8,-0.5589999999999999,-0.431,0.831,2.79,-1.83,-1.21,90.0,867000000.0,-0.6391413558760616,0.1268698111624207,14.310136204654706,0.03605004121642885,-0.1777961767817563,0.8019682187666897,3.407824053458155,-2.351685813259254,1.1112552883070674
14,0.917,-1.24,1.11,7.24,-1.1,3.95,-0.276,4.19,-4.45,-2.21,90.0,917000000.0,-0.8750883042611474,0.5477132950572103,10.976910103081742,-0.8590639950565953,2.5749015292771484,0.020098939022497042,3.752661404065332,-3.22632099031988,-0.6394865538853372
15,0.9670000000000001,-1.44,-2.02,5.73,2.13,0.997,0.11699999999999999,4.44,-3.64,0.23600000000000002,90.0,967000000.0,-1.0969196849941514,-0.5514346778113222,8.503246671915125,1.496072738810743,1.5226485251103665,0.09038297977120956,4.055687907050744,-3.398753906644659,-0.17798907920961615
16,1.02,-1.44,-2.02,5.73,-0.509,2.0,0.155,4.35,-3.35,-2.64,90.0,1020000000.0,-1.2316416366089673,-1.1800759960180192,7.195795476019582,-0.08375970911361263,1.8409792368166444,0.13725084047624467,4.185441031280426,-3.3784318859958726,-1.475795269709049
17,1.07,-1.44,-2.02,5.73,-1.42,3.01,-0.447,5.48,-6.89,-1.49,90.0,1070000000.0,-1.3134605286623922,-1.5396180121541494,6.504744060249644,-1.1366071483067608,2.620562474919712,-0.28651655487643646,4.756172349959138,-4.842150888651075,-1.4832830506698846
18,1.12,-1.44,-2.02,5.73,-0.184,-0.35600000000000004,0.395,11.7,5.81,4.35,90.0,1120000000.0,-1.363150502262115,-1.7452526953129075,6.139489846791574,-0.38603104659285126,0.6355864082347562,0.2077993817389716,7.8174927298036945,-0.4020387106783172,1.59163036429599
19,1.27,2.95,5.79,9.11,-1.25,1.21,0.489,11.0,5.1,3.66,90.0,1270000000.0,0.33055218805680653,1.480324857929137,7.5399410495489825,-1.066767539538851,1.0186448237681307,0.41175912439849693,9.22056249641558,1.8913637329113144,2.681935403945726
20,1.32,1.86,5.02,7.17,0.19,0.16399999999999998,0.0777,10.5,5.76,1.01,90.0,1320000000.0,0.9311409876734167,2.995535713977174,7.365531835603466,-0.07653806159616638,0.4487090261944995,0.16946017084322063,9.784627218840562,3.5039188282620533,1.8006037985221799
21,1.37,1.19,5.62,4.53,-0.402,1.24,0.35700000000000004,10.0,5.51,4.26,90.0,1370000000.0,1.0327906520008034,4.118976839694153,6.028716295477469,-0.33297531490176535,0.9763961396622771,0.3054860984302916,9.879578467097197,4.340109250638547,3.0970317507403005
22,1.42,0.539,5.62,7.57,-1.06,2.52,0.982,10.6,2.59,4.65,90.0,1420000000.0,0.8388872407129524,4.76151219557328,6.755356837479987,-0.9058109399727259,2.0057770785099014,0.796173510101437,10.19719037550297,3.6106150910199064,3.9156519398369154
23,1.47,1.23,3.22,6.85,-0.715,0.622,1.42,10.1,3.54,7.38,90.0,1470000000.0,0.9924707436676173,4.101644866060567,6.799976450177714,-0.7554675885900797,1.0829795758404457,1.248645790290405,10.154342290419445,3.5811807446982487,5.741822684142575
24,1.52,0.737,4.68,9.03,-0.838,1.3,1.33,10.7,1.63,7.95,90.0,1520000000.0,0.8921516141297424,4.349218354386174,7.8513241946961765,-0.8204963419398412,1.2277036513537574,1.3076534587954656,10.394905941303318,2.7678744377571944,6.905824759252923
25,1.57,1.24,3.28,9.59,-0.9229999999999999,1.52,0.669,9.8,1.01,11.0,90.0,1570000000.0,1.0287459112904662,3.8915234401449075,8.671025522876125,-0.9012607785497577,1.4226268966281985,0.8444269079296574,10.132630256746808,2.03514356431384,9.063997861345218
26,1.62,0.175,2.7,11.0,-0.289,1.38,-0.156,7.97,4.58,10.3,90.0,1620000000.0,0.6934940468145367,3.3814740380750834,9.769023952963444,-0.4188496335300221,1.394200354398407,0.11879969568378423,9.179192866846542,3.095910347675029,9.715534941356822
27,1.67,-1.82,6.75,10.7,1.06,0.20600000000000002,0.691,6.63,1.66,9.73,90.0,1670000000.0,-0.293513409440452,4.8234219373840315,10.207933884656136,0.7463622299305797,0.6018268428745299,0.533826616659395,8.055332030798123,2.4973830357170597,9.723159703540903
28,1.72,-3.02,4.06,10.4,0.375,2.13,2.19,5.76,0.78,14.7,90.0,1720000000.0,-1.3641594778858783,4.496627739016855,10.298483556341592,0.4537593290756274,1.6209176192478785,1.735078305591447,7.043390695457409,1.7815300948532076,12.346614201211182
29,1.77,-3.26,4.26,13.2,0.166,0.614,0.767,5.54,1.21,11.9,90.0,1770000000.0,-2.108624612033057,4.395335795592748,11.666407645624542,0.2270286346266113,0.9494358870406878,1.0329141193747022,6.380591868188788,1.5433004998469635,12.111189110035008
30,1.82,-3.45,4.7,10.3,1.03,0.0935,0.8220000000000001,6.54,-0.0569,8.23,90.0,1820000000.0,-2.6353605041182195,4.525751781538999,11.022212848702049,0.8597040213620898,0.37863911903026537,0.8799344230237178,6.4508700035904045,0.8762925058874858,10.065287692338025
31,1.87,-2.04,3.88,6.2,0.256,0.486,1.07,6.99,-3.55,4.56,90.0,1870000000.0,-2.401572290909832,4.249328126096741,8.748773444854628,0.3840349034135352,0.4502347208073126,1.0177923627582275,6.688555769290379,-0.9687090777109582,7.163271231946526
32,1.92,-2.1,0.19399999999999998,2.54,-0.73,1.57,0.495,8.03,-6.78,8.79,90.0,1920000000.0,-2.2831498152239162,2.513384294794959,5.821638088041967,-0.49373301077192033,1.196971064397562,0.6386018820901314,7.279957236720326,-3.3910165602631466,8.020772922236743
33,1.97,0.455,-2.01,6.4,-1.34,2.49,1.36,7.33,-5.61,10.0,90.0,1970000000.0,-1.2079237792018094,0.5770820244188941,6.0943077039193145,-1.1605218378394628,2.059251472053452,1.1618446195307848,7.302019521332118,-4.315950519165834,9.064087971297017
34,2.02,-0.611,0.11,7.41,-1.2,1.94,0.527,4.34,-4.93,12.6,90.0,2020000000.0,-0.9735217093303438,0.3771405804792816,6.714592692966225,-1.1916274209870767,1.9797264475114327,0.701380672509873,5.99615610201744,-4.571903319060824,10.927982554763016
35,2.07,-2.73,0.804,8.96,-1.41,2.55,-0.017,3.27,-4.26,12.6,90.0,2070000000.0,-1.6632616172049326,0.5598641453600468,7.773193276240834,-1.3636870306345832,2.3600239435938195,0.18032655092820682,4.794277548676742,-4.441893451718482,11.80935760288108
36,2.12,-3.69,1.75,9.18,-1.89,-0.524,0.0893,3.22,-4.29,13.3,90.0,2120000000.0,-2.459128197024311,1.0693195911212179,8.43643451154795,-1.7783783616215136,0.43675892956360785,0.1143033939627098,4.100226913155119,-4.378580028128351,12.595123855854721
37,2.17,-3.88,1.86,10.5,-1.26,-0.058,-0.6579999999999999,1.22,-7.78,9.54,90.0,2170000000.0,-3.0170810393590597,1.407782167370251,9.40930548499925,-1.3699388303053508,0.10681973397159233,-0.44586181849628814,2.830423289471039,-5.796386393374727,10.984668556830735
38,2.22,-6.09,-1.7,7.11,-1.22,0.0208,-0.49200000000000005,0.379,-7.29,15.3,90.0,2220000000.0,-4.223765422711601,0.07744952717100229,8.325294607671175,-1.25179938371998,0.049455874093988626,-0.47932666186538153,1.7496660121316132,-6.418965995863283,13.259420396031558
39,2.27,-7.26,-1.52,13.1,-2.24,1.86,-2.4,-4.33,-8.65,12.1,90.0,2270000000.0,-5.416044486948794,-0.606362617514772,10.576336641516894,-2.0304202192172145,1.2568509174680453,-1.8724248419084353,-0.9306720812110527,-7.348922749907594,12.648252348178723
40,2.32,-12.5,-4.02,9.2,-0.833,2.95,-2.95,-4.95,-7.83,11.5,90.0,2320000000.0,-8.197796357072452,-2.067621126670468,9.927460625086676,-1.0869515511862455,2.3859589144026643,-2.6540090674412036,-2.7026703016441047,-7.549449072077326,12.042971140967513
41,2.37,-13.2,-3.71,8.18,-1.53,1.03,-1.18,-3.18,-7.01,13.2,90.0,2370000000.0,-10.162078710658632,-2.7706659741917945,9.103617896560285,-1.4360372753725443,1.4817124669111477,-1.5848843602044929,-2.9131103432551515,-7.324591817532079,12.65287863232686
42,2.42,-11.3,-2.7,9.87,-2.28,1.16,0.085,1.4,-6.95,12.8,90.0,2420000000.0,-10.60892160788238,-2.7404163678557256,9.464929808319429,-2.1010104825674962,1.2671725009338353,-0.3736878997593174,-1.0115923960655147,-7.168451468700204,12.730431196988484
43,2.47,-6.66,-2.19,8.92,-0.924,1.58,0.26899999999999996,-1.5,-6.83,6.76,90.0,2470000000.0,-9.058245510055116,-2.504802437063143,9.208021887623454,-1.173623024922513,1.4757873671669886,0.092464918953989,-1.226916316774235,-7.027375468326981,9.583222598043552
44,2.52,-9.0,-2.23,2.44,-0.512,2.49,-0.667,1.07,-6.62,6.71,90.0,2520000000.0,-9.03537346403173,-2.3871691535960875,6.017228077913543,-0.6523185043060138,2.1521339362054834,-0.45838832448037403,-0.21427639434544066,-6.857570015473754,8.068653416104464
45,2.57,-6.12,-1.73,2.19,-1.63,0.45799999999999996,0.773,4.72,-6.74,8.27,90.0,2570000000.0,-7.890554599897968,-2.105858080525375,4.212875819190309,-1.4226511264752264,1.0223692059370566,0.4347592593278482,1.9610945158435635,-6.808563473527326,8.174789998918508
46,2.62,-2.06,-0.898,4.26,-1.91,0.0177,1.67,0.44,-6.84,7.42,90.0,2620000000.0,-5.600992463120592,-1.5888163718334396,4.235092691194843,-1.8066419388465418,0.35238685485350274,1.330701035761173,1.2904906333592205,-6.821667154135307,7.776915649885657
47,2.67,-6.08,-0.5579999999999999,3.64,-0.41,0.301,-0.0421,-1.62,-8.6,8.03,90.0,2670000000.0,-5.789090750416706,-1.1475600246439996,3.954535419347589,-0.7062029311289144,0.3181185740542685,0.33498432895879726,0.007344649678500792,-7.5629258150980805,7.9103245121265475
48,2.72,-8.06,-2.11,4.48,-0.204,-0.418,0.78,-5.71,-8.25,5.68,90.0,2720000000.0,-6.68083932330661,-1.5595468001938322,4.202266474896985,-0.310508313478,-0.17277580027561024,0.6577619915991846,-2.513257127010652,-7.849317410584313,6.734647737576642
49,2.77,-11.9,-1.52,2.12,0.0761,-0.069,0.92,-3.46,-11.9,9.19,90.0,2770000000.0,-8.730317031765594,-1.5426181929598595,3.220578840028713,-0.005892753032609943,-0.10357097605775871,0.8479678376940175,-2.930647015879797,-9.537754213819676,8.028943655977816
50,2.82,-10.1,-5.24,6.25,0.425,-0.183,1.52,-1.72,-15.5,5.43,90.0,2820000000.0,-9.26816897232297,-3.1253376553691607,4.648803885169419,0.3336153143505092,-0.15653969726311992,1.335404556158226,-2.396909920484265,-12.022983787142977,6.65895572609228
51,2.87,-7.02,-8.15,1.68,0.5489999999999999,-0.0941,0.87,-9.09,-11.4,6.81,90.0,2870000000.0,-8.385350286540817,-5.276219330147258,3.249156918333164,0.5033207555522132,-0.1149006224936889,0.9978384596965351,-5.347687956747417,-11.763306689775208,6.738576051679898
52,2.92,-14.8,-4.35,3.52,0.546,-0.527,0.7290000000000001,-5.41,-11.7,6.49,90.0,2920000000.0,-10.904276941896756,-4.879737257568246,3.37684627708251,0.5369484937587776,-0.3897167657836176,0.8028451823780471,-5.375159356653169,-11.736918624391667,6.607543398952363
53,2.97,-10.4,-4.22,2.56,0.174,0.27699999999999997,0.20199999999999999,-8.29,-11.0,1.5,90.0,2970000000.0,-10.706255598488932,-4.597326771221399,2.991742875779954,0.250974921218545,0.05489571979654606,0.3670416221996029,-6.660223107292079,-11.429750482696493,3.9151909388811483
54,3.02,-13.1,-3.31,-2.17,-1.52,0.0452,0.8740000000000001,-2.06,-11.6,3.3,90.0,3020000000.0,-11.64623948381792,-4.046267276066059,0.5582315970773459,-1.1444076781530372,0.04842994963634109,0.734747448233326,-4.632125919741357,-11.500715367147793,3.5909037352851327
55,3.07,-6.83,-3.78,-0.129,-0.534,2.11,-1.75,-0.828,-7.49,5.12,90.0,3070000000.0,-9.75498206716397,-3.932287575457407,0.23423525677894846,-0.6634566041446983,1.4232262213397475,-1.0674835232697084,-2.955003574882374,-9.828937757350953,4.396940113305909
56,3.12,-5.9,-0.113,1.36,0.0571,1.23,-0.7759999999999999,4.11,-5.23,6.22,90.0,3120000000.0,-8.241194566722832,-2.297384427500847,0.7649787013949039,-0.09571724856625097,1.2943697335663693,-0.8560654202173409,0.15973969704609647,-7.911972827872272,5.357934239548034
57,3.17,-0.9890000000000001,2.24,2.44,0.0834,-0.585,-0.8909999999999999,-10.0,-11.5,4.89,90.0,3170000000.0,-5.393378018613287,-0.35508918284568725,1.5546699741521965,0.0454124177176187,0.04107707713725506,-0.8814040648837788,-4.319377678123681,-9.407562167501302,5.111270792552174
58,3.22,-15.5,-4.34,1.07,0.32899999999999996,-0.6940000000000001,-0.00725,4.11,-4.49,7.74,90.0,3220000000.0,-9.362080891684554,-2.060889900044282,1.3261716293380204,0.2688561107436631,-0.4491227509866187,-0.24736476600254453,-0.6031237440828114,-7.357785634557756,6.496959445487425
59,3.27,-1.38,2.46,3.54,1.06,0.511,-0.905,-9.85,-17.4,5.47,90.0,3270000000.0,-6.227650075415571,-0.12565537222208345,2.369884240815913,0.8922123963047299,0.19115295274595068,-0.7243591325496603,-4.679787816944176,-11.54365922475035,5.955615566765495
60,3.32,-15.7,-11.1,0.74,0.594,1.02,-1.48,-3.71,-8.16,7.16,90.0,3320000000.0,-9.947284753817438,-4.823387825896075,1.6014729315693372,0.6572455351139953,0.7438850134091238,-1.2724387412018503,-4.252238153294742,-10.133256055846275,6.5904857435974975
61,3.37,-9.71,-2.08,2.35,-0.524,-0.21,-0.647,-2.02,-10.9,7.87,90.0,3370000000.0,-9.854106980417818,-3.6490396192126955,1.9543670699011635,-0.27347880659376556,0.10776905045426743,-0.8187970464160116,-3.26811286253766,-10.452856059850522,7.2649593170404145
62,3.42,-8.46,-5.1,3.26,0.192,-0.484,-1.22,-2.26,-7.59,5.3,90.0,3420000000.0,-9.30666430002979,-4.270144862037234,2.5699096235567476,0.0932802189798137,-0.2868631483999499,-1.1097966169695104,-2.8236668416663164,-9.259538236324417,6.22916536984982
63,3.47,-9.21,-2.33,0.804,0.368,-0.858,-1.27,-5.0,-11.5,6.31,90.0,3470000000.0,-9.26870584718925,-3.4396368149556573,1.7373689532329968,0.3097368173610119,-0.6677363703169746,-1.2259949309943698,-3.7831453277622478,-10.193424901294293,6.2717759057349936
64,3.52,-12.5,-6.59,2.23,0.355,-2.04,-0.526,0.9390000000000001,-10.6,7.03,90.0,3520000000.0,-10.537581482551525,-4.788196941285626,1.9696205911183067,0.3454004749313649,-1.5828558760088414,-0.718276327970806,-1.701296396259203,-10.362896849173758,6.6714606290750655
65,3.57,-6.95,-5.79,3.69,0.841,-2.68,-0.0836,-0.736,-4.18,11.8,90.0,3570000000.0,-9.128797645541335,-5.217033701743073,2.780696011432654,0.7358921647406828,-2.3145068909472237,-0.2579344381829805,-1.2757268459366657,-7.785693715313005,9.37488085027955
66,3.62,-9.0,0.35200000000000004,9.05,0.588,-1.21,-0.311,-3.45,-11.8,5.18,90.0,3620000000.0,-9.07822094574529,-2.8331255664259407,5.736368653717089,0.619365299409075,-1.5779459478441216,-0.2964238147144603,-2.234297160404738,-9.458968103333998,7.1636224512916336
67,3.67,-11.9,-7.38,3.0,-0.174,-1.76,0.0526,1.58,-11.3,3.06,90.0,3670000000.0,-10.186286642323012,-4.779483194967325,4.44630364208505,-0.005741315830570803,-1.6993520731092704,-0.04327071087911677,-0.5526906048332625,-10.226361389878958,5.00046938669656
68,3.72,-7.0,-6.63,2.12,-2.19,-2.48,0.40299999999999997,2.42,-13.4,1.52,90.0,3720000000.0,-8.93508471005475,-5.571624628588965,3.3495643271372453,-1.7267575970715086,-2.21994167909779,0.2804172728782053,0.7578774685508864,-11.54922191319974,3.1658006164322385
69,3.77,-5.99,-8.34,1.92,-1.77,-1.44,0.998,4.98,-11.9,-0.669,90.0,3770000000.0,-7.77859868731416,-6.756669160366272,2.67559411001192,-1.7608290398195314,-1.6998230984671063,0.8008926486593684,2.619281701342434,-11.695435799411971,1.144352310139209
70,3.82,-3.07,-6.44,0.625,-2.34,-0.6459999999999999,1.45,4.99,-10.1,0.5529999999999999,90.0,3820000000.0,-5.92961003038818,-6.6211142163882615,1.7088385119342997,-2.2171680648117174,-0.9970615783080254,1.271701647451267,3.6644585281708597,-11.03041402319002,0.8326312351519201
71,3.87,-2.59,-4.56,2.94,-1.86,-2.22,0.218,1.62,-13.4,0.765,90.0,3870000000.0,-4.618200512194531,-5.738823436783349,2.289271426586712,-1.9357490101855206,-1.812600835514011,0.5074333293315582,2.763119520671632,-12.018123086058631,0.7969806010543837
72,3.92,-5.79,-8.01,4.21,-1.49,-0.831,0.17600000000000002,-0.314,-11.5,2.36,90.0,3920000000.0,-5.078346726338865,-6.711034617977451,3.194801745116176,-1.5845354506713782,-1.1580020368740853,0.2670389128876901,1.40651197279228,-11.802154999154356,1.6208989729108843
73,3.97,-7.49,-6.27,6.51,-0.902,-1.81,0.273,-2.22,-10.2,1.59,90.0,3970000000.0,-6.025362889137252,-6.522243147878539,4.757756928333912,-1.0467536468780367,-1.5927989702361822,0.2713625954666797,-0.19230585139532796,-11.134332235424086,1.6046111356150918
74,4.02,-8.82,-4.81,6.46,-0.0058,-0.934,0.672,-0.77,-9.23,-3.37,90.0,4020000000.0,-7.12277042454789,-5.789291844962669,5.560281936898999,-0.2265677684956945,-1.1534666307733297,0.561951936036432,-0.4469934605541568,-10.34055349897441,-1.017668338995513
75,4.07,-6.96,-3.63,1.78,-0.545,-0.991,1.06,0.34,-24.1,-3.13,90.0,4070000000.0,-7.058853192722069,-4.864974737119408,3.7780624646862986,-0.477466196062307,-1.0451227332770539,0.9231949040837406,-0.10003219929698332,-16.075872962692042,-2.1311472089496193
76,4.12,-6.13,-19.5,3.19,-2.26,2.37,-0.316,6.56,-10.9,-4.94,90.0,4120000000.0,-6.6941079902969065,-11.12971610253473,3.500819580947937,-1.8819562520682807,1.2323153202445534,0.02438506179286337,2.836171539804464,-13.918425255235597,-3.6117850195987082
77,4.17,0.10300000000000001,-5.89,0.467,-0.11699999999999999,-0.139,0.00313,0.812,-13.0,-6.1,90.0,4170000000.0,-4.024996386061481,-8.886777231067807,2.0705208973892932,-0.4913158530231416,0.3178281878590836,0.008968392167543054,1.9437764303556404,-13.535600110641756,-4.923404117789989
78,4.22,-5.92,-8.46,-0.634,-1.38,0.516,-1.57,-0.746,-14.0,-4.2,90.0,4220000000.0,-4.769132913949539,-8.70408887308538,0.7954705555736208,-1.1915258824669195,0.44998272946050466,-1.1362851570182149,0.7579365695448181,-13.72917487764588,-4.5420741480666775
79,4.27,-8.13,-10.3,1.08,-0.575,1.63,-1.64,5.92,-6.76,-6.13,90.0,4270000000.0,-6.088889736670932,-9.387242572353085,0.9296123993264869,-0.7057541733089882,1.2368991962535887,-1.5016383705578444,3.0337319180744986,-10.824229399063157,-5.3791216380313385
80,4.32,-1.82,-3.89,-0.845,-1.13,-0.397,-1.59,6.87,-7.79,-4.63,90.0,4320000000.0,-4.412567540611212,-7.034065747377353,0.09296876968299528,-1.0400249961478192,0.14730311021337128,-1.5657286367707355,4.725024709164743,-9.55947833041698,-4.984235286728937
81,4.37,-1.09,-6.09,0.836,-2.28,-0.157,-1.73,4.66,-8.75,-7.07,90.0,4370000000.0,-3.107850372381078,-6.629944355230275,0.4432719439584226,-2.017023316120117,-0.055627083604012806,-1.6848775559609455,4.696357243582046,-9.222065288777605,-6.083709883504729
82,4.42,-3.42,-8.4,-1.51,-1.45,0.213,-2.35,8.37,-8.12,-3.49,90.0,4420000000.0,-3.2304263853188218,-7.387642973981001,-0.47760097182259664,-1.5702556057157442,0.12351188433407992,-2.1673024790520734,6.315953520505173,-8.762693832108793,-4.716480941050502
83,4.47,0.256,-9.31,1.88,-1.74,0.677,-3.06,3.66,-7.02,-6.23,90.0,4470000000.0,-1.8613645478516783,-8.210536818881524,0.6338934588912581,-1.7040002382035535,0.4926157221711167,-2.814791630698351,5.1450251767060555,-8.036290652581117,-5.514306136998075
84,4.52,-4.41,-9.87,-1.44,-1.03,1.15,-2.91,6.3,-10.7,-2.77,90.0,4520000000.0,-2.8621713707846657,-8.920894794454133,-0.3438466783347417,-1.1729434495700113,0.9310046419593585,-2.8838479956462075,5.654218207973136,-9.146598581561047,-4.067692989862923
85,4.57,-1.59,-14.5,1.6,-0.986,0.7090000000000001,-1.43,2.98,-10.3,-1.99,90.0,4570000000.0,-2.3626107805992578,-11.309114188365015,0.5725826978927285,-1.0256473844002434,0.7829567105570014,-1.8293464679336262,4.4752374946800515,-9.627368394117505,-2.972473356878252
86,4.62,-4.87,-14.7,1.92,0.201,1.2,-0.975,7.13,-14.4,0.7979999999999999,90.0,4620000000.0,-3.3472209068203114,-12.760633473987607,1.2078245392255447,-0.05915010616667915,1.0610698186197818,-1.2096739845066165,5.645640844736294,-11.616733590864206,-0.9849340711521783
87,4.67,-0.8140000000000001,-18.6,4.8,2.16,-0.28800000000000003,0.784,11.1,-10.6,-14.2,90.0,4670000000.0,-2.3524670644480272,-15.260261780467221,2.901361014054573,1.6893577691028008,0.16141752016318578,0.2363727626424501,8.050300540742958,-11.192930961656284,-7.95102558929947
88,4.72,3.26,-13.5,-9.11,2.99,-1.75,1.19,7.36,-15.7,-4.28,90.0,4720000000.0,-0.14854431292269155,-14.506755408460995,-2.7614125754452257,2.714156905505546,-1.1132468132864515,0.9280553909035689,7.745968280241918,-13.071602386951147,-6.015908559557915
89,4.77,-0.345,-17.5,1.49,2.22,-0.9,1.41,7.78,-12.3,-6.48,90.0,4770000000.0,-0.22568920331631281,-15.788058506514492,-0.7570778822937503,2.3248019199863608,-0.971039192690197,1.2776182575539106,7.760971913364121,-12.749977169600552,-6.260546281673224
90,4.82,0.292,-12.9,-0.175,1.84,-1.16,1.66,8.45,-6.65,-7.4,90.0,4820000000.0,-0.022401238721272254,-14.551781721451471,-0.4826564103123769,1.9428178975727146,-1.0970512002240507,1.554966428092399,8.064743162681092,-10.207337371587403,-6.861189494820739
91,4.87,1.37,-6.14,-0.627,1.47,-1.52,1.36,8.69,-4.22,-7.57,90.0,4870000000.0,0.5243716420377582,-10.950992737689763,-0.5507073950502234,1.5702762956431329,-1.3791024632005535,1.4135538633747453,8.34039952475114,-7.711648841395586,-7.2348266860207335
92,4.92,2.21,-3.0,-0.311,0.893,-1.56,0.77,7.6,-5.27,-8.42,90.0,4920000000.0,1.186289963598575,-7.547451424627646,-0.4376969874441419,1.0366382709329,-1.49973731288561,0.9467729277090801,8.013980059102192,-6.693901808931106,-7.85957017690669
93,4.97,1.72,-3.64,-0.747,0.451,-1.36,0.406,7.4,-6.58,-8.01,90.0,4970000000.0,1.395869056622907,-5.8748084686837405,-0.5835183360705507,0.5752034731784902,-1.4065508956459305,0.5545408155017795,7.743295139451145,-6.646424340914827,-7.938866756273397
94,5.02,1.93,-4.93,-0.0383,-0.691,-0.49,0.22399999999999998,3.71,-12.0,2.85,90.0,5020000000.0,1.605613401005651,-5.470369004777626,-0.32647435263643493,-0.4224607344312452,-0.7953318856751004,0.314793760723292,5.965139132886216,-8.87794330677516,-2.251703784378029
95,5.07,-1.82,-10.9,10.9,-1.06,0.00122,-0.348,-0.716,-17.1,-0.929,90.0,5070000000.0,0.2604317983091655,-7.794603564944447,4.966263252191181,-0.9247892071096674,-0.26413644162820815,-0.16594218936169847,3.0196299603846843,-12.305124964221342,-1.5544635544416625
96,5.12,-5.95,-15.9,7.27,1.09,-0.9259999999999999,0.36,7.53,-6.04,-5.88,90.0,5120000000.0,-2.178301718130411,-11.264239525789971,6.052363308817678,0.6626990425392466,-0.7055124682427095,0.2155329297063701,5.00811375574375,-9.693646924764678,-3.834594742525297
97,5.17,2.84,-4.22,2.54,0.695,-0.7979999999999999,0.664,8.43,-14.6,-0.516,90.0,5170000000.0,-0.2076978761419055,-8.248847391726859,4.39645446192209,0.6881495353433118,-0.7671894848113383,0.5408139552731444,6.516718499217349,-11.738751260456954,-2.0852553646107723
98,5.22,3.32,-12.9,7.68,-0.518,1.59,-0.467,5.02,-12.8,-10.3,90.0,5220000000.0,1.1775705604550786,-10.239842639682017,5.944486736581536,-0.2621971246431234,0.8047461986920406,-0.19017121537169446,5.856861246874161,-12.181109278017656,-6.41551488741953
99,5.27,-0.601,-11.2,-2.48,-0.317,1.29,0.298,7.17,-7.15,-11.2,90.0,5270000000.0,0.47915538773331057,-10.650852270997373,1.972750110500562,-0.3053772854148471,1.1283466983467263,0.1639079481039758,6.435783849445794,-10.084003292162112,-8.937572703344667
100,5.32,1.05,-6.04,-3.59,-1.58,1.32,-0.812,3.17,-16.0,-9.54,90.0,5320000000.0,0.7033165830080463,-8.67710800530201,-0.6498165402076852,-1.3096752087930608,1.2561543030626448,-0.5439352125964508,4.996000028397215,-12.549954965620568,-9.255131730212971
101,5.37,-3.65,-16.0,-2.49,-2.2,1.85,-1.08,7.44,-6.93,-4.56,90.0,5370000000.0,-1.0061586937636362,-11.811781404876552,-1.5173737334025015,-2.0111779723113705,1.6521713699064868,-0.9327524505902525,6.07348462155076,-10.207401637762695,-6.780174861349593
102,5.42,0.14400000000000002,-7.98,1.91,-2.46,1.19,-0.7490000000000001,6.17,-5.71,-6.84,90.0,5420000000.0,-0.5545104480656402,-10.171530095454212,0.098466619900206,-2.3648128545010834,1.3439638317783522,-0.7994735797030782,6.1160353229666935,-8.332759789822871,-6.811710720657797
103,5.47,-1.21,-7.81,-0.737,-1.97,0.184,-0.917,7.64,-4.83,-4.79,90.0,5470000000.0,-0.8119103413450316,-9.160641807433272,-0.295415336937745,-2.053732812322318,0.5704203707571548,-0.884717553711486,6.787904511505336,-6.8727122306127395,-5.7460011397784765
104,5.52,0.242,-7.68,0.9890000000000001,-1.47,0.445,-0.698,6.54,-6.9,-5.94,90.0,5520000000.0,-0.39805722581795006,-8.526830871873678,0.31012416639204576,-1.5937993778687864,0.48678145841965764,-0.749288042136927,6.678611005092555,-6.884086570234631,-5.8482642870154065
105,5.57,-0.84,-10.4,-0.539,-1.14,0.40700000000000003,-1.0,5.85,-5.93,-3.54,90.0,5570000000.0,-0.5716008150385847,-9.32866875877822,-0.09019665423370282,-1.2362427717995066,0.4335777121112267,-0.9311338292040416,6.313301805447611,-6.486396727931991,-4.631502989280711
106,5.62,-1.49,-10.1,1.46,-0.8290000000000001,0.659,-0.703,4.84,-8.91,-4.09,90.0,5620000000.0,-0.9322409506391718,-9.658848791701326,0.6406458480261505,-0.9153689513272047,0.583904744886457,-0.7656643620340906,5.663768330282988,-7.496621794548932,-4.34605920924264
107,5.67,-2.51,-13.4,0.611,-0.251,0.418,-0.39899999999999997,3.69,-8.75,-3.44,90.0,5670000000.0,-1.5518007645805711,-11.260304335378324,0.6266692702060193,-0.3919008371902656,0.47326808768354534,-0.4997162514365291,4.79359448429325,-8.019064628080866,-3.8684459230946806
108,5.72,-3.76,-13.3,1.06,0.345,0.629,0.11599999999999999,4.94,-7.83,-1.75,90.0,5720000000.0,-2.4189239861885796,-12.133426640833312,0.8309636507876339,0.18871642777987274,0.577120816063616,-0.0531264409630155,4.858140207419464,-7.9402572102999684,-2.751744086798645
109,5.77,-2.79,-11.8,2.79,1.77,0.177,1.08,12.2,-11.8,-5.73,90.0,5770000000.0,-2.5646393689801257,-11.990698463960715,1.7545541903843707,1.4346378420589323,0.31029280671485526,0.7687501023967136,8.094940744567598,-9.549105242468917,-4.321679779880878
110,5.82,4.43,-14.7,-0.462,3.02,-1.37,1.19,8.11,-15.3,-7.03,90.0,5820000000.0,0.1820394649191277,-13.150455410356528,0.7095564633745866,2.6837728465126203,-0.8102417148932909,1.074290094345351,8.101579756677435,-11.9462379188228,-5.749323678838645
111,5.87,0.67,-17.0,-0.8859999999999999,2.14,-0.991,1.08,5.76,-13.2,-6.52,90.0,5870000000.0,0.37365348267127996,-14.798310524752376,-0.04267095882407068,2.255324639407055,-0.930783737929012,1.0784316203446425,7.069249218588894,-12.468840682911328,-6.155572255849359
112,5.92,-1.59,-13.8,0.177,2.18,-0.8959999999999999,1.66,6.67,-8.41,-7.75,90.0,5920000000.0,-0.3974406935249065,-14.370968860990184,0.060893237122161936,2.195975069939189,-0.9075875736155442,1.5002533577815773,6.893232526862542,-10.777003137204044,-6.996047044619688
113,5.97,-0.19899999999999998,-7.77,-0.785,1.69,-1.09,1.25,7.44,-5.09,-8.1,90.0,5970000000.0,-0.3195163239193024,-11.545325443780627,-0.3379043814437428,1.797308365171455,-1.0292327160211316,1.318740201409382,7.13428554775016,-8.406502405129984,-7.5779768002986465
114,6.02,1.14,-3.69,-0.711,0.9890000000000001,-1.68,0.746,7.64,-5.6,-8.89,90.0,6020000000.0,0.25361153046448603,-8.182735970648803,-0.5138008694559911,1.16042785656109,-1.4632089512782676,0.9033216666411563,7.357239467778113,-7.236674246081491,-8.269587137756936
115,6.07,2.03,-3.78,-1.06,0.488,-1.71,0.467,7.12,-6.15,-9.8,90.0,6070000000.0,0.9511698167222107,-6.29807900285261,-0.7713072229670138,0.6306100022313497,-1.627786178873185,0.5868499028940255,7.25264781814124,-6.783718290763401,-9.076317698079807
116,6.12,2.09,-4.22,-1.6,-0.418,-0.9520000000000001,0.35600000000000004,5.23,-9.78,-3.97,90.0,6120000000.0,1.398369512921613,-5.40852612745126,-1.1619956582945303,-0.1956084645016608,-1.1771256077515038,0.41941041769078174,6.360924489512323,-8.032651581543604,-6.384611359936609
117,6.17,0.314,-8.27,4.38,-1.41,0.19699999999999998,-0.225,-0.6779999999999999,-16.1,3.71,90.0,6170000000.0,0.9725555893677942,-6.633422995149174,1.450786369926236,-1.1524491113285136,-0.26076438397222,-0.047991773709051444,3.257678756450475,-11.395346534905304,-1.0634129464942603
118,6.22,-5.5,-15.1,12.2,-0.239,-0.701,-0.35100000000000003,2.13,-11.7,-3.79,90.0,6220000000.0,-1.5691096684152905,-10.257668025330442,6.518518797652591,-0.43272631676567996,-0.5543436781553936,-0.2677689708626487,2.7605198577336676,-11.522334477737813,-2.500685757510442
119,6.27,-2.49,-10.4,4.76,0.513,-0.527,0.75,9.11,-8.98,-7.24,90.0,6270000000.0,-1.930728035988867,-10.318595191734865,5.689462641496613,0.31242826478885977,-0.5361090443517457,0.47043674192623197,5.559810601275702,-10.46261869385547,-4.998932516647915
120,6.32,4.36,-7.47,1.21,-0.3,1.47,0.0807,4.45,-19.7,-7.1,90.0,6320000000.0,0.5395366089140221,-9.099211342043642,3.577613433004328,-0.1701148585771915,0.8017021127292222,0.1877538387496961,5.070529089162675,-14.313015997399233,-6.106473561130509
121,6.37,-0.965,-18.3,0.958,0.8490000000000001,0.9,-0.177,9.33,-5.49,-11.5,90.0,6370000000.0,-0.05126996021970598,-13.037746157321417,2.342592843292071,0.6328638322893103,0.8672538716962795,-0.07680852857270742,6.948399033958526,-10.635337881161663,-8.949576994990307
122,6.42,3.9,-4.13,-3.39,-1.24,0.737,-0.648,6.05,-16.2,-9.24,90.0,6420000000.0,1.500328274162611,-9.22465228798674,-0.3600465025981765,-0.8427988734389884,0.7803916464728895,-0.4911037377836333,6.552322560691646,-12.954843861848243,-9.10266829832195
123,6.47,-0.381,-15.9,-1.84,-1.83,2.43,-1.2,4.98,-8.35,-6.7,90.0,6470000000.0,0.7615618506368206,-12.082134512922755,-1.0577727633882255,-1.620632219523162,1.8804637109557432,-1.0052786838911427,5.859133815159059,-11.03541725510091,-7.83614349139137
124,6.52,-2.12,-9.14,0.0192,-2.32,1.34,-0.8059999999999999,6.19,-5.29,-6.29,90.0,6520000000.0,-0.3699796636727689,-10.822709995109037,-0.5500323754777809,-2.171676470407036,1.520045452744009,-0.8607383497671317,6.005002585212806,-8.640567817434523,-7.021120884587951
125,6.57,-1.07,-7.16,0.0263,-1.98,0.203,-1.01,6.83,-5.99,-5.96,90.0,6570000000.0,-0.6448660632307504,-9.254832156865593,-0.27831963249657277,-2.0206511879051945,0.641749186291909,-0.9690004397075714,6.368718588132479,-7.535737468092069,-6.46176952950515
126,6.62,-0.36200000000000004,-8.72,0.127,-1.7,0.128,-0.718,6.56,-6.5,-5.31,90.0,6620000000.0,-0.533789245939677,-9.025889370391424,-0.08723109589538253,-1.7680044558754144,0.29914598764611106,-0.7869454078867018,6.453048665938978,-7.1040133362443525,-5.854634271311953
127,6.67,-0.503,-9.84,0.5429999999999999,-1.26,0.326,-1.1,5.18,-5.56,-3.37,90.0,6670000000.0,-0.5216988278178915,-9.374381662112482,0.20989226970350394,-1.3677387092628601,0.31705408871686647,-1.0140094199848,5.89180051018226,-6.460425687452653,-4.544902570895781
128,6.72,-1.85,-9.72,2.05,-0.826,0.522,-0.818,4.83,-6.81,-4.78,90.0,6720000000.0,-1.0433006827871423,-9.52232887313426,1.077413733139874,-0.9408931328545999,0.4537260923399513,-0.8718403580390229,5.423685223996945,-6.606137942292021,-4.668830192658724
129,6.77,-2.22,-11.4,0.306,-0.39899999999999997,0.574,-0.406,5.54,-8.16,-2.37,90.0,6770000000.0,-1.5053710049095896,-10.326093907906554,0.713729595534303,-0.5139258942495197,0.5339329858821875,-0.5339581548857409,5.474964821590471,-7.253830724165561,-3.45704187307724
130,6.82,-1.62,-12.8,2.47,0.122,0.731,0.008020000000000001,2.72,-9.23,-2.14,90.0,6820000000.0,-1.550383912477981,-11.385086478524423,1.5417258648225673,-0.012868579341366648,0.6653507946273126,-0.14085187899904844,4.260385409107437,-8.077552751850565,-2.762786265717228
131,6.87,-4.72,-13.5,2.59,1.36,0.7559999999999999,0.871,10.0,-9.57,0.335,90.0,6870000000.0,-2.795039511903949,-12.29040683050695,2.035936201513513,1.0688389843726696,0.7258018919079215,0.5930620572413976,6.790805302475323,-8.699646072439798,-1.1298422368018648
132,6.92,2.38,-12.8,5.54,3.05,-0.9179999999999999,1.5,7.95,-17.1,-10.2,90.0,6920000000.0,-0.7628872585439677,-12.508545887052207,3.68793219613258,2.6298309204380885,-0.3703979696545673,1.2508800784785055,7.30185857858172,-12.2011469672175,-5.911017675950161
133,6.97,0.752,-19.1,-3.84,2.27,-2.09,0.723,7.26,-13.2,-6.6,90.0,6970000000.0,-0.16801616073858272,-15.330116529240657,0.13887757140222678,2.3463137282397017,-1.5171465179343033,0.8679993775056059,7.283404517057762,-12.617496562903177,-6.274202646384071
134,7.02,0.204,-14.1,0.153,2.3,-0.873,1.23,6.28,-10.1,-7.41,90.0,7020000000.0,-0.021931584355705275,-14.803546921277503,0.1455356097106268,2.3098222810958404,-1.0875854458798104,1.1305648017709453,6.841034357886484,-11.568134261313944,-6.872918339912407
135,7.07,-0.63,-9.86,-0.46,1.73,-0.348,1.33,7.38,-5.1,-7.68,90.0,7070000000.0,-0.260709966856961,-12.687387605927526,-0.13994504476512798,1.852970016179896,-0.5943791253241053,1.2752186854705416,7.078647816182701,-8.87203628683724,-7.298357276229221
136,7.12,0.831,-3.97,-0.469,1.11,-1.43,0.9690000000000001,7.25,-3.98,-8.29,90.0,7120000000.0,0.1679864237545467,-8.955779523740445,-0.29507849111096596,1.2675707475536575,-1.1516284165650958,1.0531128806908923,7.154191734304196,-6.832899752983364,-7.821084430089237
137,7.17,1.37,-2.33,-0.625,0.594,-1.6,0.5329999999999999,7.49,-5.57,-9.28,90.0,7170000000.0,0.6399972262982572,-6.119515506913574,-0.45062046993915783,0.7368523705017126,-1.4506333644104954,0.6758658664419422,7.302239189973992,-6.306488145646771,-8.590126197909644
138,7.22,2.13,-3.77,-1.26,-0.418,-0.922,0.374,6.36,-8.21,-5.47,90.0,7220000000.0,1.2250966545688393,-5.1137702594715115,-0.8322036309438992,-0.17307634634321578,-1.0981043645840447,0.45691726024654444,6.886834912384205,-7.0999247495820095,-6.945405957005617
139,7.27,1.14,-6.86,2.72,-1.62,0.113,-0.228,-0.598,-18.1,6.86,90.0,7270000000.0,1.1916806036993364,-5.861270064148122,0.8424879897034461,-1.313133211711575,-0.29045688891296995,-0.03986526001555374,3.5870009539184338,-11.68506166770864,0.3318731861765354
140,7.32,-5.73,-17.5,15.2,-0.37799999999999995,-0.762,-0.386,3.19,-11.3,-4.97,90.0,7320000000.0,-1.526348607709943,-10.843402418573412,7.611357976336821,-0.5763251279574534,-0.6049142013756996,-0.29092287252136456,3.411975444664994,-11.524557353656224,-2.462916722772237
141,7.37,-1.67,-10.2,3.48,0.95,-1.02,0.9540000000000001,11.6,-8.05,-5.74,90.0,7370000000.0,-1.5827581107104465,-10.56798431243778,5.663623213349702,0.6262935569948228,-0.8817218757504697,0.6120415525797882,7.021824304614491,-10.076265464128726,-4.190373920469584
142,7.42,6.56,-6.59,2.55,-0.26899999999999996,1.86,-0.18600000000000003,4.65,-14.8,-9.02,90.0,7420000000.0,1.6147679609212402,-8.86514871977319,4.19570096427465,-0.0791241429381857,0.946646373795353,0.033207992824067056,5.976159814846548,-12.045249243077683,-6.736227351999132
143,7.47,-1.16,-14.1,-0.907,-0.311,1.51,-0.21600000000000003,9.88,-7.47,-9.99,90.0,7470000000.0,0.525162604509809,-11.106005237460433,1.7900251147664563,-0.26182324337624474,1.3223292137355926,-0.14754694604530588,7.697243173004341,-10.138158248607278,-8.451396757886876
144,7.52,3.82,-6.75,-2.31,-1.48,1.06,-0.898,3.77,-13.3,-9.05,90.0,7520000000.0,1.8189905914403048,-9.2413520709026,-0.14293770673412265,-1.221646374527134,1.147390059008698,-0.6918637299885999,5.965842197911701,-11.456101752205033,-8.766940121721225
145,7.57,-2.97,-13.6,-1.93,-1.93,2.18,-1.12,5.11,-7.84,-5.7,90.0,7570000000.0,-0.06156661826925536,-11.107136644419143,-0.9854508189022957,-1.7797707436521126,1.8360052534157263,-1.002398490767065,5.588527702132084,-9.948810211768961,-7.150256003711298
146,7.62,-2.22,-9.19,0.6729999999999999,-2.22,1.35,-0.677,6.98,-6.0,-5.23,90.0,7620000000.0,-0.9091476292865374,-10.286477461910001,-0.20357176040076796,-2.1266352210765556,1.511903624403283,-0.7663812394043704,6.2019851348743895,-8.302836484809216,-6.138026538315755
147,7.67,-0.491,-8.3,0.6970000000000001,-1.76,0.184,-0.899,7.01,-5.15,-5.69,90.0,7670000000.0,-0.7449479873071807,-9.436136167060829,0.2210041283147996,-1.8377568069924695,0.6263663883079449,-0.8625719481028346,6.5582141874770326,-6.98864674559178,-5.901857189504859
148,7.72,-0.414,-8.18,-0.0503,-1.36,0.401,-0.758,7.24,-5.48,-5.01,90.0,7720000000.0,-0.6149902019557483,-8.898428431462156,0.09309740022258559,-1.4613237392849372,0.47607661492385467,-0.7867240889826929,6.85879252362428,-6.359800905467058,-5.431730340958148
149,7.77,-0.184,-9.13,0.261,-1.08,0.484,-0.852,7.24,-6.15,-4.64,90.0,7770000000.0,-0.44574749608447023,-8.997556152484645,0.17225533041430224,-1.1608720219863486,0.48136046992009174,-0.8340698525026952,7.026855097735991,-6.272350103124203,-5.014383424024118
150,7.82,-0.0838,-10.4,0.266,-0.97,0.546,-0.941,4.99,-7.4,-3.84,90.0,7820000000.0,-0.303616717015213,-9.597893045423028,0.21645139349906395,-1.0104805862060866,0.5244665456555638,-0.9116281557597077,6.128868106315966,-6.742385926802657,-4.3953276304946485
151,7.87,-2.3,-12.2,0.6729999999999999,-0.455,0.701,-0.674,4.56,-8.02,-2.71,90.0,7870000000.0,-1.0875633112662393,-10.711763748606225,0.4316918927129436,-0.57280757060085,0.6421911473890046,-0.7392722981740554,5.437202290046105,-7.274931133679484,-3.5069365714556056
152,7.92,-2.8,-13.0,1.46,0.0119,0.855,-0.145,3.02,-8.39,-1.15,90.0,7920000000.0,-1.7600087861048395,-11.691277486399931,0.9164892747464775,-0.11210608401760525,0.7841067025811066,-0.3082361582409758,4.371531988943217,-7.739722937890401,-2.264518535050354
153,7.97,-4.61,-13.0,2.89,1.34,0.535,0.863,9.73,-10.3,-3.2,90.0,7970000000.0,-2.87915313221015,-12.25149572446445,1.8469038475800428,1.0320341328773073,0.6179852810578425,0.5412819837331841,6.733915852893681,-8.80691757777329,-2.757641305657881
154,8.02,1.92,-13.9,1.5,3.0,-1.28,1.49,8.47,-14.8,-8.59,90.0,8020000000.0,-0.9946052893333934,-12.957162462354978,1.6833555202902886,2.5826294145010587,-0.6477214947709323,1.2294038331155333,7.499302181283076,-11.305000796620872,-5.832067593013757
155,8.07,1.03,-17.2,-2.67,2.43,-1.94,0.991,6.34,-13.1,-7.07,90.0,8070000000.0,-0.19957637365164305,-14.773372829675399,-0.36904035506696675,2.4623700388671925,-1.5095014957700603,1.056485342712438,6.988201502069028,-12.053206458103224,-6.484622170270577
156,8.12,-0.757,-14.3,-0.40700000000000003,2.6,-1.31,1.45,6.1,-8.72,-8.25,90.0,8120000000.0,-0.418467400437718,-14.570738594396813,-0.38693648776905,2.570811056077679,-1.3764601736192006,1.3419084707431623,6.596620681461204,-10.663833577964144,-7.415210316384443
157,8.17,-0.613,-8.68,-1.09,1.98,-1.05,1.27,7.33,-4.74,-7.96,90.0,8170000000.0,-0.4948571171696824,-12.049119999933579,-0.7183968266063554,2.1053005400597598,-1.1587541015573644,1.2897519799280823,6.919945077998925,-8.19461518405798,-7.702386720584888
158,8.22,1.11,-3.76,-0.44299999999999995,1.3,-1.43,0.988,7.45,-4.62,-9.13,90.0,8220000000.0,0.13534366804649045,-8.50083825299798,-0.5885605838571233,1.4707898950811713,-1.339639440230522,1.0708859506447754,7.153629938773037,-6.704616285710874,-8.454928232766123
159,8.27,1.81,-3.13,-1.24,0.373,-1.3,0.682,7.24,-5.18,-10.6,90.0,8270000000.0,0.7929534194728485,-6.201770690818318,-0.8956826557041849,0.6058217235037758,-1.3132051102594473,0.7888201259477061,7.191707746697588,-6.069113818399084,-9.585665619701885
160,8.32,2.12,-3.59,-2.38,-0.465,-1.03,0.435,5.52,-10.1,-2.65,90.0,8320000000.0,1.314062562800368,-5.083763162470847,-1.5954662967240756,-0.23789774603060643,-1.1243444946384242,0.5321881750906514,6.4547031065050335,-7.749299247264545,-5.9296504519202164
161,8.37,0.486,-9.08,5.71,-1.92,0.21899999999999997,-0.327,-3.89,-19.5,3.0,90.0,8370000000.0,0.9888961251475381,-6.794412054044805,1.8487065121811086,-1.563255972635802,-0.22851022887181138,-0.09099609517347174,1.8940409953813262,-12.647317555342273,-1.222540891826263
162,8.42,-8.66,-19.0,11.6,0.25,-1.11,-0.18600000000000003,4.88,-7.18,-5.24,90.0,8420000000.0,-2.8000653338630266,-12.019196454532384,6.4459682962696,-0.1345593664004714,-0.8163480915780602,-0.1599040993905654,3.2104587157698745,-10.368387737756043,-3.3402743014170873
163,8.47,0.244,-6.26,3.36,0.418,0.128,0.855,6.01,-13.0,-4.4,90.0,8470000000.0,-1.6047113501630574,-9.553886407006356,4.991083971400429,0.3008119884919211,-0.18659199394505266,0.5762236856293554,4.4446906358588,-11.465316790028279,-3.8988902789001876
164,8.52,0.919,-12.1,3.93,-0.484,1.83,-0.12300000000000001,5.94,-9.24,-12.9,90.0,8520000000.0,-0.6136917372823961,-10.643788559573132,4.490834409658571,-0.31755532294420746,1.158209922637281,0.06906446135136024,5.103926660618705,-10.537742875139726,-8.64366814586728
165,8.57,0.462,-8.26,-4.79,-0.0828,0.179,0.0996,9.62,-8.82,-10.1,90.0,8570000000.0,-0.19128542334712795,-9.62337232568023,0.11537144520195497,-0.13258743261146877,0.5052055718634998,0.09121242549692013,7.094924722827983,-9.821739827934016,-9.411348294803364
166,8.62,3.76,-8.53,-2.28,-1.6,1.46,-1.04,3.25,-14.2,-8.35,90.0,8620000000.0,1.3603188419548016,-9.155337840852322,-1.0139299192946536,-1.2887878922687634,1.1419280247594643,-0.7292757900275583,5.399815434029388,-11.646720141647794,-8.851877245366683
167,8.67,-3.44,-15.0,-1.22,-1.77,2.29,-1.13,4.91,-6.63,-6.88,90.0,8670000000.0,-0.5246867951315866,-11.65723285897429,-1.1110819743037954,-1.6679434490792913,1.9075411548110623,-1.0199280952198628,5.1838707769744135,-9.55561195526671,-7.812436592646021
168,8.72,-2.3,-8.38,-0.467,-2.17,1.3,-0.7929999999999999,5.85,-5.36,-6.33,90.0,8720000000.0,-1.2218228352937817,-10.254364386253204,-0.8074285872862639,-2.063522788270362,1.5023910011936137,-0.8553331490664592,5.477546662259921,-7.806764465320525,-7.030995946769383
169,8.77,-1.42,-8.03,-0.311,-1.76,0.153,-0.802,7.64,-5.05,-5.09,90.0,8770000000.0,-1.2996437050242355,-9.302191840946595,-0.573386597404785,-1.824371781635756,0.6025245059867502,-0.8166496691637222,6.430905902640353,-6.657668579712861,-6.007833852341693
170,8.82,0.414,-8.5,0.5770000000000001,-1.53,0.40299999999999997,-0.894,6.88,-5.69,-4.94,90.0,8820000000.0,-0.6267242343985948,-8.958801630222242,-0.031035139956491542,-1.5924310007329692,0.46946787529540857,-0.8727532183660541,6.628897755497462,-6.2543174741870935,-5.444943883392718
171,8.87,-0.285,-9.81,0.34700000000000003,-0.9420000000000001,0.5539999999999999,-1.06,4.68,-5.97,-4.23,90.0,8870000000.0,-0.4925347923133287,-9.32316999791041,0.14719008209234208,-1.0799448335534327,0.5258397086509844,-1.0085665567761277,5.769688481611484,-6.135805969994822,-4.804507406118877
172,8.92,-2.43,-10.7,0.606,-0.8340000000000001,0.713,-0.71,4.76,-7.2,-3.11,90.0,8920000000.0,-1.2533452802609728,-9.912542583020194,0.3634966931461445,-0.8861605214738056,0.6506510305606309,-0.7920109729355161,5.32454792376618,-6.579391507382975,-3.9112773129888128
173,8.97,-2.36,-12.2,1.4,-0.316,0.546,-0.42700000000000005,3.4,-7.89,-3.13,90.0,8970000000.0,-1.6879101979437887,-10.89172284745209,0.852157684799854,-0.43692092510474534,0.5808625464409828,-0.5272620924195836,4.476073860987543,-7.1256894578358425,-3.4994406582206072
174,9.02,-3.81,-12.9,1.18,0.415,0.6990000000000001,0.0874,4.96,-7.69,-2.01,90.0,9020000000.0,-2.521219654135516,-11.75139574414922,1.0067193999879842,0.23432270564793545,0.659644705819223,-0.08143688188610965,4.689422058190321,-7.3609097825968774,-2.714307976472049
175,9.07,-2.58,-12.1,2.41,1.92,0.141,1.23,11.3,-13.0,-8.37,90.0,9070000000.0,-2.5443016913537013,-11.900621170984426,1.668298135676809,1.56249777010667,0.31377683659467903,0.8697713391996252,7.603823042499644,-9.711439143095888,-5.695607367478429
176,9.12,3.64,-16.3,-3.15,2.9,-1.23,1.33,7.27,-14.5,-6.42,90.0,9120000000.0,-0.11582891855678756,-13.783840725278734,-0.6032956260171796,2.616339622426172,-0.7157194801269758,1.2035833024238554,7.456650701483928,-11.707444252918869,-6.077458355183624
177,9.17,-0.0814,-16.6,-0.287,2.64,-1.12,1.11,7.54,-13.0,-6.91,90.0,9170000000.0,-0.1023092529360492,-14.98933996923979,-0.45417758986091106,2.6349821370674307,-0.985321469243775,1.1357056996587922,7.493396831941909,-12.246217373487076,-6.51631808864619
178,9.22,0.517,-13.9,-0.12,2.34,-1.27,1.4,7.11,-6.97,-8.1,90.0,9220000000.0,0.14088322953365776,-14.523031545884004,-0.2966290741571937,2.4025604011877033,-1.1751646309359065,1.3274029810210415,7.324368996119634,-10.046943401305748,-7.351128600080953
179,9.27,0.414,-6.71,-0.948,1.79,-0.882,1.11,7.26,-4.24,-8.25,90.0,9270000000.0,0.24813165849518432,-11.178546599899065,-0.6037188581751726,1.919913144540694,-0.9796623621407683,1.1697167903417165,7.2959907824694445,-7.6264480782491235,-7.824952988015885
180,9.32,1.0,-3.12,-0.797,1.12,-1.17,0.732,7.07,-4.9,-8.94,90.0,9320000000.0,0.5433778893918175,-7.728965199140991,-0.6948415314487173,1.2896473655649277,-1.1065925283813938,0.8522331084919488,7.196358459036006,-6.489988864693933,-8.412730359945845
181,9.37,1.26,-3.46,-1.17,0.24,-1.15,0.544,7.48,-5.01,-9.44,90.0,9370000000.0,0.8247835060920832,-5.9015708386113985,-0.9188556675054242,0.46261154755480394,-1.13553959248614,0.6286662418951718,7.321407316365837,-5.87308851240923,-8.954237420535389
182,9.42,2.08,-3.62,-1.37,-0.9179999999999999,-0.688,0.24100000000000002,4.48,-11.1,0.231,90.0,9420000000.0,1.3176861804065405,-4.924910281422614,-1.1315483264087687,-0.6251968136267706,-0.8370895047641197,0.3474851044471724,6.068718057118704,-8.051810494024437,-4.11239964246018
183,9.47,-0.8759999999999999,-10.4,8.42,-1.69,-0.221,-0.469,-2.58,-18.2,0.127,90.0,9470000000.0,0.45626199617024166,-7.268604127754347,3.371543164753528,-1.4641742130610578,-0.42623875730169924,-0.24472589273341017,2.2557637752173125,-12.281857941997348,-1.8776740266472451
184,9.52,-7.56,-17.8,8.57,0.6940000000000001,-0.929,-0.0396,5.19,-6.14,-4.85,90.0,9520000000.0,-2.6915911487276025,-11.776725254414917,5.822363113602297,0.23628960924083153,-0.761514458751551,-0.09594447931816505,3.5493784844007648,-9.721760979910336,-3.444483794992741
185,9.57,0.424,-5.26,3.68,0.637,-0.19,0.8290000000000001,8.66,-12.2,0.37200000000000005,90.0,9570000000.0,-1.468150166550527,-8.98714367862892,4.812342915777734,0.5520164667526811,-0.38038940785308567,0.5749339964231835,5.802494570793554,-10.75475972725255,-1.4326908927280604
186,9.62,4.44,-9.67,6.17,-0.9990000000000001,1.85,-0.546,3.58,-12.4,-11.9,90.0,9620000000.0,0.851882462630617,-9.279450568726393,5.452412373595295,-0.6700569823905346,1.1069872789745165,-0.2380991243778311,4.822664901251354,-11.440541390680766,-6.950350205034439
187,9.67,-2.17,-11.7,-4.03,0.141,0.743,0.152,8.72,-5.25,-10.4,90.0,9670000000.0,-0.3347607042357341,-10.315602859675222,0.9819150657522266,-0.031010769699818086,0.8642555709514388,0.044846619505019,6.540880433760805,-8.860151871237953,-8.768772753673728
188,9.72,2.56,-4.97,-2.73,-1.41,1.55,-0.851,2.75,-16.7,-8.28,90.0,9720000000.0,0.8019638035000196,-8.027337546090564,-0.7680727403783405,-1.1175408655103773,1.3215569692951294,-0.6049266780998153,4.869597613100943,-12.12801854677879,-8.511124576866296
189,9.77,-4.19,-17.4,-1.39,-1.87,2.15,-1.09,6.46,-6.34,-5.97,90.0,9770000000.0,-1.1582976322988263,-12.03944567262721,-1.0612812515464858,-1.7104167941229,1.8740196803231894,-0.956758903526144,5.570757224267652,-9.71541178750632,-7.17161494643325
190,9.82,-0.946,-7.99,0.242,-1.94,1.26,-0.855,5.88,-4.94,-5.89,90.0,9820000000.0,-1.0749318643613157,-10.30601981305326,-0.44684739631262893,-1.8913095272978626,1.464549226880111,-0.8829513971268228,5.707092922211323,-7.7248875987166175,-6.496033900157814
191,9.87,-1.63,-7.52,-0.134,-1.71,0.45899999999999996,-0.875,6.94,-5.9,-5.41,90.0,9870000000.0,-1.2928979157078855,-9.113422371389774,-0.2993550344523928,-1.7484525585425934,0.7939800119118192,-0.8771841091157739,6.250643833461127,-6.96422382302598,-5.9235499826974625
192,9.92,-0.517,-9.2,0.0503,-1.46,0.0672,-0.728,8.17,-5.67,-4.57,90.0,9920000000.0,-0.9882156771358279,-9.150483138052413,-0.13450965684726662,-1.521175691311215,0.30931323831060226,-0.7689782434708803,7.096829085521533,-6.424755433894654,-5.210049797007524
193,9.97,0.826,-9.66,0.56,-1.2,0.331,-1.03,4.72,-5.83,-4.35,90.0,9970000000.0,-0.2758032721726137,-9.36858938304756,0.19291793972233634,-1.268115693726296,0.32377545896401605,-0.9583018878618366,6.048958006932784,-6.176844825069413,-4.7566894899772105
194,10.0,-2.51,-10.5,0.35700000000000004,-0.997,0.555,-0.924,4.81,-7.06,-3.45,90.0,10000000000.0,-1.153135277981924,-9.85290661284214,0.2702746643365648,-1.0544988038086016,0.4779718506392257,-0.9334221440302033,5.502739426759025,-6.544968397138914,-4.067890930726675
195,10.1,-2.36,-12.1,0.929,-0.419,0.507,-0.473,5.09,-7.16,-1.68,90.0,10100000000.0,-1.6270510019665672,-10.814808695785139,0.580831698564003,-0.5537780019414565,0.49732983147918125,-0.599469867884862,5.320775349973436,-6.8013305807117055,-2.8091558283951095
196,10.1,-2.16,-12.3,2.44,0.187,0.8340000000000001,-0.0372,3.6,-7.52,-1.75,90.0,10100000000.0,-1.8363312703121757,-11.450567119624251,1.4573393456524175,0.029894156052902576,0.7218445910659811,-0.1916456559238271,4.562138276010534,-7.100891939117325,-2.25084029831792
197,10.2,-3.97,-12.3,2.31,1.74,0.721,0.97,11.4,-9.72,-6.06,90.0,10200000000.0,-2.674187613097643,-11.814179645202564,1.8593274336451513,1.3773169502125135,0.7212813702944026,0.6509163646423486,7.576741451049236,-8.192609004413448,-4.2587723976660765
198,10.2,3.63,-13.4,-1.33,3.16,-1.32,1.29,8.62,-15.9,-5.71,90.0,10200000000.0,-0.198637622928719,-12.493013593662212,0.35571432122393887,2.781924674817648,-0.6399851225889223,1.11445492389978,8.036682071591326,-11.405263392421976,-5.023761748275122
199,10.3,1.0,-18.5,-0.12,2.18,-0.649,1.03,6.37,-11.9,-6.43,90.0,10300000000.0,0.27204749685210566,-15.064393932630262,0.13143810864219874,2.307657578652832,-0.6459968539901141,1.053198263300902,7.30189305524345,-11.611483186810291,-5.765035636438535
200,10.3,-1.11,-13.3,-0.268,1.83,-1.16,1.59,7.11,-9.02,-7.32,90.0,10300000000.0,-0.27065964489636557,-14.30911881275962,-0.056877576155573095,1.931302717260106,-0.9887693921937295,1.442550016646916,7.2172933562828,-10.531281238089681,-6.5847080826069675
201,10.4,-0.0215,-9.45,-0.603,1.5,-1.39,1.36,8.47,-4.54,-7.89,90.0,10400000000.0,-0.1728187839759723,-12.229100276824692,-0.3143477861883693,1.5914716411689227,-1.2563374779885534,1.382675049867567,7.769573380892986,-8.0339488663995,-7.272769890590275
202,10.4,1.92,-4.12,-0.608,1.12,-1.76,0.9590000000000001,7.31,-4.41,-8.18,90.0,10400000000.0,0.648996434379022,-8.757878618853459,-0.45279054348676284,1.21999075980029,-1.5922141946005928,1.0753760876587553,7.566961558818554,-6.523386303702251,-7.7510005873792105
203,10.5,1.33,-3.5,-0.426,0.447,-1.32,0.42,6.75,-4.99,-9.35,90.0,10500000000.0,0.9164152596549199,-6.507165067889581,-0.44016010205182216,0.6109376000300444,-1.4106831296202602,0.6000202893728614,7.206788284495995,-5.884228225558844,-8.593885452568218
204,10.5,1.21,-4.02,-1.31,-0.289,-0.7859999999999999,0.276,6.66,-7.69,-4.52,90.0,10500000000.0,1.0317011342069957,-5.442496867935449,-0.8502473696142845,-0.09813923239832767,-0.9941015718933763,0.3650026767059399,6.965726046474638,-6.636924058582307,-6.446407748536824
205,10.6,0.903,-7.64,4.24,-1.37,0.106,-0.39,-3.39,-17.5,3.25,90.0,10600000000.0,0.9811623316882038,-6.38317088033764,1.5495571040624143,-1.1002609386059368,-0.2604783731538578,-0.18261401677873468,2.4002042594718658,-11.164955702202908,-1.3351154468440996
206,10.6,-8.55,-17.4,11.6,0.0119,-1.31,-0.28300000000000003,4.51,-9.31,-4.59,90.0,10600000000.0,-2.761567153605112,-11.09908912934154,6.287853314977905,-0.22396956940901458,-0.9603713572224176,-0.2554257282646854,3.330348541356855,-10.391758841355465,-3.050871175234965
207,10.7,-0.376,-8.88,3.9,0.521,-0.636,0.7809999999999999,5.5,-11.0,-7.55,90.0,10700000000.0,-1.8247944826821325,-10.149174899917767,5.162096415465171,0.3630052158050838,-0.7440582680885941,0.49631207153680584,4.286881271156662,-10.645290642858777,-5.422508599900519
208,10.7,0.414,-10.3,0.8140000000000001,0.0345,1.07,-0.149,7.7,-9.09,-11.3,90.0,10700000000.0,-0.945657009253488,-10.213737920572688,3.1121799936989523,0.10417011735846687,0.46568027181625316,0.028255887587356865,5.7916204675753065,-9.99700238703262,-8.52072582638097
209,10.8,2.09,-8.36,-3.29,0.498,0.746,-0.0769,8.33,-9.54,-9.24,90.0,10800000000.0,0.24639513001072455,-9.420217542310413,0.0938628719872221,0.41447567788858874,0.652616692235215,-0.04801552332720406,6.910714053214606,-9.806511088473725,-8.89987854684058
210,10.8,2.3,-9.3,-1.51,-1.39,1.23,-0.853,4.53,-13.3,-8.42,90.0,10800000000.0,1.0528116926809368,-9.368756707653283,-0.6622806247937101,-1.0073027667997412,1.037655505412153,-0.6318848939668198,5.861130396616735,-11.262694335924882,-8.646918977084118
211,10.9,-2.07,-13.9,-1.2,-1.54,1.7,-0.92,5.65,-8.2,-6.58,90.0,10900000000.0,-0.1734646531336106,-11.30842298021622,-0.9157892346818748,-1.4270243539385976,1.479352285724446,-0.8408598535338547,5.768049527524632,-9.986078227720718,-7.557378631862198
212,10.9,-1.43,-9.78,0.0168,-2.12,1.38,-0.767,6.59,-5.4,-6.42,90.0,10900000000.0,-0.6668852284991154,-10.654158558468739,-0.4761186736700358,-1.9730320909439483,1.4130973624532026,-0.787288018517046,6.130422328013105,-8.074473539012072,-6.957829354856634
213,11.0,-0.685,-7.94,-0.359,-1.94,0.47,-0.772,7.72,-5.27,-5.76,90.0,11000000000.0,-0.6739985998407089,-9.492322433854016,-0.42090290210776776,-1.9470055645240743,0.7841753400651219,-0.7761993608575198,6.831218238374104,-6.905491099490305,-6.326414613530169
214,11.0,0.46399999999999997,-8.61,-0.079,-1.54,0.382,-0.866,6.48,-5.09,-5.2,90.0,11000000000.0,-0.227125424207072,-9.114630977874974,-0.259712279603377,-1.626318616828751,0.5159772319710124,-0.8413333394527372,6.6763769062676355,-6.148744069402985,-5.732644686886834
215,11.1,-0.735,-9.17,0.0455,-1.19,0.61,-1.1,5.67,-5.36,-3.48,90.0,11100000000.0,-0.426559354613702,-9.138332548251546,-0.11581950356603485,-1.2825354694092996,0.5786780735761197,-1.028948829402643,6.232696253069992,-5.819973699051395,-4.545202321874806
216,11.1,-1.42,-10.1,1.33,-1.14,0.337,-0.9470000000000001,5.04,-6.64,-3.58,90.0,11100000000.0,-0.8166670068553026,-9.549988841721138,0.5658142403067563,-1.170229228633554,0.4175105622858567,-0.9695099232843927,5.706873068560285,-6.161783371998816,-4.036412704598269
217,11.2,-1.96,-11.9,0.8740000000000001,-0.478,0.618,-0.58,3.89,-6.86,-2.29,90.0,11200000000.0,-1.2656349305118222,-10.55594608868186,0.7111088743950744,-0.6248095053680267,0.5512106543460815,-0.6869915216544823,4.905869548523804,-6.452819502768632,-3.11582167345905
218,11.2,-3.17,-12.3,1.87,-0.000916,0.7120000000000001,-0.14300000000000002,2.71,-9.01,-1.6,90.0,11200000000.0,-2.013447546770899,-11.302514521629217,1.2574697960327423,-0.13323272457286206,0.6584360290979295,-0.29242492003601506,3.937778084488159,-7.518723424341159,-2.316782717037621
219,11.3,-4.58,-14.1,2.52,1.25,0.503,0.882,10.4,-9.0,0.153,90.0,11300000000.0,-3.0212901089038953,-12.50002016787897,1.8526915017953378,0.9566409220906072,0.5547806353440135,0.5594061256183032,6.786773198382661,-8.13616062571102,-1.0148798163753092
220,11.3,2.83,-13.1,4.83,2.8,-0.6990000000000001,1.47,6.85,-14.2,-9.4,90.0,11300000000.0,-0.723585533986558,-12.756850668339132,3.2563479202120957,2.4090562623960334,-0.2813263073829809,1.2198758790335704,6.814647912399306,-10.66373714759403,-5.434949537555633
221,11.4,-0.402,-17.1,-4.47,2.28,-1.35,1.02,6.68,-12.6,-6.36,90.0,11400000000.0,-0.5973042309675873,-14.61600083551045,-0.38625002994177704,2.3073705171088177,-0.9939912568749708,1.0749023790983383,6.755285705213538,-11.470825419889042,-5.922573832286206
222,11.4,-0.551,-14.4,0.00718,2.24,-1.33,1.49,7.02,-10.1,-7.6,90.0,11400000000.0,-0.5791213268677098,-14.523538285245646,-0.2007668657093228,2.254288096876301,-1.2180649669740646,1.3759799820979992,6.871990103865229,-10.89942748570319,-6.806799742808214
223,11.5,0.0575,-10.8,-0.73,1.78,-0.86,1.25,7.63,-4.68,-7.71,90.0,11500000000.0,-0.3291306872859436,-12.929622134957429,-0.45027461139386626,1.8805880537018544,-0.9792826918244275,1.2846044881065102,7.206173450108769,-8.306997368338049,-7.2829060324955694
224,11.5,1.02,-4.49,-0.46399999999999997,1.24,-1.27,0.955,7.44,-3.47,-8.45,90.0,11500000000.0,0.20065055603594056,-9.316915605141617,-0.4567454596706682,1.3758573490990993,-1.1731529245844365,1.0455365509154344,7.309260423783447,-6.290802587733589,-7.898119170315185
225,11.6,1.25,-2.6,-0.735,0.495,-1.34,0.49,7.16,-5.01,-9.55,90.0,11600000000.0,0.612712683301186,-6.4416394179719765,-0.5879289772034882,0.6818141928019682,-1.2844180231176738,0.642596138848116,7.243456017274184,-5.756928605688336,-8.768879452055348
226,11.6,1.6,-4.19,-1.51,-0.281,-1.2,0.32,5.7,-7.65,-5.2,90.0,11600000000.0,1.000404051610683,-5.477791526361239,-1.0226407075950297,-0.07680421174741836,-1.2281223256823446,0.40861148740062064,6.562993552166244,-6.546013359871161,-6.887606766651404
227,11.7,0.39299999999999996,-7.21,3.03,-1.42,-0.0861,-0.132,-0.568,-17.5,5.71,90.0,11700000000.0,0.7618865545985171,-6.219289277296631,0.8879826791964542,-1.1351320109292975,-0.4665434896556323,0.01649647967723844,3.4191573755056703,-11.111939106665453,-0.24699796069084545
228,11.7,-5.72,-17.6,14.1,-0.198,-0.816,-0.203,2.76,-8.91,-6.02,90.0,11700000000.0,-1.7834427361246439,-11.090972813299038,7.116807785642827,-0.3967490438539033,-0.6995850547135253,-0.14270816849099982,3.1285551175390256,-10.194109691037852,-3.2901353316558573
229,11.8,-2.06,-8.49,2.51,0.905,-0.9059999999999999,0.82,8.74,-7.35,-7.69,90.0,11800000000.0,-1.8920421655523247,-9.977587416622692,4.944921499852423,0.6289221400911599,-0.837236713217651,0.555560971946792,5.602468819772714,-9.008605771133055,-5.609447316412406
230,11.8,3.9,-6.7,0.8140000000000001,-0.215,0.868,-0.152,4.69,-19.5,-7.61,90.0,11800000000.0,0.38239679181614283,-8.574567039564322,2.9973925102969794,-0.03601911518669321,0.2999320939227226,0.04235457345852034,5.200189350955637,-13.38171015797474,-6.664003857181449
231,11.9,-0.7090000000000001,-18.9,0.565,0.514,1.29,-0.2,9.89,-5.2,-10.1,90.0,11900000000.0,-0.04617662838845166,-12.994522825860171,1.8506374957987977,0.39735071954532414,0.9601772709354052,-0.13342945805501338,7.267783061873373,-9.971346136063984,-8.475229523293496
232,11.9,4.13,-4.89,-2.16,-1.19,0.875,-0.35,6.25,-13.9,-8.89,90.0,11900000000.0,1.5937387328711796,-9.52526060604501,-0.04018346919376037,-0.8533511680506602,0.9033752231689558,-0.2905118721022968,6.819073751149992,-11.608917978639731,-8.693868730138137
233,12.0,-0.0862,-14.5,-1.43,-1.58,1.96,-1.14,4.7,-8.46,-6.8,90.0,12000000000.0,0.9340546481723927,-11.654772178704688,-0.6954144845318421,-1.4258907306446795,1.6080051385499314,-0.9066605230763765,5.884839095991888,-10.296361557732025,-7.6955489464707565
234,12.0,-2.21,-9.95,-0.0023899999999999998,-1.91,1.47,-0.735,5.63,-5.8,-6.98,90.0,12000000000.0,-0.30056349522598,-10.925018878685927,-0.36868707576856896,-1.8073290013162615,1.5159738635311089,-0.7821521406604888,5.772488411410137,-8.422153307627564,-7.318359803961558
235,12.1,-1.55,-8.25,-0.7609999999999999,-1.94,0.6990000000000001,-0.836,6.09,-5.46,-5.78,90.0,12100000000.0,-0.7911964748809593,-9.779937054667803,-0.5536435682215965,-1.9118628841085812,0.9711596442394832,-0.8212089572663187,5.91246959194601,-7.18744558673945,-6.507440362994674
236,12.1,-1.09,-8.72,0.0455,-1.63,0.256,-0.713,7.55,-5.4,-4.85,90.0,12100000000.0,-0.9085316778080603,-9.326215266083718,-0.2711764554423135,-1.6897781046624576,0.49424213871317213,-0.7427230994068258,6.634406568297861,-6.442388681142304,-5.633749520463979
237,12.2,0.22699999999999998,-9.42,0.725,-1.27,0.341,-0.9790000000000001,5.89,-5.34,-3.86,90.0,12200000000.0,-0.46262721705843174,-9.366361256228458,0.1984724054995669,-1.3590274606253754,0.39204976138538206,-0.9140988658087702,6.306220503329132,-5.982882536862574,-4.698748328229394
238,12.2,-1.07,-10.0,1.24,-1.04,0.374,-0.98,4.02,-5.47,-4.71,90.0,12200000000.0,-0.7011324586012152,-9.637599793745958,0.689502120663168,-1.1076600245489097,0.38001295079234054,-0.9618981298973138,5.298296051451629,-5.769098768902474,-4.704679470955036
239,12.3,-2.85,-10.6,0.012,-0.498,0.473,-0.635,4.13,-7.46,-3.43,90.0,12300000000.0,-1.5449570740484235,-10.049569753736748,0.3700927531233728,-0.6272980530645917,0.44202308781549443,-0.7247931670433778,4.783230234132866,-6.47391336236265,-4.032754445237568
240,12.3,-2.7,-12.9,1.07,-0.204,0.282,-0.281,2.72,-9.3,-2.1,90.0,12300000000.0,-1.9985232978994314,-11.269738872848496,0.7000650750264579,-0.2937739911472074,0.33530871812425334,-0.40290217880219714,3.8736153681911265,-7.651904812988441,-3.013936583958302
241,12.4,-4.24,-14.6,2.3,0.7879999999999999,0.773,0.35700000000000004,5.57,-8.31,1.23,90.0,12400000000.0,-2.878713942762579,-12.695307100846442,1.4543567174473848,0.5585749521221723,0.6271912935505077,0.1482682151517256,4.621499356833744,-7.926217332518849,-0.7768193906119674
242,12.4,-1.77,-12.9,5.85,2.29,0.0641,1.34,9.46,-12.2,-12.3,90.0,12400000000.0,-2.4433403536586478,-12.7829287933062,3.5266891393611135,1.9227954883753255,0.2516833868488489,1.0126522369810604,6.7546457875185775,-9.707648521715976,-6.851063259282739
243,12.5,2.14,-15.6,-6.77,2.49,-1.57,1.29,5.78,-12.9,-5.11,90.0,12500000000.0,-0.6435385524571899,-13.98881840338198,-1.3277000350255848,2.3697060110229833,-0.9631401053594515,1.213817413746029,6.324954469440464,-11.03830908801186,-5.9332921854700045
244,12.5,-1.33,-15.2,1.24,2.4,-1.08,1.03,6.58,-11.2,-7.93,90.0,12500000000.0,-0.9131005974660462,-14.507282711995316,-0.11715408634422642,2.393575258467957,-1.0410703287880465,1.0804913938511433,6.4373961815043295,-11.105706269644665,-6.985821809677014
245,12.6,-0.215,-12.4,-0.955,1.94,-1.26,1.45,7.26,-6.45,-8.0,90.0,12600000000.0,-0.6389680695288595,-13.605228678801774,-0.5121577622369629,2.0361952964139376,-1.1870676466570185,1.3485025112984894,6.800057055834095,-9.165078560725588,-7.5204281619650315
246,12.6,0.843,-6.53,-0.5820000000000001,1.55,-1.15,1.25,7.23,-4.0,-8.11,90.0,12600000000.0,-0.05702378336140568,-10.576571354110358,-0.5450849956692053,1.653113344079316,-1.1623483809756265,1.2770569095496331,6.9896057110557885,-7.012130418700577,-7.831210497069983
247,12.7,1.32,-3.34,-0.311,0.879,-1.28,0.785,7.12,-5.19,-9.28,90.0,12700000000.0,0.4837106443777015,-7.478848758539073,-0.4347252764902918,1.0431756890340766,-1.2408065328407047,0.9201594085591203,7.047092500093153,-6.252615896287411,-8.594914485214929
248,12.7,1.71,-4.22,-1.15,-0.0015300000000000001,-1.18,0.546,6.75,-5.2,-8.31,90.0,12700000000.0,0.9652541560705338,-6.0838497360619,-0.7719425818024401,0.22003351000656957,-1.2002565301887629,0.6487750197798959,6.9161135361747395,-5.813856287469015,-8.44472700260252
249,12.8,1.69,-4.41,0.0455,-1.13,-0.469,-0.00298,2.7,-11.6,2.68,90.0,12800000000.0,1.2498498543599914,-5.367333266253212,-0.38655807917808616,-0.843681881722739,-0.7126045164817332,0.17604565506831937,5.057358514382361,-8.22568178638608,-2.5805210716347986
250,12.8,-2.25,-11.6,11.1,-1.46,-0.652,-0.7190000000000001,-0.266,-15.1,-2.47,90.0,12800000000.0,-0.12448315204881721,-8.035319606706942,5.028796739339643,-1.3292899104471951,-0.6721892738534888,-0.4731466678634022,2.710453146845485,-11.09108862830916,-2.5222618305801126
251,12.9,-4.85,-15.2,6.2,0.335,-0.275,0.32799999999999996,8.52,-7.28,-6.93,90.0,12900000000.0,-1.9801152264714033,-11.102268083303143,5.580962142920941,-0.017966305477515432,-0.4073162212255168,0.1079390899243804,5.271704229859965,-9.502521168349421,-4.845724073514483
252,12.9,3.92,-7.14,1.73,0.581,0.6459999999999999,0.52,3.67,-14.6,-3.05,90.0,12900000000.0,0.33676222245874254,-9.406159935015499,3.7654204064859487,0.45396986821298746,0.2951073153016115,0.40681409246727274,4.565562033499852,-11.627292025533976,-3.899139408896877
253,13.0,-1.55,-14.5,5.26,0.029,1.23,-0.541,7.52,-7.28,-10.6,90.0,13000000000.0,-0.404137998962661,-11.58665433052959,4.4700422538912745,0.11912855577666737,0.918557907613106,-0.28065212441314347,5.868083036870363,-9.81522010301278,-7.431381450697679
254,13.0,1.83,-7.26,-2.6,-0.677,0.6679999999999999,0.0801,8.15,-10.8,-10.4,90.0,13000000000.0,0.4731709655923265,-9.734565356471924,1.1368605179123414,-0.5081552713133107,0.7514686940790622,-0.018992271640872138,6.874110013385582,-10.22570378399413,-8.996236764274768
255,13.1,2.13,-11.6,-2.66,-1.56,1.49,-1.12,5.35,-10.5,-7.89,90.0,13100000000.0,1.1237803002774076,-10.533092708197046,-0.6531749775897937,-1.3369223814671258,1.2439720414739208,-0.8175725208801089,6.202176649603403,-10.340038062102645,-8.413103269257352
256,13.1,-1.23,-12.2,-0.826,-1.86,1.58,-0.825,6.79,-6.28,-6.68,90.0,13100000000.0,0.19948979716068083,-11.246637213982913,-0.7346535759706143,-1.7490645445765736,1.4680585657206893,-0.8229597933110797,6.461329904503492,-8.647701566562434,-7.499528004547409
257,13.2,-0.165,-8.89,-0.275,-1.78,0.95,-0.878,5.24,-4.71,-6.15,90.0,13200000000.0,0.05636069488677525,-10.237843568485529,-0.5179492268192883,-1.773439117150687,1.1225815652268132,-0.8628814372815926,5.922882937908947,-7.006358247234456,-6.788147894304833
258,13.2,-1.81,-8.12,-0.256,-1.5,0.7290000000000001,-0.664,6.03,-4.81,-5.05,90.0,13200000000.0,-0.6765281811921857,-9.331268917086438,-0.39445288571107073,-1.5579915771559367,0.8601143577964374,-0.7186292189213653,5.970107655082055,-6.090855128510714,-5.8719136344777665
259,13.3,-1.05,-8.86,0.4,-1.35,0.409,-0.728,7.79,-5.22,-4.05,90.0,13300000000.0,-0.8231843531357864,-9.129535064434855,-0.019906905752147874,-1.3941113358497503,0.5592803619414541,-0.7254260003240814,6.772442310817938,-5.7278584459698,-4.911523725053959
260,13.3,0.85,-9.93,1.02,-1.19,0.24100000000000002,-0.988,4.19,-5.09,-4.13,90.0,13300000000.0,-0.16615259155227668,-9.472186178127554,0.4703587198378045,-1.2332884319283999,0.3470291790475002,-0.9158755170489803,5.633922790300681,-5.461981400448365,-4.499557178461452
261,13.4,-2.61,-10.4,0.524,-0.7829999999999999,0.546,-0.8109999999999999,4.38,-7.28,-2.91,90.0,13400000000.0,-1.125810905950811,-9.869350592610783,0.49564797480493994,-0.878498167822408,0.47971657520893707,-0.8398074546716109,5.081106772170235,-6.219782113788967,-3.6616498687270096
262,13.4,-2.37,-12.9,1.43,-0.366,0.42,-0.28800000000000003,3.79,-7.18,-0.9009999999999999,90.0,13400000000.0,-1.6143832882076017,-11.166665218017616,0.9361495815411878,-0.4746917505882572,0.43989345731536583,-0.43957180570609616,4.511897410539324,-6.620027515707649,-2.2064214304598115
263,13.5,-3.08,-12.8,3.27,0.5870000000000001,0.904,0.155,2.13,-6.87,-3.46,90.0,13500000000.0,-2.1899066394159616,-11.865838672341207,2.036446772323784,0.36183405797765633,0.7493915290776136,-0.00831842986046566,3.4617920059760365,-6.724222939436815,-2.867223539158772
264,13.5,-5.11,-11.9,0.8,2.19,0.574,1.13,13.0,-12.3,-8.36,90.0,13500000000.0,-3.33657893615453,-11.880461776082283,1.4535221352597236,1.8022785391593659,0.6324284255534146,0.8173239196636961,7.666895131446611,-9.048361697907332,-5.762644710842723
265,13.6,5.67,-16.1,-3.17,3.13,-2.08,1.5,7.0,-14.2,-5.12,90.0,13600000000.0,0.20015530294908812,-13.686698360530418,-0.7262441866233262,2.8484139647456246,-1.1764048813336885,1.3124808726816624,7.372881538603565,-11.195707487489074,-5.423885694784368
266,13.6,-0.0359,-16.9,1.14,2.53,-0.491,1.05,5.7,-10.7,-7.42,90.0,13600000000.0,0.10746029935053726,-15.06220000463011,0.15359936318472334,2.597529920490104,-0.71932988267594,1.1220988503769613,6.635359333909443,-10.989082764888565,-6.476102591608619
267,13.7,-1.28,-12.2,-0.69,1.99,-0.632,1.43,6.48,-6.43,-7.51,90.0,13700000000.0,-0.4373723433366459,-13.836992419544368,-0.24411679166362987,2.118846306557867,-0.6610923451202456,1.3454249247736965,6.566866180814337,-9.08873042325753,-7.021103706576203
268,13.7,-0.268,-6.88,-0.41200000000000003,1.41,-1.12,1.38,7.49,-3.47,-8.32,90.0,13700000000.0,-0.37086263511138784,-10.85894785250143,-0.3232655764723694,1.5603336776225056,-0.9671234555028541,1.3705028307256633,6.973847444825945,-6.746687602132269,-7.705794082394347
269,13.8,1.34,-3.2,-0.682,0.6920000000000001,-1.92,0.858,7.19,-4.47,-9.44,90.0,13800000000.0,0.30096476680109185,-7.580420739186812,-0.4923914373615603,0.8761581187300411,-1.6025668779555762,0.9987755107488637,7.069142496740129,-5.797700914502881,-8.619950277276077
270,13.8,1.69,-3.94,-1.34,-0.133,-1.38,0.495,6.76,-5.55,-8.4,90.0,13800000000.0,0.8464158936006656,-6.022084239989056,-0.8919977520278123,0.08102450107423997,-1.4541440115631703,0.6333782868949092,6.932851160086488,-5.694452375928922,-8.50400712204219
271,13.9,1.64,-5.22,-0.0431,-1.07,-0.486,0.114,2.52,-10.5,0.5670000000000001,90.0,13900000000.0,1.1580432080602734,-5.678739999651669,-0.4917836626014038,-0.8258882007911,-0.8085191669956434,0.2566640920070932,4.987360529419968,-7.69753804191018,-3.7223838724740714
272,13.9,-2.53,-10.7,8.97,-1.22,-0.316,-0.327,-2.97,-14.1,-2.57,90.0,13900000000.0,-0.2901901966570162,-7.82816533173964,3.968988236191233,-1.1364159141309345,-0.4800736073264239,-0.16667772091545174,1.4792045137371552,-10.366262096400348,-3.114924769067868
273,14.0,-7.6,-14.5,6.07,0.516,-0.9420000000000001,0.349,5.02,-7.19,-4.93,90.0,14000000000.0,-3.1606312642140253,-10.684143909069117,4.959513391962723,0.16555193012484182,-0.7881177972264721,0.2073523935211642,3.0402325490933535,-9.042307896006488,-4.071709943334598
274,14.0,0.6559999999999999,-7.16,3.85,0.624,-0.395,0.722,4.1,-10.6,-5.06,90.0,14000000000.0,-1.6619034436278568,-9.175581355593902,4.436431632495066,0.5267713221159105,-0.5259598877131044,0.5806353449220227,3.5074514461693824,-9.691597370115336,-4.592669787124697
275,14.1,-0.505,-10.6,3.6,-0.414,1.36,-0.285,7.66,-9.44,-11.8,90.0,14100000000.0,-1.2076066421869673,-9.785325215464251,4.042094668698702,-0.21447912564556304,0.731727559461472,-0.047225173985090296,5.338182572149666,-9.586724426253454,-8.391888359929403
276,14.1,2.62,-9.34,-3.41,0.126,0.637,0.0941,8.86,-8.2,-9.76,90.0,14100000000.0,0.2954309752908162,-9.594697164446552,0.5287936764783163,0.053790430081872176,0.6685567403346355,0.055280456130393854,6.890843621139304,-9.00869910630054,-9.11306468058137
277,14.2,3.43,-8.67,-1.61,-1.58,1.44,-0.917,4.24,-12.6,-8.86,90.0,14200000000.0,1.5263242828721235,-9.198866751135157,-0.4795437432004894,-1.2335021195065292,1.183008068178745,-0.6499316347550749,5.7221679363731095,-10.50565318297607,-8.97966586505569
278,14.2,-1.9,-14.1,-1.35,-1.63,2.08,-1.02,4.4,-6.97,-7.48,90.0,14200000000.0,0.18086355861325232,-11.296870276230655,-0.8899216322635646,-1.5459098423965976,1.7811837747286452,-0.9183487068874072,5.139264719742364,-9.03189468862893,-8.189143158867203
279,14.3,-2.3,-9.4,-0.74,-2.15,1.54,-0.924,5.0,-5.27,-6.18,90.0,14300000000.0,-0.7933304066559219,-10.484886431947276,-0.8192408635359137,-2.0218832886744007,1.6203458621140872,-0.922447707037734,5.077867179594014,-7.463832533093416,-7.130058278708606
280,14.3,-1.9,-8.65,-0.0814,-1.87,0.574,-0.715,6.05,-4.45,-5.69,90.0,14300000000.0,-1.2279011967886482,-9.699435698901802,-0.47138470699207446,-1.902211749997492,0.9225706583166681,-0.7719822220557879,5.50645078419592,-6.207583380858111,-6.370956692598804
281,14.4,-0.457,-8.4,-0.0527,-1.41,0.21899999999999997,-0.778,6.73,-4.76,-5.03,90.0,14400000000.0,-0.9251810742459168,-9.143192657418021,-0.27399518916918086,-1.5143893382305307,0.4533814734000871,-0.7763470200324087,6.045876084522188,-5.604190533908612,-5.664094860346951
282,14.4,-0.0383,-9.51,0.239,-1.05,0.585,-0.867,5.46,-5.26,-3.98,90.0,14400000000.0,-0.5769175819144323,-9.3002101223571,-0.03214285898373859,-1.148488687886635,0.5411537221929352,-0.8420992070621998,5.7875813193740235,-5.4607224590287755,-4.776353624545433
283,14.5,-1.2,-10.6,0.879,-0.882,0.5379999999999999,-0.848,3.85,-5.97,-4.3,90.0,14500000000.0,-0.8215917348226023,-9.856604775346174,0.397416780882096,-0.9385175375510837,0.5390505956088543,-0.8463791485708254,4.933361148448013,-5.673003389708083,-4.525252216450434
284,14.5,-2.76,-11.7,0.16,-0.49,0.6759999999999999,-0.574,5.53,-6.5,-1.48,90.0,14500000000.0,-1.5827725158505466,-10.645697579380066,0.2854862899418937,-0.5851226061230244,0.630377853106236,-0.6488177681672543,5.196400996528084,-6.017718536758788,-2.920000610203325
285,14.6,-1.13,-12.4,2.67,-0.0816,0.715,-0.10300000000000001,2.48,-6.82,-1.57,90.0,14600000000.0,-1.4049762544748472,-11.39665279501415,1.4096688087513856,-0.18838819841650128,0.68680968858863,-0.25292655311750883,3.9988231865786235,-6.352131795906132,-2.2083713515063583
286,14.6,-5.04,-13.2,3.02,1.37,0.9620000000000001,0.693,11.1,-8.34,-0.77,90.0,14600000000.0,-2.8323897916312593,-12.168602445489348,2.168861799630576,1.039493562728865,0.8703254756784204,0.4331706055788616,7.129514238342862,-7.180730516098121,-1.4501589594450435
287,14.7,1.15,-12.4,6.02,2.73,-0.45399999999999996,1.49,8.21,-14.4,-9.67,90.0,14700000000.0,-1.268571362266511,-12.267655464923926,3.984486538607648,2.3714736435597246,-0.012825603066233593,1.199707536630831,7.6058672615343825,-10.189922306334209,-5.783104903062872
288,14.7,1.11,-17.9,-3.88,2.48,-1.91,1.02,7.27,-12.5,-5.65,90.0,14700000000.0,-0.3345458220424704,-14.678664586503515,0.27676278151696154,2.456983503570358,-1.2779916225512529,1.0693624897192406,7.457793687094368,-11.15282682366889,-5.712941024177451
289,14.8,0.17,-14.9,0.6940000000000001,2.51,-0.461,1.24,6.14,-9.2,-7.29,90.0,14800000000.0,-0.13641904295441895,-14.773410356042463,0.4734698822821577,2.498756135808431,-0.7331655566697954,1.1931288802770499,6.87681884179432,-10.338834307790064,-6.544260149414655
290,14.8,-0.965,-10.4,-0.639,1.79,-0.225,1.32,7.14,-3.77,-7.62,90.0,14800000000.0,-0.4617890356949971,-12.901306504965723,-0.05100567324346528,1.9403145502519905,-0.3942858972865018,1.2851507700861406,6.9928472771342935,-7.6007617900113065,-7.111317597345274
291,14.9,0.22699999999999998,-4.07,-0.6629999999999999,1.24,-1.15,1.01,7.78,-2.46,-8.35,90.0,14900000000.0,-0.19131300301390242,-9.120933796130622,-0.33953128955598616,1.388524277551155,-0.8982478901331441,1.085579076302072,7.339878843177399,-5.457949569026471,-7.764267632340451
292,14.9,1.41,-2.26,-0.898,0.396,-1.51,0.5760000000000001,7.63,-3.66,-9.3,90.0,14900000000.0,0.4374960486140408,-6.184008505898452,-0.6028221823664319,0.6064967583212643,-1.3062061593118872,0.715972402963197,7.467784406289473,-4.708514308015183,-8.573802277205683
293,15.0,1.75,-3.4,-1.46,-0.524,-1.03,0.255,5.72,-7.47,-4.47,90.0,15000000000.0,0.9528945875498106,-4.992272083320871,-1.0069399385708482,-0.28424172023835304,-1.1220129243391574,0.381621018152299,6.697239817997087,-5.859578124021433,-6.410554340080979
294,15.0,0.00479,-7.75,3.5,-1.71,-0.0464,-0.268,-1.12,-17.7,6.05,90.0,15000000000.0,0.5805896367058806,-6.17275874759738,1.117863499876386,-1.407622037660846,-0.40472043458124374,-0.08956052245740043,3.2508587334307015,-10.794995005205976,0.1578097489593242
295,15.1,-6.63,-18.6,14.1,-0.306,-0.9590000000000001,-0.18100000000000002,3.63,-7.98,-5.92,90.0,15100000000.0,-2.250889398981579,-11.492425323041868,7.238310956549002,-0.5396344515246625,-0.7743520689080041,-0.15588317760291684,3.4180105304223583,-9.62162694236817,-3.0460017425342323
296,15.1,-1.6,-8.35,2.36,0.8170000000000001,-0.961,0.883,9.44,-3.47,-10.6,90.0,15100000000.0,-1.9952959338330845,-10.147263345828788,4.938424058016741,0.5292819209297353,-0.8988217310196127,0.5976370519879386,6.072920655196968,-7.057458057288196,-7.027960431927696
297,15.2,4.7,-2.82,-1.88,-0.45799999999999996,1.01,0.0141,0.789,-31.7,-0.248,90.0,15200000000.0,0.633835689040761,-7.010718695472197,1.7238680464876524,-0.24861505404105644,0.3741115457876578,0.1743873779064421,3.7434022192285443,-17.32915400714628,-3.454022486976972
298,15.2,-5.21,-32.7,4.95,0.774,1.24,0.0642,12.8,0.9179999999999999,-12.7,90.0,15200000000.0,-1.6609417037379364,-18.007399953281464,3.2448325935783604,0.5571215124300167,0.9515453768808401,0.09446653640581386,7.736178268982614,-9.723233628956866,-8.327878242080537
299,15.3,6.84,0.596,-4.96,-0.478,0.00428,-0.34700000000000003,8.9,-13.0,-8.8,90.0,15300000000.0,1.6772372081820481,-10.043936465530162,-0.6233477738978195,-0.25846911186627997,0.31984383732048893,-0.22573689936575675,8.249271378038163,-11.08908082516995,-8.576749096545292
300,15.3,2.23,-14.2,-1.72,-1.6,2.6,-1.24,3.3,-8.09,-7.19,90.0,15300000000.0,1.89429799859768,-11.823001515238047,-1.1403660864011669,-1.3154851592548962,1.8404083309709205,-0.9613997498107074,6.0672895262956885,-9.838980737454806,-7.845748516443823
301,15.4,-3.96,-10.2,-0.9390000000000001,-1.69,1.39,-0.596,6.32,-4.2,-6.24,90.0,15400000000.0,-0.4045877696673048,-11.128251370232364,-1.0454317548339567,-1.6105721032841938,1.5400451464991067,-0.6963689040411274,6.178701892783476,-7.488496931734156,-6.999306059269486
302,15.4,-1.07,-7.21,-0.536,-1.84,0.358,-0.995,6.35,-5.25,-5.6,90.0,15400000000.0,-0.6658841398420735,-9.450985307530843,-0.8052594137977334,-1.7913424468253771,0.7517763565524858,-0.9129712871796422,6.254221928147018,-6.555429263267035,-6.261686214746529
303,15.5,-0.912,-9.07,-0.23,-1.63,0.0599,-0.7709999999999999,7.94,-4.46,-4.01,90.0,15500000000.0,-0.7625297574389804,-9.2878987200683,-0.5340525221525811,-1.6642178618178882,0.29038573693635666,-0.809997038767505,6.997429759624178,-5.681996186900934,-5.07474920221049
304,15.5,0.848,-8.98,1.04,-1.24,0.0977,-0.955,6.54,-4.69,-4.37,90.0,15500000000.0,-0.1301014299972797,-9.156097873736064,0.2080368280267969,-1.329969076756671,0.16188966839588026,-0.9151702215795806,6.79576300277677,-5.26850465929258,-4.703252886230263
305,15.6,-0.395,-9.82,0.294,-0.9940000000000001,0.515,-0.941,4.21,-5.09,-3.72,90.0,15600000000.0,-0.2341227103378333,-9.440290973948512,0.2485642913104146,-1.0652530841998806,0.39736785277272924,-0.9339050025286773,5.655779482695912,-5.194099025083027,-4.18494828393783
306,15.6,-2.64,-10.7,0.484,-0.723,0.589,-0.6729999999999999,4.8,-5.62,-3.54,90.0,15600000000.0,-1.178870871064288,-9.97952817424248,0.35956079993994927,-0.7955857887073844,0.5251613063838025,-0.7446660052041664,5.278492661356612,-5.371626328001719,-3.8449750196989028
307,15.7,-1.98,-11.5,0.371,-0.355,0.303,-0.327,4.48,-7.23,-1.86,90.0,15700000000.0,-1.4934610038762994,-10.63038887114413,0.3649538237494123,-0.44844040718962686,0.37700890818610977,-0.4417255091639311,4.926461765423772,-6.146248076411111,-2.79863005079506
308,15.7,-2.17,-12.9,1.97,0.317,0.644,0.0795,3.87,-6.59,-1.06,90.0,15700000000.0,-1.7591266798453613,-11.601929683485887,1.1216552090437522,0.15466369444580919,0.5550568807470149,-0.06367149350460494,4.460700151109748,-6.331216261636609,-1.8821414998745505
309,15.8,-3.26,-12.1,2.77,1.69,0.516,0.81,9.27,-9.26,-2.99,90.0,15800000000.0,-2.3484947427782883,-11.81513629218746,1.8987697672097144,1.3643825008519777,0.5290110550789617,0.5700177894564007,6.580973032924428,-7.552014730922128,-2.466129799320355
310,15.8,1.89,-13.8,1.58,2.88,-0.628,1.4,9.35,-12.7,-8.02,90.0,15800000000.0,-0.6841081418577624,-12.664786958762527,1.748485313570349,2.5585645543308266,-0.24256330609655918,1.1720184490136654,7.8017521945003505,-9.697837834924263,-5.393755893157226
311,15.9,1.87,-16.1,-2.68,2.37,-0.799,1.07,4.57,-12.6,-4.85,90.0,15900000000.0,0.31884777737204284,-14.135281422673541,-0.33933060842684815,2.409991100612392,-0.6136334839438233,1.0980227139231309,6.376971927546583,-10.90753975697245,-5.10712440341147
312,15.9,-2.78,-14.9,1.21,2.17,-1.15,1.39,6.74,-8.1,-7.46,90.0,15900000000.0,-0.8980183512287216,-14.462630479365671,0.3911035952682719,2.2208979074035518,-0.9713194578720707,1.309798958038465,6.537019760492997,-9.737279399635016,-6.347401775253501
313,16.0,-0.419,-9.27,-0.857,1.73,-1.13,1.38,7.69,-4.31,-7.97,90.0,16000000000.0,-0.709915787263956,-12.239847565957529,-0.19731667052757706,1.834110736894051,-1.0771385263127444,1.3607170034724632,7.045333382130557,-7.475038644627787,-7.202726031161236
314,16.0,0.9390000000000001,-4.69,-0.8640000000000001,1.06,-1.39,0.861,7.58,-4.03,-8.25,90.0,16000000000.0,-0.06241389434142264,-9.008022465489383,-0.5116255137218255,1.2241750846243566,-1.2857760109955105,0.9982634838171809,7.281051448508678,-6.039050980500695,-7.754778246116461
315,16.1,1.29,-3.95,-0.723,0.34,-1.19,0.5539999999999999,7.93,-3.72,-9.47,90.0,16100000000.0,0.4686566024620862,-6.842860349343624,-0.6112783203020286,0.5275178246044233,-1.2219060343988972,0.6760313895579151,7.567152869446628,-5.072406160013681,-8.658927632006927
316,16.1,2.11,-3.61,-1.58,-0.509,-1.14,0.13699999999999998,5.35,-6.34,-4.39,90.0,16100000000.0,1.1131848981842931,-5.458986098869309,-1.06798359597961,-0.28917299314643263,-1.1672854620354716,0.28506245005983066,6.589678183653723,-5.6007745282909935,-6.4086367830392685
317,16.2,-0.196,-6.74,3.69,-1.52,-0.381,-0.45399999999999996,-0.28300000000000003,-17.3,4.28,90.0,16200000000.0,0.5990896984201236,-6.007343153131092,1.1751747696055888,-1.258963451218428,-0.6429363816828275,-0.25099252463983557,3.5597253354394227,-10.477336192115935,-0.7743081333004911
318,16.2,-5.55,-18.3,12.5,-0.129,-0.7120000000000001,-0.39799999999999996,4.88,-9.12,-4.38,90.0,16200000000.0,-1.81555594231002,-11.269398371794878,6.514280219718692,-0.3686451608079905,-0.6889927486891074,-0.3576196302486634,4.141793959140816,-9.911560735857599,-2.6749858010954823
319,16.3,-0.292,-9.74,3.93,0.682,-0.434,0.78,6.34,-5.69,-5.17,90.0,16300000000.0,-1.2172807843296116,-10.614716435428896,5.2959175546362856,0.45917681892772455,-0.5189460806264091,0.46751585034896237,5.1109155950167136,-8.151897041944514,-3.990189079274428
320,16.3,1.15,-6.03,3.15,-0.0761,0.5,0.10800000000000001,5.74,-18.5,-5.46,90.0,16300000000.0,-0.2876888818307508,-8.652160111034652,4.284221623865955,0.03742270088456395,0.1605570697747115,0.20675269083469033,5.3882594982704175,-12.465273648920911,-4.764974302200153
321,16.4,0.0742,-19.0,2.52,0.0284,1.17,0.0251,9.01,-4.34,-10.1,90.0,16400000000.0,-0.14558111967725695,-13.081707681377294,3.4524767450359426,0.030313554650715804,0.833722838914756,0.07499680339160977,6.984973815622292,-9.078434073935282,-7.577240291366639
322,16.4,3.1,-4.97,-2.31,-0.98,0.773,-0.337,6.41,-12.0,-8.35,90.0,16400000000.0,1.1289047332305058,-9.60936984408174,0.7357486663109829,-0.7657304654966667,0.7932286853649811,-0.22383172427391865,6.731485442093458,-10.296223863262513,-7.9845873009017225
323,16.5,-0.0168,-13.4,-1.08,-1.47,1.71,-0.872,4.86,-7.72,-6.6,90.0,16500000000.0,0.679005481783286,-11.232005591024656,-0.12028872342703834,-1.320636970634252,1.4045947176381461,-0.6939595452230917,5.906405015528137,-9.222382145978187,-7.254726193251911
324,16.5,-2.04,-9.95,-0.0023899999999999998,-1.8,1.29,-0.731,5.24,-5.37,-6.12,90.0,16500000000.0,-0.38870287180205776,-10.683223849454253,-0.06470519751803183,-1.6983355831960678,1.3281750728149724,-0.7208256422249356,5.6126073988422664,-7.61660226626726,-6.656575002475742
325,16.6,-1.77,-8.52,-0.0239,-1.8,0.321,-0.866,5.64,-5.06,-5.33,90.0,16600000000.0,-0.9311153431147616,-9.757223735267187,-0.04546752753121804,-1.778438746416853,0.6565216444802083,-0.8261231516441383,5.624683897003503,-6.550939438967209,-5.957294076634304
326,16.6,-1.19,-8.99,0.51,-1.52,-0.24100000000000002,-0.731,7.08,-4.96,-5.55,90.0,16600000000.0,-1.0327750777479294,-9.428802046994935,0.21640844780176402,-1.5748102500832815,0.05799264053675568,-0.7571286633108802,6.266288061671391,-5.887791727504493,-5.742596205266584
327,16.7,0.474,-9.57,0.0311,-1.24,-0.0165,-0.879,6.77,-4.08,-4.53,90.0,16700000000.0,-0.44108948600582554,-9.48924381113039,0.12904450821822014,-1.3110073112702127,0.008315837388787939,-0.8455240904940627,6.488359185232924,-5.134253914013979,-5.1033973661310945
328,16.7,0.316,-9.34,0.649,-1.16,0.392,-0.9129999999999999,4.29,-4.75,-4.98,90.0,16700000000.0,-0.14379299252501704,-9.425357831816878,0.37417828158386246,-1.1920259407013583,0.26418275247304,-0.8944655439543577,5.5191700831569594,-4.9740862146235525,-5.038350605885267
329,16.8,-1.99,-10.5,-0.254,-0.841,0.522,-0.8009999999999999,3.91,-5.39,-3.86,90.0,16800000000.0,-0.8687678759423385,-9.885374478396367,0.07802270638561254,-0.9154463797044661,0.43611299029190387,-0.8266733424083094,4.809736425450001,-5.147450571717364,-4.417203571545558
330,16.8,-2.34,-11.5,0.563,-0.33299999999999996,0.535,-0.376,3.51,-5.95,-2.17,90.0,16800000000.0,-1.446496302692573,-10.576539072454239,0.30666597315466704,-0.45652652921203785,0.5020576499050686,-0.4997920412525124,4.236722527192058,-5.481975375076664,-3.2326294257904156
331,16.9,-2.82,-12.1,2.05,0.223,0.672,-0.0225,2.59,-6.21,-1.11,90.0,16900000000.0,-1.9858484041937086,-11.22867946235887,1.1285633322881279,0.07888450362947774,0.6153868616420144,-0.1536037402251933,3.5107330739170237,-5.7854362667703265,-2.113722336522379
332,16.9,-4.0,-12.0,3.26,1.69,0.32899999999999996,0.88,10.5,-9.04,-3.75,90.0,16900000000.0,-2.77677233899598,-11.558854750160435,2.1334322681628546,1.3483110812364076,0.4244044524533905,0.5960872054787545,6.592086323294048,-7.142028771230903,-2.9762575806726637
333,17.0,3.58,-13.8,1.39,2.83,-0.8740000000000001,1.52,9.07,-12.9,-7.67,90.0,17000000000.0,-0.28057327377836616,-12.51821056234952,1.7829400291778543,2.5157600529643074,-0.4414607208469165,1.2662173710467608,7.68452226826351,-9.542110878749881,-5.450482108577575
334,17.0,2.2,-16.4,-1.66,2.41,-0.6679999999999999,1.05,5.48,-10.9,-5.31,90.0,17000000000.0,0.6935067388986025,-14.179868402719077,0.15976092292122024,2.4324298952813193,-0.5925326422532402,1.1093910791467263,6.712616077284394,-10.108116604512974,-5.376429383982019
335,17.1,-1.45,-13.4,1.18,2.05,-0.513,1.37,6.27,-8.08,-7.1,90.0,17100000000.0,-0.1482128344686584,-13.846033910181815,0.6407541061257562,2.131106546629839,-0.5394948277682164,1.2984153107801681,6.5174802266776295,-9.262741265412654,-6.284979535965371
336,17.1,-0.51,-9.46,-0.146,1.63,-0.9620000000000001,1.31,6.9,-4.61,-7.52,90.0,17100000000.0,-0.290280651794803,-11.96852653764988,0.2698377309057108,1.7362757890594018,-0.8212502704508086,1.3068178478660113,6.68612149518319,-7.323349587730895,-6.935999032718234
337,17.2,0.479,-5.16,-0.134,1.16,-1.34,0.899,7.25,-3.81,-8.49,90.0,17200000000.0,0.01180310547986857,-9.054034896692414,0.07944783931829907,1.2822178269197038,-1.1671882007116234,1.011020391088687,6.934718219481556,-5.85888791469883,-7.755163430193882
338,17.2,1.3,-3.91,-0.6970000000000001,0.263,-1.14,0.505,7.47,-4.3,-9.12,90.0,17200000000.0,0.5176566474978272,-6.852053889766648,-0.28660964491344604,0.4791579964491677,-1.1490572337164913,0.6439949091733193,7.170707433326557,-5.20910023199951,-8.474613173675474
339,17.3,1.88,-4.45,-1.06,-0.743,-0.8220000000000001,0.155,5.98,-5.8,-5.86,90.0,17300000000.0,1.0526262909868396,-5.8238187285845235,-0.6512256341579579,-0.48380198636866434,-0.9309530506271199,0.28931831268555935,6.645761083620861,-5.455403739937484,-7.096365491579256
340,17.3,0.563,-6.51,2.29,-1.72,-0.0953,-0.242,-0.0631,-14.6,5.05,90.0,17300000000.0,0.8603581742391652,-6.117548978575852,0.7354194831130929,-1.4578243937058666,-0.3736822648988428,-0.0960561917399147,3.6880301618233156,-9.267125501278759,-0.6936205765951273
341,17.4,-5.37,-16.0,13.2,-0.816,-0.511,-0.308,1.52,-9.91,-4.82,90.0,17400000000.0,-1.5862001295860417,-10.347879886349148,6.611864143302627,-0.9521195353047318,-0.46525513627319487,-0.24978275768464026,2.732212203616105,-9.535093376847511,-2.8687696426300917
342,17.4,-3.57,-11.1,3.47,0.586,-0.8859999999999999,0.8390000000000001,9.38,-6.4,-5.34,90.0,17400000000.0,-2.36520541887762,-10.669836308898644,5.130627702386289,0.25979220211330256,-0.7458366612672505,0.5399304924368273,5.663017837000229,-8.228299457629864,-4.171435723598223
343,17.5,5.27,-6.99,3.51,-0.0455,0.659,0.17600000000000002,3.73,-15.8,-5.46,90.0,17500000000.0,0.6330131414384397,-9.094627263331029,4.366580392754541,0.01924705110772021,0.19100478829278067,0.27596531274458824,4.810809615828402,-11.384394536078737,-4.850679937743697
344,17.5,-1.71,-16.8,2.64,0.42700000000000005,1.01,0.008020000000000001,7.54,-4.06,-10.4,90.0,17500000000.0,-0.2870492844235205,-12.393026936215083,3.552581585940399,0.3405228352771311,0.7371669754971519,0.08161987036979296,6.014025865805624,-8.33138352265355,-7.775907063048579
345,17.6,1.84,-5.09,-2.49,-0.831,0.7140000000000001,-0.16899999999999998,6.68,-11.7,-9.9,90.0,17600000000.0,0.5482077138368711,-9.266857137235176,0.7037976380364586,-0.582540803783584,0.7217176379833862,-0.10015912384789921,6.307633343550306,-9.735516313701899,-8.8955854231665
346,17.6,0.615,-13.4,-2.39,-1.33,1.4,-0.9790000000000001,5.43,-7.97,-7.66,90.0,17600000000.0,0.5744359408677525,-11.03611056909623,-0.7547778414817077,-1.1714772222278418,1.1740428340014564,-0.7375978290599017,5.920711666003891,-8.999600010722787,-8.24426802756822
347,17.7,-1.13,-10.5,-0.826,-1.79,1.49,-0.747,4.96,-6.13,-6.67,90.0,17700000000.0,-0.09486778979729749,-10.8066204248481,-0.7883556207932414,-1.6588222812364364,1.384744754593841,-0.7444173735843758,5.49716339870796,-7.803471105340307,-7.4144201221556205
348,17.7,-1.82,-9.58,-0.491,-1.85,0.713,-0.8140000000000001,6.34,-4.34,-5.86,90.0,17700000000.0,-0.7722986247325719,-10.281547180686271,-0.6481668760557779,-1.8094546222682766,0.9367792674943222,-0.7948868824272489,5.8687442522836575,-6.359800255997331,-6.595034724224305
349,17.8,-0.369,-8.57,-0.0982,-1.52,0.22,-0.807,6.1,-3.93,-5.22,90.0,17800000000.0,-0.6139299371645153,-9.548893690791159,-0.38888418681314946,-1.5813881661336233,0.4587816771652949,-0.8036727258944126,5.970697770919907,-5.346992078655363,-5.870209030508999
350,17.8,-0.52,-8.86,0.067,-1.29,0.569,-0.857,6.12,-4.36,-4.37,90.0,17800000000.0,-0.5770452008128677,-9.25400230014577,-0.17395691810683225,-1.3517982213959583,0.532282820071911,-0.8423519297129195,6.036520490376425,-4.935586434094099,-5.079399933741319
351,17.9,-0.43799999999999994,-9.86,0.414,-0.973,0.524,-0.852,4.93,-4.3,-3.9,90.0,17900000000.0,-0.5224444534497195,-9.513408528601287,0.10323623465429524,-1.053336362822253,0.5267592600991465,-0.8493498431875847,5.548689495576539,-4.670656442100968,-4.457699870085503
352,17.9,-1.5,-10.3,0.479,-0.7020000000000001,0.546,-0.6559999999999999,3.94,-5.72,-3.2,90.0,17900000000.0,-0.9063143076231446,-9.850120849553514,0.2803906134772238,-0.7765122158465753,0.5395903080018382,-0.7091098186653371,4.839467701568588,-5.108051882471728,-3.7947253348971897
353,18.0,-2.43,-12.0,0.8690000000000001,-0.317,0.45,-0.36200000000000004,5.36,-4.98,-0.287,90.0,18000000000.0,-1.5046404408326308,-10.770408761772334,0.5578913796113197,-0.4144543757916099,0.4798453364175324,-0.4573449615241594,5.068954472863109,-5.054676310707461,-1.9456890770128457
354,18.0,-1.1,-11.2,3.63,0.369,0.718,0.121,3.1,-7.03,0.33299999999999996,90.0,18000000000.0,-1.345744858467959,-10.954301632272958,2.006241544472763,0.20284324095612355,0.6386632009736087,-0.03786120214610783,4.200902841575207,-5.87804615270836,-0.7445178534759775
355,18.1,-3.67,-12.9,4.3,1.87,0.972,0.728,7.08,-8.42,-7.75,90.0,18100000000.0,-2.2584413437748356,-11.787186744540424,3.087637419495509,1.516425684067281,0.8609550487305445,0.5176313702363065,5.470208370054672,-6.937603120246133,-4.437335636492302
356,18.1,0.0527,-13.4,-3.01,3.28,-0.674,1.17,10.5,-13.4,-6.97,90.0,18100000000.0,-1.350894458679458,-12.477575407687143,0.2128973271761705,2.9059772074955754,-0.1626582984486823,0.9908057658432754,7.687689108239516,-9.631309396042885,-5.772385391751409
357,18.2,3.44,-17.2,-1.25,2.54,-1.29,1.14,3.68,-12.7,-4.97,90.0,18200000000.0,0.5304103793614465,-14.499080183847138,-0.4767877614307259,2.617617231463729,-0.914447059823342,1.0990189542608675,5.920822027461836,-10.910424756229913,-5.349421810330202
358,18.2,-3.13,-15.3,1.59,2.25,-0.396,1.44,6.59,-7.39,-7.75,90.0,18200000000.0,-0.9069721278826228,-14.841925966987978,0.4976023730746356,2.327965081457356,-0.5687109913282922,1.3463385379424904,6.2158421221407485,-9.44301392473834,-6.614844752380286
359,18.3,-0.0383,-8.9,-0.68,1.59,-1.32,1.43,7.38,-2.85,-7.95,90.0,18300000000.0,-0.5658589868634458,-12.298395558478978,-0.05757999472586073,1.7465093048756266,-1.0697220787664823,1.4070196279332245,6.729083646652495,-6.694862639516158,-7.318648464105531
360,18.3,1.19,-3.6,-0.38299999999999995,0.7509999999999999,-1.26,0.935,6.16,-2.5,-9.03,90.0,18300000000.0,0.12363774565487351,-8.574917253073263,-0.21099972667140982,0.9621298211130921,-1.1966124441234198,1.0646555019828836,6.478192067821361,-4.946327429525523,-8.22075745053559
361,18.4,0.426,-2.91,-1.09,0.0205,-1.3,0.6,6.46,-4.64,-9.5,90.0,18400000000.0,0.24237038905965935,-6.149964766022301,-0.6254057093435157,0.2202029507497797,-1.265558327389377,0.727632721506857,6.470171760349522,-4.818641596687926,-8.895087858728447
362,18.4,1.24,-5.14,-1.21,-1.03,-1.1,0.48,4.28,-9.06,-1.48,90.0,18400000000.0,0.6341229992136954,-5.717634191247485,-0.9010135623144216,-0.764854150355396,-1.1551526926118771,0.5480203508772381,5.504592351904272,-6.586557706797025,-4.986353575465358
363,18.5,-0.879,-9.73,6.33,-1.78,0.1,0.0019100000000000002,-1.24,-11.3,-0.535,90.0,18500000000.0,0.039944683499459566,-7.435187166796733,2.5080583418979763,-1.564705584037723,-0.31813076761223413,0.15191692035597082,2.531108607694644,-8.551251393258623,-2.6399001549424055
364,18.5,-6.09,-12.9,7.85,-0.163,-0.897,-0.0439,3.18,-8.85,-3.27,90.0,18500000000.0,-2.36718301233727,-9.774481838699014,5.0265245196571415,-0.46027684507255673,-0.7041604944063503,0.009887466982681087,2.8171849340134587,-8.67577826570383,-2.972046293324064
365,18.6,-1.27,-10.6,5.21,0.36700000000000005,-0.49200000000000005,0.67,4.46,-8.23,-9.69,90.0,18600000000.0,-1.936337428415722,-10.127857392886144,5.113024321711682,0.1915492943279018,-0.5626773307272712,0.4886786948819084,3.541451686561773,-8.489965317621813,-6.5132982507264
366,18.6,-0.314,-9.38,-1.2,-0.1,1.13,-0.028,8.29,-10.6,-8.71,90.0,18600000000.0,-1.299272424553002,-9.807725903971955,2.136739731740846,-0.03816757729503542,0.5661160347612444,0.1139225608322999,5.63494086255646,-9.369486513071127,-7.671251301623183
367,18.7,3.13,-11.6,-0.43799999999999994,1.22,-0.0629,0.21,8.59,-4.61,-12.2,90.0,18700000000.0,0.4400294592509988,-10.574935789549453,0.9228749152581894,0.9531650396984307,0.14664499018093818,0.18360921041010483,6.937735796809055,-7.385600452600344,-10.0585021251981
368,18.7,3.45,-5.87,-3.94,-1.35,1.25,-0.831,3.66,-13.9,-8.99,90.0,18700000000.0,1.6219950006725734,-8.560917634479003,-1.3697346165071966,-0.8615396459817645,0.8824378053630768,-0.5523046511746879,5.492682733242257,-10.100982884020297,-9.49525973704941
369,18.8,-1.76,-16.2,-1.31,-1.42,1.9,-1.02,4.49,-6.34,-7.89,90.0,18800000000.0,0.29394164488734265,-11.830941376091108,-1.3415726170439213,-1.301560450121193,1.5610180697468223,-0.8915322894223374,5.050630592994756,-8.533300865513292,-8.64907498168295
370,18.8,-1.65,-9.3,-0.836,-1.82,0.7440000000000001,-0.787,5.15,-5.11,-6.76,90.0,18800000000.0,-0.4694119969857333,-10.747534162743142,-1.1032196777940773,-1.7100482265664847,1.0161743818474036,-0.8157131840264822,5.094439556404403,-7.106374079424969,-7.653282159050111
371,18.9,-0.955,-8.98,-0.127,-1.73,0.151,-0.855,5.74,-3.8,-6.27,90.0,18900000000.0,-0.6600943476273236,-9.990914542825028,-0.6429794820699726,-1.7257685984683233,0.43921674494435925,-0.8442086156021877,5.379047239343706,-5.728185548484558,-6.924109074391125
372,18.9,-0.141,-8.49,0.012,-1.49,0.047,-1.02,5.09,-3.66,-5.67,90.0,18900000000.0,-0.4562546055048415,-9.348425535298427,-0.3341884454009528,-1.5400023371424068,0.17765971068061798,-0.9717131808390145,5.251615251208557,-4.866108428682091,-6.263027379634119
373,19.0,-0.584,-9.1,0.192,-1.26,0.34299999999999997,-1.12,3.87,-4.42,-4.57,90.0,19000000000.0,-0.506418100392116,-9.242083434110008,-0.08611613096051887,-1.319383511959704,0.2879199551162695,-1.0792682190547975,4.642503445727815,-4.680158082114473,-5.370577602450067
374,19.0,-1.57,-10.5,0.895,-0.965,0.0654,-0.8390000000000001,4.17,-4.62,-4.05,90.0,19000000000.0,-0.9240690975958318,-9.780553426680497,0.37643249770272447,-1.0401584240777848,0.1395283812290167,-0.9049974495169555,4.434191213823602,-4.655082475620056,-4.674458242235685
375,19.1,-1.13,-11.1,1.12,-0.509,0.33,-0.49,3.42,-5.08,-3.32,90.0,19100000000.0,-1.0049347465343699,-10.3453624221323,0.7269884885224562,-0.6216492645677015,0.2665479324967912,-0.6039925164165763,3.9870654722878167,-4.832199864952126,-3.960479157686176
376,19.1,-1.84,-11.7,1.67,-0.0614,0.365,-0.275,1.0,-6.97,-1.73,90.0,19100000000.0,-1.3328510383680192,-10.925235208265013,1.1715726272521851,-0.1802189122045565,0.33220253167936475,-0.36536846947043233,2.670159994720897,-5.723294225464442,-2.784720964968094
377,19.2,-4.37,-13.5,3.26,0.895,0.6729999999999999,0.257,3.68,-7.63,-2.24,90.0,19200000000.0,-2.5254890313582754,-12.027401771510306,2.156164767990876,0.6669651626083661,0.5594696490185544,0.08604631349875858,3.115367485038352,-6.518062175805816,-2.4975808097402874
378,19.2,-2.0,-13.4,3.28,2.56,-0.491,1.22,7.78,-11.4,-13.4,90.0,19200000000.0,-2.319138201935755,-12.614962801016413,2.6859985214859874,2.1585209091390434,-0.14105557720535455,0.9085228622030823,5.171860870629474,-8.55298923900995,-8.244600816774039
379,19.3,2.24,-15.9,-6.71,2.9,-2.14,1.07,4.38,-12.2,-6.97,90.0,19300000000.0,-0.528840221866526,-14.02117192385196,-1.7437587682204665,2.74274553762254,-1.474088923987948,1.025645104813679,4.822753769707344,-10.073164496532742,-7.572717106450152
380,19.3,-0.84,-15.5,0.622,2.48,-0.88,1.07,3.72,-9.69,-9.07,90.0,19300000000.0,-0.6510274970662384,-14.654206391136416,-0.6284183400839023,2.535723674013892,-1.0779096693799164,1.0578165274788562,4.336583494723068,-9.913450721686068,-8.361983519939184
381,19.4,-1.2,-12.3,-0.685,1.87,-1.42,1.31,4.7,-5.58,-9.46,90.0,19400000000.0,-0.8665999151190117,-13.64645323038308,-0.6550938476893633,2.0111881636970366,-1.3060389420045226,1.2407295884732257,4.496802592596099,-8.107148119628988,-8.94078378517079
382,19.4,0.38799999999999996,-6.85,-0.745,1.37,-1.68,1.16,4.65,-3.44,-10.2,90.0,19400000000.0,-0.37393932661812374,-10.737129773597793,-0.697480237191512,1.5059846180067682,-1.555421795744623,1.1821749756402244,4.564342669109595,-6.161751233331383,-9.604557559648537
383,19.5,1.11,-4.05,-1.04,0.862,-1.8,0.892,4.12,-3.55,-10.5,90.0,19500000000.0,0.20877904719973966,-7.874603979405339,-0.8589616633068928,0.9985776834928638,-1.7185232896014657,0.9717059827485797,4.36844557512095,-5.073100789435136,-10.076574431326403
384,19.5,1.29,-3.78,-1.07,0.00275,-1.62,0.794,3.38,-4.38,-9.45,90.0,19500000000.0,0.6333565725402569,-6.121847517202859,-0.9584560211221574,0.21394735369193418,-1.6528212041772812,0.8428127333048169,3.932670312234356,-4.784197185565177,-9.7462865427358
385,19.6,1.22,-4.89,0.10300000000000001,-1.07,-1.03,0.461,0.698,-10.8,-0.8290000000000001,90.0,19600000000.0,0.8637217305387662,-5.59453671351661,-0.45803102446481136,-0.7976976260712499,-1.2374812780885027,0.5658772475960197,2.5066034671606836,-7.291750894670639,-5.0456943998105555
386,19.6,-1.18,-12.1,8.71,-1.7,-0.815,-0.36200000000000004,-5.4,-14.1,-2.53,90.0,19600000000.0,0.061186114729798735,-8.379297696827042,3.8642506547105633,-1.5086377398830648,-0.9557417763376279,-0.10712841096079706,-0.9791753472114606,-10.129618297986127,-3.719589939389245
387,19.7,-6.47,-15.5,7.1,0.713,-2.08,0.23,-0.0352,-2.79,-8.17,90.0,19700000000.0,-2.503502295815445,-11.427420776097723,5.38974938020889,0.24183011819883737,-1.705474237677814,0.1373967505636232,-0.5630055922412199,-7.0702616058914725,-6.065546056547046
388,19.7,-0.29,-3.82,1.58,0.536,-0.846,1.02,0.7,-7.62,-8.03,90.0,19700000000.0,-1.6342966432988266,-8.170950549207566,3.5936374723873907,0.4736118066110897,-1.1323178630645097,0.7775643774343525,-0.006185200337498364,-7.299407783223602,-7.101073564644451
389,19.8,0.0622,-9.02,1.66,-1.67,1.23,-0.0873,-0.16699999999999998,-13.4,-11.0,90.0,19800000000.0,-0.968110541805571,-8.534399056325933,2.6820212367681178,-1.215377998521828,0.44303776534602823,0.15026305032735865,-0.07708350734234204,-9.8423038307198,-9.156324662857216
390,19.8,-1.06,-15.0,-1.36,0.557,-0.353,0.47700000000000004,4.09,0.498,-12.8,90.0,19800000000.0,-1.0041939859397064,-11.302096204539168,0.7764043948271064,0.18111011076837213,-0.08781481815277714,0.3872510980324324,1.7600557680277062,-5.532178118233295,-11.077024695126127
391,19.9,3.29,-1.38,-3.22,-1.45,0.40399999999999997,-0.638,0.401,-16.4,-10.8,90.0,19900000000.0,0.6820647748526816,-7.054794581375126,-1.1077063268786875,-1.1040705713550614,0.2401610524660917,-0.35638154132501876,1.1608897936143339,-10.062187842545585,-10.930996057160797
392,19.9,-0.843,-19.0,-1.4,-1.35,1.16,-0.8809999999999999,1.52,-4.0,-8.73,90.0,19900000000.0,0.08319712709581062,-12.168118348177636,-1.2455085961545935,-1.2978427576561793,0.8535727451101525,-0.7368965121007272,1.3192104521699977,-7.535299645441059,-9.770779115532743
393,20.0,-0.21100000000000002,-7.66,0.39,-1.66,0.282,-0.665,0.5820000000000001,-4.24,-8.64,90.0,20000000000.0,-0.03232920482070348,-10.2383508250855,-0.47444567858979947,-1.5831928588998234,0.4724088299568944,-0.6847487244970333,0.9941970003448177,-6.161727170515899,-9.17470879926674
394,20.0,-0.522,-8.48,0.134,-1.71,-0.643,-0.754,1.83,-3.98,-8.02,90.0,20000000000.0,-0.22461481260651045,-9.485662270147666,-0.18759307023704225,-1.6831064890605585,-0.27142230388599536,-0.7349778969731239,1.3626769065067705,-5.2523227225720115,-8.566024427725576
395,20.1,1.12,-8.96,0.4,-1.61,-0.213,-0.815,1.13,-3.77,-8.16,90.0,20100000000.0,0.30339313096928117,-9.26064469280164,0.0894285465871118,-1.6255045983439906,-0.23246230332950574,-0.7930193322447567,1.2600967984360552,-4.634449450174239,-8.351995648668982
396,20.1,0.639,-9.39,-0.136,-1.31,0.195,-0.93,-0.222,-3.75,-6.6,90.0,20100000000.0,0.4351803831412121,-9.316017312944991,-0.01685007552577064,-1.3769128730394065,0.0525988814108766,-0.892373821970364,0.6066858122959865,-4.265786364399185,-7.428461635730733
397,20.2,-0.68,-9.91,1.01,-1.22,0.698,-0.705,-3.08,-5.79,-5.23,90.0,20200000000.0,-0.002732465197492595,-9.570280417187693,0.4672598928167676,-1.2532784542403763,0.4829966336456854,-0.7564682853646374,-1.018660764419797,-4.901120908512395,-6.269580921531934
398,20.2,-3.59,-12.3,2.09,-0.40700000000000003,0.45799999999999996,-0.479,-2.74,-6.95,-5.21,90.0,20200000000.0,-1.4113929115295405,-10.738777777059495,1.2323030538244084,-0.5864806241182738,0.4663271663220437,-0.5552156655129212,-1.7775464003979136,-5.755150517306997,-5.711041331127068
399,20.3,-3.27,-13.5,2.08,0.16399999999999998,0.299,-0.0708,-3.85,-7.52,-3.96,90.0,20300000000.0,-2.1412370899119053,-11.920760231372977,1.631950985333484,0.004836400822492926,0.35474192915644936,-0.20386047325727735,-2.6912275356289532,-6.490788771204088,-4.788010440423674
400,20.3,-4.65,-13.7,3.6,1.65,-0.0318,1.01,3.03,-7.46,-4.85,90.0,20300000000.0,-3.126386724076825,-12.682390333295409,2.5597905322889467,1.3010900198674404,0.09696925120855332,0.6765738438624052,-0.168913943142178,-6.894782935447982,-4.82068710578408
401,20.4,2.16,-12.6,3.48,3.13,-1.29,1.43,0.491,-15.1,-10.8,90.0,20400000000.0,-1.0505102779917848,-12.647122082641543,2.9936246432958864,2.742120786984337,-0.8279569717818966,1.2230470316168862,0.12202185659624049,-10.314945368145247,-7.972577757776442
402,20.4,0.369,-18.7,-2.78,2.56,-1.31,1.21,-1.88,-11.6,-9.92,90.0,20400000000.0,-0.49309213365644355,-15.238147295592842,0.27164085811196426,2.598624537162599,-1.1494162949486832,1.2135838180684853,-0.7606081250162791,-10.850591974641045,-8.999127482470634
403,20.5,-2.1,-14.3,-0.5,2.06,-1.05,1.73,-1.8,-8.79,-10.1,90.0,20500000000.0,-1.124098171002907,-14.8365594015456,-0.0921503551968576,2.1742326467493864,-1.0831186573165301,1.5881495600713134,-1.2188440771265978,-9.991680015559377,-9.579433439039478
404,20.5,-1.57,-10.6,-0.503,1.61,-1.44,1.74,-0.0182,-3.1,-11.0,90.0,20500000000.0,-1.2991964462994798,-13.023036974125567,-0.2858460321841823,1.7296637280387193,-1.3211116582859248,1.6982893584873797,-0.6895169580995761,-7.119036411825645,-10.328260336111262
405,20.6,0.85,-4.67,-1.24,0.895,-2.29,1.25,-0.0593,-2.51,-11.0,90.0,20600000000.0,-0.45524262853986575,-9.447394647534443,-0.7356833230112065,1.0720173279480325,-1.9672328487770911,1.373137212084887,-0.41167364678826757,-5.197862070867746,-10.682356189113552
406,20.6,1.98,-3.73,-1.46,-0.00214,-1.99,0.868,-0.884,-1.96,-11.2,90.0,20600000000.0,0.5010367801496342,-6.99997839864218,-1.0771634997657493,0.22566967921155023,-1.9824155534913208,1.0067522977762013,-0.6199078391452844,-3.848231282967351,-10.955222999103096
407,20.7,1.99,-3.45,-1.99,-0.65,-1.8,0.5579999999999999,-1.38,-5.73,-5.04,90.0,20700000000.0,1.085727951665608,-5.480357091394709,-1.5075216099553932,-0.4642860047569708,-1.8607683161767117,0.6812643937811365,-0.9550091394321863,-4.632604735662972,-7.837116298438195
408,20.7,1.86,-7.88,3.96,-1.84,-0.044,-0.0824,-11.8,-17.3,4.4,90.0,20700000000.0,1.389771752373251,-6.507560163386462,1.070149483073745,-1.5482355372573278,-0.6492225651060588,0.12736519322358275,-5.7362328026303535,-9.912726448322953,-1.3865337279996863
409,20.8,-8.1,-19.7,13.2,0.569,-1.7,-0.314,-5.52,-5.5,-6.3,90.0,20800000000.0,-2.336704413623285,-12.154781596233978,6.788785194273077,0.11997197481190458,-1.349953078091724,-0.19276474209144595,-5.640902388893744,-8.073379554275533,-3.976581914596768
410,20.8,-1.27,-7.63,2.27,0.841,-1.16,1.05,1.05,-2.42,-6.82,90.0,20800000000.0,-1.9178272700476955,-10.21788123499232,4.658397283674928,0.6880827862068114,-1.2232793118083976,0.7086343212800019,-2.6910889265673963,-5.716894033255124,-5.475440277893214
411,20.9,5.0,-5.02,2.06,-0.457,1.01,0.109,-6.56,-20.3,-4.85,90.0,20900000000.0,0.7986887936392948,-7.992850453019244,3.4333790496539516,-0.21414828163342892,0.2660245389766136,0.273709012922434,-4.396773035850236,-11.79553715249503,-5.1457502887838595
412,20.9,-2.74,-22.7,3.87,-0.414,0.946,-0.276,2.31,-1.5,-9.37,90.0,20900000000.0,-0.5908956239766603,-14.28846602312881,3.6392245825596135,-0.3716150058916132,0.7194788121097697,-0.1250045853737205,-1.43996269664106,-7.504071432659046,-7.372489819996736
413,21.0,5.89,-4.14,-0.622,-1.06,0.647,0.0434,-2.29,-7.44,-11.2,90.0,21000000000.0,1.954044574681395,-9.9442633596531,1.6302640186632362,-0.9140057317225999,0.6711449777117221,-0.0028577808255725173,-1.8147180346404888,-7.47736470456465,-9.39009498369787
414,21.0,0.9,-10.6,-2.5,-1.61,1.72,-0.87,-5.11,-7.74,-9.15,90.0,21000000000.0,1.5401387380716325,-10.224961395469151,-0.3169550053678245,-1.4623919962605267,1.3705934813671092,-0.6318112681503661,-3.2675067620370664,-7.5868382918332955,-9.26353289766777
415,21.1,-2.42,-11.5,-0.517,-1.8,1.19,-0.74,-3.43,-4.45,-8.89,90.0,21100000000.0,-0.01494211082910546,-10.770760732663708,-0.4112665204473853,-1.728399304844634,1.2501613967037728,-0.710282462731165,-3.339145072291445,-6.279316924350175,-9.06663172364862
416,21.1,-0.919,-8.97,-0.56,-1.98,0.455,-0.9620000000000001,-3.08,-2.69,-7.0,90.0,21100000000.0,-0.36995066523170406,-9.999918292993943,-0.48138713845849557,-1.9266399790626394,0.7198932348251145,-0.8928576231976956,-3.224895930843731,-4.783190004038554,-7.977242839284394
417,21.2,-0.41200000000000003,-7.92,0.862,-1.79,0.0525,-0.649,-2.43,-3.95,-7.71,90.0,21200000000.0,-0.38646274195777935,-9.109578204419567,0.15195469115352667,-1.8189788811209426,0.27482963886421663,-0.7159833975125022,-2.874450744013231,-4.43589329840315,-7.836370455659374
418,21.2,0.45299999999999996,-9.64,-0.268,-1.33,0.0959,-0.862,-4.16,-3.48,-6.11,90.0,21200000000.0,-0.056819638858055355,-9.33663333107842,-0.04603356653392951,-1.433703764310091,0.1555070797972565,-0.8218917959369878,-3.441209883259879,-4.03745044114332,-6.926344437128758
419,21.3,-1.24,-9.52,1.04,-1.2,0.628,-0.855,-4.69,-5.1,-5.86,90.0,21300000000.0,-0.5214349519787056,-9.415126371094967,0.46597853188274707,-1.2495644525705958,0.4705977879131925,-0.8459057717599455,-3.991763138847166,-4.480350557053171,-6.364239627660489
420,21.3,-1.81,-11.4,1.07,-0.655,0.563,-0.5529999999999999,-5.36,-6.38,-5.07,90.0,21300000000.0,-1.0274330580272562,-10.264781039601273,0.7507453628800193,-0.7810965311792621,0.5322179376811017,-0.6334560509249927,-4.594976831216266,-5.272177232483649,-5.6820038616374
421,21.4,-2.59,-12.7,1.86,-0.10800000000000001,0.7290000000000001,-0.18899999999999997,-7.47,-8.1,-4.17,90.0,21400000000.0,-1.641027153340004,-11.3072128418096,1.2737050937809418,-0.2507518141207409,0.6634456984407313,-0.31108426663453836,-5.8624862038533205,-6.450892429746714,-4.884977425808889
422,21.4,-4.98,-14.4,2.94,0.659,0.792,0.35600000000000004,-4.52,-6.48,-2.29,90.0,21400000000.0,-2.9521864338343624,-12.63112646044027,2.059282296060301,0.46605779228434796,0.7491745232057535,0.17276367451448016,-5.270625236314378,-6.463025281091205,-3.517080295391165
423,21.5,-2.53,-12.2,5.43,2.42,-0.0153,1.34,-0.259,-12.0,-14.2,90.0,21500000000.0,-2.7864008103529003,-12.44657625182531,3.6484120160561844,2.0056036435445446,0.23937046501742876,1.0193807093785447,-3.06115350492829,-8.770990066788388,-9.148395075765023
424,21.5,2.01,-16.6,-5.83,2.78,-2.51,1.36,-1.62,-11.9,-8.68,90.0,21500000000.0,-0.9029337455257089,-14.224511546484036,-0.820199182479656,2.6157642729152086,-1.5940983726765032,1.26643787459144,-2.425793163488654,-10.075248118548757,-8.901488938239279
425,21.6,1.02,-15.7,0.204,2.51,-0.789,1.07,-2.83,-10.1,-9.52,90.0,21600000000.0,-0.14782955552517818,-14.856116356724737,-0.33733897885062386,2.5324307151162135,-1.0572035279043066,1.1239580715491384,-2.603995516780957,-10.085565548930518,-9.227526502896184
426,21.6,-0.175,-12.9,-0.52,2.09,-0.386,1.35,-2.09,-4.04,-9.63,90.0,21600000000.0,-0.1584989373840015,-14.01877134192453,-0.4234547759482308,2.183831624118609,-0.6095989731385159,1.2879102702205167,-2.377390632889291,-7.565605969388252,-9.439683450672383
427,21.7,0.795,-5.95,-0.503,1.56,-0.9740000000000001,1.29,-2.24,-0.484,-10.0,90.0,21700000000.0,0.2159242918087405,-10.564813054818202,-0.4609564982833637,1.692303555582518,-0.8526065619767464,1.2894259602692897,-2.3168193243130757,-4.613795993848946,-9.735044551335816
428,21.7,1.11,-2.35,-1.01,0.862,-1.64,0.74,-2.56,-1.21,-9.74,90.0,21700000000.0,0.5670130032644123,-7.0483394699276385,-0.7198038572323818,1.0380926188708985,-1.3776945152987512,0.8909176669368104,-2.424030194468968,-3.1949993400316714,-9.737656609056938
429,21.8,1.39,-3.06,-0.958,-0.209,-1.22,0.23,-1.26,-1.69,-8.37,90.0,21800000000.0,0.8901863452264831,-5.341071107472641,-0.8321017798127882,0.05548617600962735,-1.2725330130926051,0.4115424763940239,-1.9108450078937351,-2.567673855707926,-9.016720210396542
430,21.8,2.98,-3.92,0.184,-1.28,-0.193,-0.0879,-8.33,-12.4,5.01,90.0,21800000000.0,1.7108215235140394,-4.732760406786752,-0.3530591065698249,-0.9967670939411591,-0.5526263420777978,0.04928807658718165,-4.740853371757725,-6.666060208205007,-1.6227790665643633
431,21.9,-3.94,-15.2,13.3,-0.968,-0.898,-0.654,-7.91,-10.7,-3.29,90.0,21900000000.0,-0.5081624143414287,-9.213418723976737,6.083695706150417,-0.9741009852399946,-0.7829451924878911,-0.46081910797041875,-6.1380327746600205,-8.347518228065884,-2.501625495913016
432,21.9,-3.18,-13.3,4.88,0.59,-0.37200000000000005,0.495,-0.524,-4.7,-4.4,90.0,21900000000.0,-1.5573487584088406,-10.962741017452585,5.516211655559953,0.2582819577508618,-0.5088987515105401,0.2324532845043918,-3.6629780444500533,-6.8271312851699175,-3.5023205705796685
433,22.0,4.28,-7.26,3.76,0.287,0.48,0.341,-4.18,-12.9,-5.2,90.0,22000000000.0,0.7348813916797938,-9.377727464903106,4.688243092521615,0.280909413995046,0.1505667713125849,0.3111841172505836,-3.890917078776875,-9.358471407368173,-4.397222584652457
434,22.0,0.129,-15.5,3.23,0.0822,1.31,-0.11699999999999999,-2.47,-3.88,-12.4,90.0,22000000000.0,0.4969618126853942,-11.998457754877228,4.000752258655083,0.12434273380328312,0.9237563518711815,0.0006146564387437548,-3.264478366973378,-7.074892473848882,-8.615746981132737
435,22.1,1.47,-6.45,-4.49,-1.06,1.01,-0.34600000000000003,-3.86,-9.29,-9.76,90.0,22100000000.0,0.8790577860245667,-9.623357378774312,-0.0022252280131525026,-0.8088219093518204,0.9812695267482506,-0.25079103233799854,-3.5270255289519916,-7.99821077280894,-9.218920132271046
436,22.1,-0.36200000000000004,-12.5,-1.18,-1.44,1.42,-0.7879999999999999,-3.47,-6.61,-7.85,90.0,22100000000.0,0.3917149760633339,-10.854747260171907,-0.5574888454327449,-1.3061383894288157,1.273845076385926,-0.6404381242524595,-3.5018847362717618,-7.4195660375024035,-8.497317699430303
437,22.2,-0.486,-10.4,0.6940000000000001,-1.81,1.47,-0.743,-5.1,-4.92,-8.4,90.0,22200000000.0,0.04705085789082897,-10.660085733441022,0.03252740735878912,-1.7031398619998537,1.4046546555554686,-0.7148280332460168,-4.206444659220227,-6.377677549499091,-8.446018169684878
438,22.2,-2.42,-9.41,-0.10300000000000001,-1.96,0.867,-0.993,-3.33,-2.56,-7.33,90.0,22200000000.0,-0.9217191375185433,-10.12496778045802,-0.03136718749671842,-1.905524559735029,1.0461096351265227,-0.916591026029359,-3.8200470781523785,-4.786363532954354,-7.85772860749305
439,22.3,-0.493,-7.69,0.536,-1.6,-0.257,-0.75,-2.71,-4.05,-7.1,90.0,22300000000.0,-0.753368241135419,-9.082643442425752,0.2361189107552651,-1.66479634808729,0.17710673228778062,-0.7957596284971677,-3.330661411550153,-4.479426848284824,-7.458305131692249
440,22.3,0.381,-9.64,0.33299999999999996,-1.49,0.0513,-0.8859999999999999,-3.44,-3.66,-5.99,90.0,22300000000.0,-0.3079206371523059,-9.321228396645495,0.28179364427116577,-1.5270712064424996,0.0932101726118227,-0.8612125388633924,-3.3788654642328995,-4.137867023974355,-6.684313558661612
441,22.4,-0.18,-9.6,1.1,-1.26,0.424,-0.972,-5.17,-4.77,-5.71,90.0,22400000000.0,-0.25768832681754944,-9.440560912543287,0.6675382409081818,-1.316641048951809,0.31380351970100134,-0.941568632603531,-4.168521735100073,-4.401357590319534,-6.170721172079778
442,22.4,-1.8,-11.0,1.1,-0.799,0.28800000000000003,-0.616,-5.11,-6.33,-5.78,90.0,22400000000.0,-0.8633285289108898,-10.108102128397169,0.8714229821958321,-0.9087824864427226,0.29659595427044394,-0.7054279819870047,-4.583590661906409,-5.205269259711835,-5.964759428477434
443,22.5,-1.72,-12.6,0.965,-0.159,0.44799999999999995,-0.327,-7.76,-7.64,-4.02,90.0,22500000000.0,-1.1997292222777303,-11.174796430867893,0.9155399920017795,-0.31801553573856245,0.39756256811699847,-0.4309475134448572,-5.983972138828671,-6.2201325719648475,-4.939613389789943
444,22.5,-4.58,-13.8,2.89,0.603,0.779,0.29600000000000004,-5.78,-7.48,-2.55,90.0,22500000000.0,-2.5271054780854625,-12.298554148512267,1.8464021055763986,0.40766896161787747,0.6519312053599682,0.09632029044962559,-5.894047176323239,-6.74528030158027,-3.679970325705341
445,22.6,-3.05,-13.2,4.94,2.42,-0.115,1.39,-1.33,-11.1,-15.4,90.0,22600000000.0,-2.732437467944671,-12.684431440703637,3.3048833931950243,1.993220410253261,0.14048886163927876,1.0346488983060635,-3.8818988904488667,-8.560448530835615,-9.857979445533125
446,22.6,1.6,-15.8,-7.33,2.88,-1.93,1.45,-3.78,-11.1,-8.24,90.0,22600000000.0,-1.0311611015463618,-14.018097223612862,-1.7089479307702256,2.6919298991345335,-1.240255120268037,1.3359103830456973,-3.83697478486363,-9.619004247678538,-9.005089667318051
447,22.7,-0.584,-15.0,0.168,2.45,-0.977,0.932,-5.08,-9.37,-9.36,90.0,22700000000.0,-0.855568348026465,-14.438415387029403,-0.8240580794226595,2.5013090695710374,-1.0646985444309365,1.042947073607695,-4.384986413427372,-9.515212316446828,-9.192174280862613
448,22.7,-1.74,-12.6,-0.721,1.91,-1.07,1.51,-3.09,-4.07,-9.15,90.0,22700000000.0,-1.202869996642141,-13.651454358588852,-0.7754712042775338,2.0354061185430155,-1.0682339536844214,1.381708758497001,-3.8140666160310364,-7.245496719245731,-9.16994264286881
449,22.8,0.611,-6.92,-0.534,1.28,-1.56,1.43,-2.4,0.121,-9.12,90.0,22800000000.0,-0.49059332437849856,-10.769954714126019,-0.6616292415056578,1.4402081900352584,-1.3961772523571345,1.416735206203041,-3.1906480924056972,-4.1749363711193155,-9.14361618903326
450,22.8,1.92,-2.56,-0.735,0.6509999999999999,-1.79,0.807,-3.63,-1.02,-9.11,90.0,22800000000.0,0.4560066869376911,-7.255560830932978,-0.6962199998584865,0.8183770492409405,-1.6588052528863204,0.9744835369914754,-3.384344912835663,-2.8598712932866,-9.125895820057767
451,22.9,1.26,-3.78,-1.07,-0.19,-1.48,0.402,-2.75,-1.01,-8.74,90.0,22900000000.0,0.7717215261301,-5.767795043468043,-0.8724391533859052,0.023858853028600135,-1.5395656562146918,0.5592511785767658,-3.1046817122362547,-2.08879357635069,-8.922477445402858
452,22.9,2.54,-4.12,-1.09,-1.16,-0.693,0.1,-6.93,-9.15,4.6,90.0,22900000000.0,1.4660951478177542,-5.062431690685454,-0.975008549069193,-0.9089245506499691,-0.9750176112100383,0.22614823258792133,-4.791147049962131,-5.0321002947737075,-1.7943392553107564
453,23.0,-1.5,-12.7,11.9,-1.52,-0.474,-0.836,-12.6,-13.2,-1.42,90.0,23000000000.0,0.3013587644221314,-8.331806909667868,5.094932918406061,-1.3904017422683235,-0.6409047008230684,-0.5442465566309362,-8.233830787959615,-8.436707577552571,-1.5970128203191123
454,23.0,-6.69,-16.7,5.63,0.887,-0.728,0.34,-0.262,-2.85,-4.88,90.0,23000000000.0,-2.444031920341367,-11.91393739763985,5.347191132056829,0.40400358387408697,-0.6989858115478751,0.09711300624276287,-4.719295289652832,-6.108012715889069,-3.327582338245165
455,23.1,5.66,-6.27,2.15,0.381,0.618,0.502,-7.01,-11.9,-5.29,90.0,23100000000.0,0.7382869810064276,-9.497965606461685,3.8398707326896924,0.3858786608978976,0.17927065877041337,0.3907846364202495,-5.729196783258128,-8.522273659661204,-4.3620365765961235
456,23.1,-1.59,-15.3,2.15,0.327,1.42,-0.0231,-2.79,-3.42,-11.3,90.0,23100000000.0,-0.1759927239575193,-11.981613253853043,3.0431787444108442,0.3394871113788597,1.0066740739552547,0.0905868393803076,-4.433395124518087,-6.395504375851768,-8.019263142354225
457,23.2,2.35,-6.84,-3.73,-0.8290000000000001,0.525,-0.26,-3.86,-7.78,-9.65,90.0,23200000000.0,0.8159226975260514,-9.780668895925974,-0.15004630895716087,-0.5811846471594274,0.6854607407447824,-0.16369994674533184,-4.180602768460831,-6.972600677159421,-8.87887744622113
