,Time (s),Acceleration x (m/s^2),Acceleration y (m/s^2),Acceleration z (m/s^2),Time (s).1,Linear Acceleration x (m/s^2),Linear Acceleration y (m/s^2),Linear Acceleration z (m/s^2),Time (s).2,Gyroscope x (rad/s),Gyroscope y (rad/s),Gyroscope z (rad/s),Sitting,Walking,Running,Biking,SPM,Acceleration x (m/s^2)_kalman,Acceleration y (m/s^2)_kalman,Acceleration z (m/s^2)_kalman,Gyroscope x (rad/s)_kalman,Gyroscope y (rad/s)_kalman,Gyroscope z (rad/s)_kalman,Linear Acceleration x (m/s^2)_kalman,Linear Acceleration y (m/s^2)_kalman,Linear Acceleration z (m/s^2)_kalman
0,0.269962812,-1.6923238040000002,3.350848913,8.229515076,0.162494531,-0.2067585886,0.5624217987,-1.6480016709999998,0.152790365,0.4132381678,-0.06337540597,0.1136175916,0.0,1.0,0.0,0.0,60,-1.1778117838707813,1.9753516854769284,5.735782307047318,0.18420807487796378,0.17056226526193755,0.013291810445004128,0.041823120411713564,0.3171026075008863,-0.8930130451778054
1,0.319962812,-1.45782721,3.1977083680000002,10.35075283,0.201761406,0.960416913,0.6101202965,-1.277326584,0.202790365,-0.02725905925,0.6281800270000001,-0.17622943219999998,0.0,1.0,0.0,0.0,60,-1.2579599154764287,2.4021667551432535,6.392810447306425,0.1175009591928448,0.27484796284390245,-0.08289987031274566,0.5308899192284295,0.4676143594731038,-1.035185899920363
2,0.36996281200000003,-2.987738132,2.0748763080000003,10.89661503,0.251761406,0.0,0.0,0.0,0.252790365,-0.16408884529999998,0.6944569945,-0.2050156146,0.0,1.0,0.0,0.0,60,-1.9593169059365567,2.248777544970636,7.447908374865822,0.00022558656106751174,0.4131273236326003,-0.15538087586854837,0.19966370564322566,0.18240341380036246,-0.5307270275281255
3,0.419962812,-2.987738132,2.0748763080000003,10.89661503,0.301761406,-0.4419744015,-0.021548509599999998,-1.7234659190000001,0.302790365,-0.10185877980000001,0.186919257,-0.1936385781,0.0,1.0,0.0,0.0,60,-2.4167760356717927,2.1617601215995537,8.429445671891992,-0.04560626849209816,0.32890488235468823,-0.17861364132142388,-0.20868707362124012,0.055128202820193706,-1.146672255077389
4,0.469962812,-2.388934374,1.861616015,8.988637923999999,0.351761406,-0.8079357147,0.28108143809999997,-0.2791233063,0.352790365,-0.02909160033,0.09758284687999999,-0.1378224194,0.0,1.0,0.0,0.0,60,-2.4040610770177695,2.0092333342077877,8.602503847621707,-0.03803180122405443,0.23898159021451726,-0.15375644563926558,-0.5910470092307756,0.19658171101535246,-0.6928371977656425
5,0.519962812,-3.983451605,1.23679018,7.118647575,0.401761406,-0.8079357147,0.28108143809999997,-0.2791233063,0.402790365,0.1282779276,0.7296570539,0.6288672686,0.0,1.0,0.0,0.0,60,-3.130849246337302,1.6152435395711349,8.125983451572523,0.038716131669881526,0.4327043155041145,0.3234070069453201,-0.7294829784128315,0.24950451559020137,-0.47578446504916394
6,0.569962812,-3.983451605,1.23679018,7.118647575,0.45176140600000003,-0.8079357147,0.28108143809999997,-0.2791233063,0.452790365,0.1509556323,1.929513812,0.661929369,0.0,1.0,0.0,0.0,60,-3.5240547656848658,1.4220404072724397,7.797121735260749,0.09060377262047685,1.026973582670519,0.5298196828219234,-0.7795600924075353,0.26928259891187295,-0.37253971000752695
7,0.619962812,-1.912762642,1.607976794,5.02163744,0.501761406,0.872985363,-1.433287859,-0.106297493,0.502790365,-0.21158221359999999,1.8546849490000001,0.7323294878000001,0.0,1.0,0.0,0.0,60,-2.780481092785773,1.5169823182040563,6.884330942763526,-0.04916641792994626,1.3562607544251917,0.6533007463803168,0.27528119586189737,-0.7971250322417087,-0.23274510013928387
8,0.6699628120000001,4.007977962,2.998805046,24.86382103,0.551761406,0.1649603844,-1.043802857,-1.671965599,0.552790365,-0.6890357137,0.9822424054000001,0.9594883323000001,0.0,1.0,0.0,0.0,60,0.3528126164086318,2.2736615430065834,12.81683799277809,-0.3451690816211929,1.2073565371166426,0.8400000476122174,0.20486193173800488,-0.9516322545651201,-0.9884553251400178
9,0.719962812,-7.486244677999999,-0.8769695163,4.786841869,0.601761406,0.1649603844,-1.043802857,-1.671965599,0.602790365,-1.681891561,0.2803025246,1.010264993,0.0,1.0,0.0,0.0,60,-3.26559080285579,0.6648011087733035,10.163359741254851,-0.9635614376301371,0.8381798066659027,0.9438199173408149,0.17939223256684117,-1.0093635330499746,-1.3473576485625471
10,0.769962812,-7.486244677999999,-0.8769695163,4.786841869,0.651761406,1.4643435480000002,-0.1523180008,-3.985174179,0.652790365,-2.147357225,0.2712161839,0.5144860743999999,0.0,1.0,0.0,0.0,60,-5.213818091655553,-0.12250178662589462,8.385540942195348,-1.511213840422992,0.6123786404798894,0.682031529040702,0.9995941051863482,-0.4725509926295013,-2.7324430244409537
11,0.769962812,-4.644169807,1.009472013,9.168100357,0.7017614059999999,3.9899876119999997,0.8040291071,-0.6826791763,0.702790365,-0.6853706240999999,0.9839985967,-0.281524241,0.0,1.0,0.0,0.0,60,-4.950870843226985,0.45553936579367194,8.644381223899916,-1.1291575482011749,0.7603866141473674,0.09449873165869471,2.9084028896155445,0.32703804066976283,-1.6561365484319919
12,0.869962812,-5.022534847,-0.1755733639,12.41934776,0.751761406,3.9899876119999997,0.8040291071,-0.6826791763,0.752790365,-1.138924718,1.206957817,0.8328902125,0.0,1.0,0.0,0.0,60,-4.983950688735754,0.1332623037639169,9.893158611546893,-1.133676096514322,0.9382482433599715,0.5447365136936435,3.5987931057076543,0.6258025490243176,-1.1449856834545442
13,0.9199628120000001,-6.916453838,-0.08943174778999999,9.299705505,0.8017614059999999,3.9899876119999997,0.8040291071,-0.6826791763,0.802790365,-0.6585696936,2.4669065480000003,1.139840961,0.0,1.0,0.0,0.0,60,-5.875987502115502,0.01954381235868284,9.696829808764846,-0.913879375718669,1.5470893281840055,0.907604332716885,3.8484978713635076,0.7374351848301701,-0.9022340413544883
14,0.969962812,-7.538887024,1.1338988540000001,8.083553314,0.8517614059999999,2.045610905,1.070637703,0.1600513458,0.852790365,-0.8777111769,2.321525097,0.6564317346,0.0,1.0,0.0,0.0,60,-6.643576291397081,0.5885880889206924,9.16310434786034,-0.8971470140105637,1.8555356894762287,0.754450624352371,2.6976906372620815,0.9461373881223849,-0.34444063098068656
15,1.019962812,-8.271389961,3.789034605,5.694319725,0.901761406,1.4730033869999999,0.01213511825,0.44655561450000003,0.902790365,-0.3065689802,2.116891146,0.2026485801,0.0,1.0,0.0,0.0,60,-7.39496959405909,2.2228928734117943,8.015501542714908,-0.6239300488940911,1.9596297808095693,0.417986655012597,1.9159561344062954,0.3611228068760408,0.07090208116095592
16,1.069962812,-8.436494827,2.869592667,4.82034111,0.9517614059999999,1.4730033869999999,0.01213511825,0.44655561450000003,0.952790365,0.5996229649,1.6588320730000001,0.6402443051,0.0,1.0,0.0,0.0,60,-7.875734135166681,2.55312947053629,6.958418169685347,-0.05788216980948491,1.839826386336407,0.5535093337547474,1.6332133807089293,0.14253352384243478,0.2681532796117915
17,1.119962812,-8.436494827,2.869592667,4.82034111,1.001761406,1.4730033869999999,0.01213511825,0.44655561450000003,1.002790365,1.1296093459999998,0.2768665254,0.2907632887,0.0,1.0,0.0,0.0,60,-8.134579383398009,2.7147310824466273,6.2510574181941045,0.49148271099709373,1.2173219366715275,0.3932986601046772,1.5309491663544252,0.060858167041362835,0.361830221897268
18,1.169962812,-5.855835438,0.2075773627,5.974279881,1.051761406,-1.034865856,2.08195591,-0.42243051530000003,1.052790365,0.05825955793,-0.4930301011,0.289388895,0.0,1.0,0.0,0.0,60,-7.082718846412445,1.4344555640164975,6.159488325931155,0.2910622593636206,0.5361132819964564,0.32993917753091934,-0.10684540639334461,1.3267776275509888,-0.04997575515356173
19,1.2199628120000001,-6.928418159,0.6263213158,10.8056879,1.1017614059999998,-0.8177666664,1.7177307609999999,-2.543578625,1.102790365,-0.4055262208,-1.369825006,0.4302655458,0.0,1.0,0.0,0.0,60,-7.0114941685555925,1.0217826251847841,7.696637923803756,-0.0311979357187554,-0.22299457499831832,0.39111366657543906,-0.5606361010024523,1.5716520682019073,-1.3593369374654236
20,1.269962812,-8.458029747000001,-0.9849455953,8.155337334,1.1517614059999999,-0.8177666664,1.7177307609999999,-2.543578625,1.152790365,-0.8823688626,-1.383645415,0.35826191310000005,0.0,1.0,0.0,0.0,60,-7.679210123954358,-0.0029511167187958876,7.848394160718273,-0.4249720459427718,-0.6852651433297705,0.3710821507414214,-0.724766032746893,1.6631488105584409,-1.9811681499234102
21,1.319962812,-4.68275404,0.9999007583,5.514558792000001,1.201761406,-0.4815797806,-0.5934014916,-1.7212610240000001,1.202790365,-0.6565844417,-1.165954709,-0.5463265181,0.0,1.0,0.0,0.0,60,-6.296056078589068,0.5091541818248438,7.076267361877175,-0.5321220462059482,-0.8767168972250385,-0.18831222884134652,-0.5695369455089075,0.2497530697984145,-1.8446940123527547
22,1.3699628119999998,-3.564707518,1.4739787580000001,7.9447693820000005,1.251761406,1.213671207,0.23353189230000002,1.173696518,1.252790365,0.480584085,-1.311641812,-0.1307213157,0.0,1.0,0.0,0.0,60,-5.035274773848686,1.0018408785108945,7.3636028452111555,-0.06361749191610494,-1.049941247796975,-0.15319589061750505,0.5687090345483164,0.23959289603029318,-0.25977307660233584
23,1.4199628119999999,-3.363411427,0.9975079298,8.765806198,1.301761406,1.213671207,0.23353189230000002,1.173696518,1.302790365,0.159202069,-1.117392302,0.5655682087,0.0,1.0,0.0,0.0,60,-4.263548278559971,0.9996282626226249,7.827508255109374,0.039464711182450984,-1.076806034291871,0.2850740005170746,0.9803971481093534,0.23579657168101315,0.49292474309797984
24,1.469962812,-3.026023388,0.3032902777,9.072386742,1.3517614059999998,1.213671207,0.23353189230000002,1.173696518,1.352790365,-0.4423297644,-1.361044049,0.3872008026,0.0,1.0,0.0,0.0,60,-3.692310953311538,0.644043972917441,8.23936425896602,-0.18342611476773235,-1.1900139555989289,0.3473463127515707,1.1292991480434313,0.23437808427185525,0.8503898979849353
25,1.519962812,-1.493719578,-0.9634101987,8.77059269,1.4017614059999999,0.46978235240000005,0.5761190653,-1.774962425,1.402790365,-0.26778015489999996,-0.7958576083,-0.03497100621,0.0,1.0,0.0,0.0,60,-2.6774485726388972,-0.1768008786292602,8.415116046589523,-0.2224505175809803,-1.033027140337136,0.1142264756275807,0.7083206211502509,0.4484283744584928,-0.5281513540570594
26,1.569962812,-1.199103236,-1.425225019,8.777770996000001,1.451761406,0.42943000789999997,-0.1683901548,0.5001134872,1.452790365,-0.26663482190000004,-0.09827005117999998,-0.34337252380000005,0.0,1.0,0.0,0.0,60,-1.995049339975683,-0.8143074070546301,8.535096928843512,-0.24289134158722664,-0.6607268095582,-0.1647967308008757,0.530300955389067,0.0620825964449514,0.01177827337693138
27,1.6199628119999998,-4.043272018,-2.734996319,8.461917877000001,1.501761406,0.42943000789999997,-0.1683901548,0.5001134872,1.502790365,-0.07696675508999999,0.1341573298,-0.5651864409,0.0,1.0,0.0,0.0,60,-2.9405020360742724,-1.795105262752116,8.510886347413985,-0.1661302536000191,-0.3441358668981072,-0.4089362959852031,0.4659136597973851,-0.08227456887403731,0.2681972809085218
28,1.6699628119999999,-4.151247978,-2.615355253,7.614260674,1.551761406,0.42943000789999997,-0.1683901548,0.5001134872,1.552790365,-0.2072299272,0.1538571566,-0.9719343184999999,0.0,1.0,0.0,0.0,60,-3.4993782887996168,-2.21396509312837,8.214246415511472,-0.18514404611099586,-0.14579239399122357,-0.7522270673124831,0.4426256493639077,-0.1362132744710826,0.3899737200640564
29,1.719962812,-5.994618892999999,-3.046063185,7.887341499,1.6017614059999998,2.7778935430000002,-1.383092999,-0.267572403,1.602790365,-0.2661767006,-0.16126367449999998,-1.032866359,0.0,1.0,0.0,0.0,60,-4.651172955051885,-2.6388751444036407,8.106093085851354,-0.22263188834009706,-0.15195438293674435,-0.9233482346429327,1.9332588590580322,-0.9171994066297462,0.044704078467867225
30,1.769962812,-6.008975982999999,-3.002992392,8.157731056,1.6517614059999999,1.280431032,-1.8350869419999998,-0.3015241623,1.652790365,-0.48867779969999997,0.01229330152,-0.9999569654000001,0.0,1.0,0.0,0.0,60,-5.2779302635861995,-2.8248112494501956,8.123177008898892,-0.34571174071188165,-0.08653688788522562,-0.9700607793309124,1.5165499917344434,-1.4921204847581042,-0.13709624916405955
31,1.819962812,-5.891727447999999,-2.191526413,7.834699631,1.701761406,1.280431032,-1.8350869419999998,-0.3015241623,1.702790365,-1.138695598,0.2892361879,-1.212302685,0.0,1.0,0.0,0.0,60,-5.561256978255452,-2.5014249863923466,8.027737058508333,-0.7125669783867418,0.0631281342358121,-1.1177689545621994,1.365832053346486,-1.7069383547694534,-0.22343538895500542
32,1.8699628119999998,-7.292127132,-3.711566925,7.72911644,1.751761406,-1.3982233999999998,-1.164894104,-1.045547485,1.752790365,-1.61187315,0.8510629534999999,-1.0253834720000001,0.0,1.0,0.0,0.0,60,-6.360220817031183,-3.119382746889188,7.928941315094071,-1.1286097217498623,0.3769512624457723,-1.0614364593391916,-0.39850207858154296,-1.3674276270057466,-0.6551166641358988
33,1.9199628119999999,-6.774978161,-3.7283167839999996,5.766104221,1.801761406,-2.0672578809999997,-0.3148970604,0.02511310577,1.802790365,-1.881485939,1.4684004780000002,-1.060659885,0.0,1.0,0.0,0.0,60,-6.551671411281669,-3.430334298756219,7.213387581730308,-1.4769101079588296,0.811659818101991,-1.0609629396221285,-1.4636915691404186,-0.7081725603592273,-0.29793610958894773
34,1.969962812,-6.454339981,-4.104289055,6.903293132999999,1.8517614059999998,-2.0672578809999997,-0.3148970604,0.02511310577,1.852790365,-1.874843001,1.5029133559999999,-1.103190184,0.0,1.0,0.0,0.0,60,-6.506743550620798,-3.7744886152548434,7.110795832549494,-1.661004355164992,1.0869761796830444,-1.0867112062037985,-1.8489561425599348,-0.4618434995562467,-0.12830681226406737
35,2.0199628119999997,-5.891727447999999,-4.731507778,5.375775337,1.9017614059999999,-2.0672578809999997,-0.3148970604,0.02511310577,1.902790365,-1.885303736,1.2574291229999999,-0.9580375552,0.0,1.0,0.0,0.0,60,-6.222854186956279,-4.2631894856029815,6.536781082900177,-1.7647711618267028,1.1548651402350982,-1.0082518242403276,-1.9883011068575502,-0.3698032418988672,-0.04774783965305887
36,2.069962812,-5.740680695,-6.3284177779999995,6.1899333,1.951761406,-1.486792088,1.644951105,0.1895384789,1.952790365,-1.748932004,1.185272694,-1.104030013,0.0,1.0,0.0,0.0,60,-6.0002845253910655,-5.317796230255278,6.422029848667886,-1.7574435498362977,1.1669760322732419,-1.0666530388223388,-1.6681810893242688,0.8921430173864968,0.07684838147533048
37,2.119962812,-6.645765781000001,-6.859923362999999,7.099504948,2.001761406,-0.6373944282999999,2.51732707,1.314335346,2.002790365,-1.215509653,0.9949174523000001,-1.023321867,0.0,1.0,0.0,0.0,60,-6.298236501119095,-6.105281895155622,6.646165932587314,-1.5067306421834226,1.0984475696729923,-1.0402316469077306,-1.0102159654387517,1.9100809804839674,0.7266380552959963
38,2.169962812,-6.231508255,-7.353144169,4.312763691000001,2.051761406,-0.6373944282999999,2.51732707,1.314335346,2.052790365,-1.252160549,0.7534800768000001,-1.103877306,0.0,1.0,0.0,0.0,60,-6.267434967253577,-6.742501506698971,5.874182369758135,-1.388959805913967,0.9610519690416358,-1.0790398958192504,-0.7722389153219005,2.2904310378312633,1.0352309066592806
39,2.219962812,-6.231508255,-7.353144169,4.312763691000001,2.101761406,-0.6373944282999999,2.51732707,1.314335346,2.102790365,-0.7719582319,0.48829603200000005,-0.9358180165000001,0.0,1.0,0.0,0.0,60,-6.250851317773104,-7.054325566269986,5.357602102016137,-1.1035186117571119,0.7727600654027966,-0.9917096611780407,-0.686165848032437,2.4325479166279713,1.1817853253415393
40,2.2699628119999997,-6.432804585,-7.032206535,3.9131622310000003,2.151761406,-1.307089329,0.6383228302,3.028691292,2.152790365,-0.22334103289999999,0.6840725541,-0.6981220841,0.0,1.0,0.0,0.0,60,-6.334840333422267,-7.043030505433215,4.879723141553365,-0.6963252596140488,0.7374371027070086,-0.8126932139879873,-1.0825097379501405,1.3087306932100324,2.1515736622830417
41,2.319962812,-5.432006359,-6.888637066,3.32901454,2.201761406,-1.377160549,0.3246994019,2.61275959,2.202790365,-0.2443388999,0.8542698622,-0.08437328041000001,0.0,1.0,0.0,0.0,60,-5.918095208915035,-6.964189651241327,4.366686199189944,-0.48722445385836144,0.7839699137448295,-0.3685966066203162,-1.2705893521175615,0.6923803133320003,2.3937369029277784
42,2.369962812,-9.590433121,-7.4703922270000005,3.7142589089999998,2.251761406,-1.377160549,0.3246994019,2.61275959,2.252790365,-0.209062472,0.7464553714,0.576487124,0.0,1.0,0.0,0.0,60,-7.613234031576603,-7.22268148611457,4.150836940624019,-0.3585393878519002,0.7690284100177156,0.20767277594027206,-1.33861519443328,0.4620824849463723,2.5087431086843766
43,2.419962812,-9.590433121,-7.4703922270000005,3.7142589089999998,2.301761406,-1.377160549,0.3246994019,2.61275959,2.302790365,-0.1923405379,0.4592807889,0.874427855,0.0,1.0,0.0,0.0,60,-8.525902477846197,-7.349174726209475,4.006399321546681,-0.28165141836178703,0.6456603787515636,0.6142299150616446,-1.3632192178052323,0.3760322584994743,2.5633609248620712
44,2.469962812,-8.319246292,-6.572784901,4.478167534,2.351761406,-0.6795787811,-0.3495965004,0.1372020245,2.352790365,-0.2577011883,0.4091913104,0.9930849075,0.0,1.0,0.0,0.0,60,-8.430510677911187,-6.952712044816517,4.162479271622771,-0.27057141054658324,0.5514781431890974,0.8452385818336807,-0.9268422432098014,-0.07846707005383946,1.2894137678895543
45,2.5199628119999997,-10.39501953,-5.413761139,0.5327021479999999,2.401761406,-0.6795787811,-0.3495965004,0.1372020245,2.402790365,-0.01878355257,0.7545490861,1.6636425259999998,0.0,1.0,0.0,0.0,60,-9.337321354032596,-6.1668483168139305,2.961602617697578,-0.1540877095571564,0.6323583847967713,1.34426435080834,-0.7690106175152974,-0.2482896446570501,0.6844010976438926
46,2.569962812,-9.15733242,-6.318846226000001,0.6308078765999999,2.451761406,-0.6795787811,-0.3495965004,0.1372020245,2.452790365,0.60405159,1.756338596,1.267126322,0.0,1.0,0.0,0.0,60,-9.254239067907752,-6.2444658957101105,2.190481721198158,0.19664751725004137,1.0800235690511195,1.2972290639716362,-0.7119250618613471,-0.3117434388280135,0.3970733783155135
47,2.619962812,-8.621041298,-3.012563705,1.7751753330000002,2.501761406,0.7535381317000001,-0.9122114182,3.06802702,2.502790365,0.1971509457,1.682120681,1.6809753180000002,0.0,1.0,0.0,0.0,60,-8.961957107990902,-4.59409830175764,2.0530816195405994,0.19688041650598276,1.3198302059518507,1.531220201143893,0.22349999564614165,-0.6878480103110878,1.7995593395726992
48,2.669962812,-2.099402666,-1.2433704140000001,2.4430718419999997,2.551761406,-0.8454322815,-0.7798957825,-0.7822676301,2.552790365,-0.26510772109999997,0.800286293,1.6210359330000002,0.0,1.0,0.0,0.0,60,-5.794225070132208,-2.8830524851093347,2.182106112694763,-0.01684747535244771,1.1129033231499557,1.5859857789978558,-0.45881399299532033,-0.7455023550823897,0.44387273253944937
49,2.719962812,-6.767799854,-3.572783232,-0.9732806087,2.601761406,-0.8454322815,-0.7798957825,-0.7822676301,2.602790365,-0.30748525260000004,0.5838935971,1.583621502,0.0,1.0,0.0,0.0,60,-6.2436239144113035,-3.235262795251923,1.1381769350403694,-0.15130417320782766,0.9022063428651711,1.5845441495990404,-0.7055976968358455,-0.7670447615305769,-0.19995897558779918
50,2.7699628119999997,-6.767799854,-3.572783232,-0.9732806087,2.651761406,-0.8454322815,-0.7798957825,-0.7822676301,2.652790365,0.12865971029999998,1.00545454,0.8990144729999999,0.0,1.0,0.0,0.0,60,-6.485581764399994,-3.407617265738833,0.43962162886260536,-0.02178550000682994,0.9433286178238962,1.1665391086724084,-0.7948560111824542,-0.7750940295852178,-0.5057223181181012
51,2.819962812,-7.897810459,-5.385047436,-1.5454642769999998,2.701761406,5.307235241,2.144794226,2.673667192,2.702790365,-0.10460758949999999,0.6094728708,-0.3409291208,0.0,1.0,0.0,0.0,60,-7.137461777735633,-4.4173899877404565,-0.21712484330162796,-0.06010118206729697,0.8103586660770329,0.24735305382777062,3.1001917016867306,1.0537850428116022,1.163737265603544
52,2.869962812,-11.984751699999999,-5.895017623999999,3.7286159989999996,2.7517614060000004,5.624006271,0.9858784676000001,-0.8768447638,2.752790365,-0.1650051177,0.07017108053,-0.38987326619999996,0.0,1.0,0.0,0.0,60,-9.374954495329238,-5.171939049897569,1.0882853509873687,-0.10863250825550705,0.5155525756649056,-0.141198781444475,4.711176815012842,1.011251595125156,0.09225193360795347
53,2.919962812,-9.032606125,-4.477868557,1.63639164,2.8017614060000002,5.624006271,0.9858784676000001,-0.8768447638,2.802790365,-0.535025835,-0.6441384554,-0.1041494608,0.0,1.0,0.0,0.0,60,-9.216927639532488,-4.81751265268607,1.2696210152917062,-0.3058933022441074,0.05366428460586503,-0.11860777871593517,5.293848253261012,0.9953590752927179,-0.41660920579776595
54,2.969962812,-8.079963683999999,-2.74935317,-0.5494518876,2.851761406,1.0241899490000002,-1.438547611,-1.942592025,2.852790365,-1.13831389,-0.8262472748999999,-0.1526354551,0.0,1.0,0.0,0.0,60,-8.692108903584604,-3.7614090988782793,0.6677983395579037,-0.690993011037858,-0.29679185897746857,-0.1393563192350033,2.568467375544445,-0.5291242658467701,-1.2178846183597922
55,3.0199628119999997,-8.395816802999999,-3.0819556710000002,0.1136590764,2.9017614060000003,-1.403458595,-1.099192142,-0.41471511130000005,2.902790365,-0.451721549,-0.2466295809,0.06558972597,0.0,1.0,0.0,0.0,60,-8.555341466968882,-3.4144468913475787,0.48446672401036817,-0.580299724794585,-0.2768129436483139,-0.014389475444423358,0.03313308945724147,-0.8861876594707067,-0.7961498713188173
56,3.069962812,-9.540184021,-3.1899316310000003,-0.7651050687000001,2.951761406,-1.403458595,-1.099192142,-0.41471511130000005,2.952790365,-0.08872556686000001,-0.1009425074,-0.08376242965,0.0,1.0,0.0,0.0,60,-9.00994147590889,-3.2997984001290623,0.07105798233652155,-0.35288455995242674,-0.20676627339084502,-0.0566899703056467,-0.8838628918801008,-1.0196035327015591,-0.5958630195085712
57,3.119962812,-10.42373371,-3.953541279,1.068993568,3.0017614060000004,-1.403458595,-1.099192142,-0.41471511130000005,3.002790365,-0.3490992188,-0.2905342281,-0.1307213157,0.0,1.0,0.0,0.0,60,-9.6625432143227,-3.633631541815674,0.40121531889503304,-0.3511333613632461,-0.2401298473116053,-0.10183094178125829,-1.215527885487935,-1.0694540509787083,-0.5007444093169333
58,3.169962812,-9.583254814,-3.912863255,1.5332010980000002,3.0517614060000002,0.7206001282,1.250674725,-0.6318474412,3.052790365,-0.412550956,-0.9224557281,-0.005268557463,0.0,1.0,0.0,0.0,60,-9.625943955607804,-3.7762209343052797,0.7757218654187139,-0.3795467598010038,-0.5118904512670799,-0.04295156021025432,0.020328918327766177,0.3837642203756326,-0.5695850506721583
59,3.219962812,-10.33280659,-5.1984071730000005,0.1543370634,3.101761406,0.3404436111,1.318285465,-0.7194401026,3.102790365,-0.6920135617000001,-0.5628957748,-0.06230641901,0.0,1.0,0.0,0.0,60,-9.95222936776419,-4.5024589028412585,0.5701427137552,-0.5241021399424963,-0.5322051394984486,-0.05475327911826699,0.22466247392327388,0.969103862861655,-0.6482721545138557
60,3.2699628119999997,-8.745467186,-3.900899172,0.6451647878,3.1517614060000003,0.3404436111,1.318285465,-0.7194401026,3.152790365,-0.31115031239999996,0.2419718653,-0.19318044190000003,0.0,1.0,0.0,0.0,60,-9.395192005409239,-4.19527303289778,0.5949630413244329,-0.42558501047723163,-0.22386155129606122,-0.13915991211701897,0.2985671461243606,1.1878146042409765,-0.6856415968400966
61,3.319962812,-7.7350983620000004,-3.752544165,1.2149556879999999,3.201761406,0.3404436111,1.318285465,-0.7194401026,3.202790365,0.16531054679999999,0.2140256017,-0.1959292591,0.0,1.0,0.0,0.0,60,-8.628898365818666,-3.9691939828412646,0.800081611710336,-0.152221147904891,-0.04945738382522946,-0.17377529639830525,0.325297462431107,1.269535343659091,-0.7033887898564221
62,3.369962812,-9.174081802,-4.204787731000001,0.5590232015,3.2517614060000004,-1.155154228,-0.5844531059,-0.1718736887,3.252790365,-0.1611109674,-0.019012620669999997,-0.08979454637,0.0,1.0,0.0,0.0,60,-8.88055320558557,-4.089499692819649,0.7203297682133565,-0.1563338127648233,-0.037331671676304676,-0.12256762727653582,-0.6196949562982138,0.10828519314956431,-0.424296537532509
63,3.419962812,-8.910572052000001,-4.832006454,1.411167145,3.3017614060000002,-0.5471735001,0.3083343506,-0.9788153172,3.302790365,-0.26663482190000004,-0.2161635756,-0.24869118629999998,0.0,1.0,0.0,0.0,60,-8.89440980407784,-4.468660021806549,0.948886632425249,-0.2073619674555895,-0.10855785201306241,-0.19947207831897923,-0.5734035259377638,0.23358646686257836,-0.7154677475754544
64,3.469962812,-8.889037132,-5.042873859,1.466202021,3.351761406,-0.5471735001,0.3083343506,-0.9788153172,3.352790365,-0.3229855001,-0.1540098637,-0.4995203316,0.0,1.0,0.0,0.0,60,-8.891929796847256,-4.761881738858108,1.120035425110005,-0.2608524618421054,-0.12666073584754287,-0.3824279541560617,-0.5566605442158536,0.28040498466047553,-0.8537484214029193
65,3.5199628119999997,-8.934500694,-6.077171326,1.789532185,3.4017614060000003,-0.5471735001,0.3083343506,-0.9788153172,3.402790365,-0.2735832036,-0.449278146,-0.338409394,0.0,1.0,0.0,0.0,60,-8.911580379848624,-5.433533039846709,1.3415319525717124,-0.26674203857900386,-0.25515461935952966,-0.35558742389772396,-0.5506048350973962,0.2978986105737479,-0.9194195595328102
66,3.569962812,-8.271389961,-5.401797295,2.08384943,3.451761406,-0.4850330353,0.2626194954,-0.09974187613,3.452790365,-0.1970745921,-0.2716743052,-0.3639122546,0.0,1.0,0.0,0.0,60,-8.61607063686332,-5.417327213551813,1.5871205102642156,-0.2345120411991911,-0.2617341731006727,-0.360663529725469,-0.5087494648052316,0.27580145143341783,-0.4890165656325966
67,3.619962812,-8.240283012,-6.326025008999999,1.63639164,3.5017614060000004,-0.4850330353,0.2626194954,-0.09974187613,3.502790365,-0.14477080109999999,-0.5147151946999999,-0.1007134393,0.0,1.0,0.0,0.0,60,-8.442608333933288,-5.881352826417489,1.6034213868876375,-0.1929953776633421,-0.36249288262651186,-0.20215770292291252,-0.4936109457681483,0.2675449013773983,-0.28461306019982524
68,3.669962812,-8.197212218999999,-6.874280453,1.183848977,3.5517614060000002,-0.4850330353,0.2626194954,-0.09974187613,3.552790365,0.06826218217999999,-0.907566309,0.09750649332999999,0.0,1.0,0.0,0.0,60,-8.329334313148935,-6.388390317384598,1.4646099132371393,-0.07213074294114578,-0.5795878041666775,-0.01943600773193771,-0.4881355490141256,0.2644598614229574,-0.18753940219713108
69,3.719962812,-8.407780647000001,-6.177670002,4.97138834,3.601761406,0.06982803345,-0.5358901024,0.178489089,3.602790365,0.4212555289,-0.8076927662000001,-0.08719844370999999,0.0,1.0,0.0,0.0,60,-8.36554487701062,-6.2807862008452355,2.6247936379433328,0.15612275358127597,-0.6704387362420251,-0.060754481300526186,-0.13197981716138746,-0.23684127459098825,0.004657801238179965
70,3.7699628119999997,-6.279364586,-4.133002758,3.180360317,3.6517614060000003,0.973944664,-0.6238789558,0.005723237991,3.652790365,0.3382566571,-0.396974355,-0.07559234649,0.0,1.0,0.0,0.0,60,-7.4025710746277325,-5.184022751897903,2.8085975003086516,0.2403826989612071,-0.5615217985896412,-0.06980194147172171,0.5739467976632824,-0.4792632625515755,0.0052172493940234755
71,3.819962812,-6.839584351,-4.216751575,2.447857618,3.701761406,0.973944664,-0.6238789558,0.005723237991,3.702790365,0.2560213506,-0.46470204,0.3413109183,0.0,1.0,0.0,0.0,60,-7.142698297262514,-4.690086701187882,2.689250199456048,0.24761755150178938,-0.5229598785109433,0.18087611615845822,0.8292708677338714,-0.5698436518932646,0.005482937983050403
72,3.869962812,-6.839584351,-4.216751575,2.447857618,3.7517614060000004,0.973944664,-0.6238789558,0.005723237991,3.752790365,0.5566345453,-0.4220190942,0.1271325797,0.0,1.0,0.0,0.0,60,-7.0027819194561935,-4.44837859661804,2.6093877987557383,0.3905769594687548,-0.48275661307065093,0.14810573446816166,0.9216181165673812,-0.6036887952415071,0.00560911665680559
73,3.919962812,-8.572885513,-6.113063812,1.8254245519999999,3.8017614060000002,1.6237521169999998,0.2918558121,1.03721118,3.802790365,0.3322245479,0.01786728203,-0.9325346946999999,0.0,1.0,0.0,0.0,60,-7.727536454972526,-5.298448423079747,2.3500211410977063,0.36358159551365254,-0.28336530178129327,-0.510820001650389,1.3697997841513656,-0.04276226397637106,0.5472910795180885
74,3.969962812,-7.493422985,-5.428417206000001,4.07348156,3.851761406,2.029350758,1.447856665,0.028017759320000002,3.852790365,0.3130592108,0.21517094969999997,-1.0590564009999999,0.0,1.0,0.0,0.0,60,-7.6194704650614264,-5.364816850902348,2.9202113511896375,0.34020860841154527,-0.08480546898093883,-0.8451098018779503,1.7908001272313525,0.8908905080327757,0.27462684064882686
75,4.019962812,-5.941977024,-4.872983456,3.2931220530000003,3.9017614060000003,2.029350758,1.447856665,0.028017759320000002,3.902790365,0.4253787696,-0.2938175201,-0.3852155507,0.0,1.0,0.0,0.0,60,-6.845145137475476,-5.113662623655079,3.0435852501156626,0.3796105703374268,-0.16805196872617584,-0.5646870545437763,1.9430702341219876,1.23974760763005,0.14513534774355893
76,4.069962812,-7.339983462999999,-4.018147469,4.346263409,3.951761406,2.029350758,1.447856665,0.028017759320000002,3.952790365,0.3455104828,0.039399649950000004,-0.2846548259,0.0,1.0,0.0,0.0,60,-7.0735608435373845,-4.554238914581546,3.4745637192831946,0.3638349708555259,-0.08542696684136021,-0.3939360467123538,1.9981442639502252,1.3700972189502532,0.08363829626232278
77,4.119962812,-8.486743927000001,-4.573581218999999,3.4677982330000003,4.001761406,0.20154380800000002,-0.2415552139,0.2935681343,4.002790365,0.05993938819,-0.1512610465,-0.06788039953,0.0,1.0,0.0,0.0,60,-7.725881399498162,-4.5641160426820715,3.472325423593281,0.22324486270461247,-0.11164773577547789,-0.19512203647820983,0.8513497950009823,0.36063481875704184,0.19386995516045843
78,4.169962812,-5.925227165,-4.930410862,1.87567389,4.051761406000001,0.20154380800000002,-0.2415552139,0.2935681343,4.052790365,-0.03321481869,0.34062370659999996,-0.5285356045,0.0,1.0,0.0,0.0,60,-6.894705464164731,-4.751164122727495,2.9440887066582007,0.1045998530393423,0.06848548765199171,-0.39842257456778407,0.43656980909652127,-0.016548365014897592,0.2462202821976173
79,4.2199628119999995,-8.37428093,-5.09073019,2.160718918,4.1017614060000005,0.20154380800000002,-0.2415552139,0.2935681343,4.102790365,-0.07788302748999999,0.06566607952,-0.1180462316,0.0,1.0,0.0,0.0,60,-7.577672520216607,-4.924563192655307,2.684918388833024,0.020178461703281345,0.06736255786425908,-0.22746174132511682,0.2865495209235762,-0.15748194916137667,0.27108207569951875
80,4.269962812,-5.03689146,-6.807281494,6.601498604,4.151761406,-1.303068161,1.4486021999999998,0.5121831894,4.152790365,-0.6271874309000001,0.1598129123,-0.055434387179999996,0.0,1.0,0.0,0.0,60,-6.404856532751853,-5.8859713945096725,3.98068107154532,-0.27931006672124786,0.1041842069892016,-0.12256722886026793,-0.7281250325264164,0.848492742775934,0.39768140036891125
81,4.319962812,-9.535398483,-10.28824043,2.158325911,4.201761406,0.4584646225,1.161175251,-0.0946187973,4.202790365,-1.0767710209999999,0.02855710872,-0.15996561939999998,0.0,1.0,0.0,0.0,60,-7.849904162828362,-8.133985639011593,3.3777724924726886,-0.6482365276051467,0.074063019324466,-0.14537107867107776,0.029291258210075943,1.0443421882383768,0.13918042704181322
82,4.369962812,-8.012665749,-7.2215385439999995,2.6847469810000004,4.251761406,0.4584646225,1.161175251,-0.0946187973,4.252790365,-0.3678064048,-0.5017346739999999,-0.4507289231,0.0,1.0,0.0,0.0,60,-7.925034363125435,-7.668045450031881,3.1484917048792562,-0.5185021598216278,-0.1552689367160734,-0.3315645034057395,0.3032384448261253,1.1175208597424904,0.016415237545727906
83,4.419962812,-4.819144726,-6.141777515,-1.990828395,4.301761406000001,0.4584646225,1.161175251,-0.0946187973,4.302790365,0.024815669280000004,1.303318977,-0.9407811165000001,0.0,1.0,0.0,0.0,60,-6.49136615786629,-6.888658268522126,1.4481973577060807,-0.2671490085743541,0.42566569237796154,-0.703037284179672,0.4023214220114651,1.144863893318421,-0.04188741237481631
84,4.4699628119999995,-5.582754135,-6.414559364,-0.8560323119,4.3517614060000005,-0.05911493301,-4.7655324939999995,1.01872468,4.352790365,0.09391776472,1.22994101,-0.22914408149999999,0.0,1.0,0.0,0.0,60,-6.071953905654989,-6.646560141239034,0.6858652581694579,-0.10011000043326762,0.745997006726977,-0.41407860836610394,0.10778033027471834,-2.5571271818708414,0.515027371500186
85,4.519962812,-6.090332031,-7.180860518999999,4.2218365669999995,4.401761406,-1.861465454,-1.967951775,1.704766393,4.402790365,0.058412268760000004,1.6028631930000001,-0.06345175952000001,0.0,1.0,0.0,0.0,60,-6.080437186587183,-6.919400090487636,1.8557071655287207,-0.02677341957838901,1.0872745087867886,-0.2002821888997271,-1.1492159963287025,-2.1880957402100316,1.139745168572527
86,4.569962812,-6.154938221,-7.786543846,-0.8727820516,4.451761406,-1.861465454,-1.967951775,1.704766393,4.452790365,-0.5592306852000001,-0.1005607322,-0.5006656647,0.0,1.0,0.0,0.0,60,-6.114826613365619,-7.362206174756332,0.9530128981774992,-0.2731021878567122,0.6141767829097178,-0.3834424682622257,-1.6038544976010716,-2.0502080347829335,1.4364310872058685
87,4.619962812,-6.499803543,-8.52622509,0.556630373,4.501761406,1.5955686569999998,1.178658009,-2.151426077,4.502790365,-0.8006680608,-0.1382805556,-0.7941014170999999,0.0,1.0,0.0,0.0,60,-6.2925306686779345,-7.956611259878107,0.8218735735602324,-0.5171680689049067,0.31448382601465513,-0.6338437514612225,0.4383807502242476,-0.027799977352431338,-0.44750999887237697
88,4.669962812,-7.095915317999999,-9.687342644,1.724925995,4.551761406000001,0.2337827682,0.026457786559999998,1.49480629,4.552790365,-0.05062396824,-0.5616740584000001,-0.8829033375,0.0,1.0,0.0,0.0,60,-6.663370319198132,-8.840407495532023,1.1206397327703224,-0.3013324684236198,-0.034477282685990984,-0.785709040440409,0.3077830798810445,0.006184504332863036,0.5723771624027452
89,4.7199628119999995,-6.4375901220000005,-7.85593605,0.9107680917000001,4.6017614060000005,0.2337827682,0.026457786559999998,1.49480629,4.602790365,-0.6184828281,-0.9327637553,-0.9595646858,0.0,1.0,0.0,0.0,60,-6.55915094002559,-8.337688144963119,1.0512057302071791,-0.4480545858724707,-0.39225189041863767,-0.891718362340676,0.2605476760394632,0.01888272370036505,1.0567337162952244
90,4.769962812,-6.624230385,-8.289336205,1.186241865,4.651761406,0.2337827682,0.026457786559999998,1.49480629,4.652790365,-0.6440621018,-0.2828986347,-0.8648833631999999,0.0,1.0,0.0,0.0,60,-6.589191392753183,-8.312997275345266,1.0958811293774797,-0.5387328301112059,-0.3486980583496815,-0.8753555916587844,0.24346327192862532,0.02362738264789216,1.286760409645581
91,4.819962812,-4.148855209,-7.7985081670000005,0.07537391037,4.701761406,-1.694523811,-1.2530403140000002,0.9518914223,4.702790365,-0.2991624475,-0.2417428046,-0.6474980712,0.0,1.0,0.0,0.0,60,-5.462740422235111,-8.05027393118852,0.7582561863796565,-0.42790125529251255,-0.3060993160728053,-0.7364183648495658,-0.9935802012635873,-0.7760165174476295,1.110924690743386
92,4.869962812,-4.498207569,-7.863114357000001,0.5327021479999999,4.751761406,-0.7107787132,0.1058177948,0.5855147839,4.752790365,-0.1601183414,0.17050273719999998,-0.34787750240000004,0.0,1.0,0.0,0.0,60,-5.017515302894974,-7.954701083384565,0.6836338143419375,-0.30401781977852294,-0.11627555958088442,-0.4995036919659788,-0.813064170993948,-0.22367746266512278,0.8350382032551734
93,4.919962812,-4.677968502,-8.152646065,0.7552346587000001,4.801761406000001,-0.7107787132,0.1058177948,0.5855147839,4.802790365,-0.08689302206,-0.052838288250000004,0.04634803534,0.0,1.0,0.0,0.0,60,-4.8607816421987575,-8.05578148848738,0.7073222611758097,-0.20357016428691255,-0.09100940500960236,-0.1666679572248273,-0.7477739742602871,-0.017297311047217434,0.7040164261222772
94,4.9699628119999995,-4.677968502,-8.152646065,0.7552346587000001,4.8517614060000005,0.2593793869,0.5274133682,-0.6179800034,4.852790365,-0.3753656447,-0.30015507339999997,-0.36589750649999997,0.0,1.0,0.0,0.0,60,-4.776395711870548,-8.105245286668202,0.7231736144908807,-0.2830472825720673,-0.17430912258117182,-0.28814913991667945,-0.10489430664780675,0.323883540662245,0.009851838393236223
95,4.9699628119999995,-3.914059639,-6.797709942000001,0.8246265054,4.901761406,0.9057559967000001,0.9420423508,-0.37396267060000005,4.902790365,-0.46684002880000003,-0.4127036929,-0.7416449189000001,0.0,1.0,0.0,0.0,60,-4.378344282387085,-7.437553681547303,0.7567383221809582,-0.368074652293292,-0.2692582579453535,-0.564670387824615,0.540217506653015,0.7110688068033351,-0.19168459123247344
96,5.069962812,-3.121736288,-5.77537632,-1.009172916,4.951761406,-0.06376314162999999,0.7460699081000001,0.2201089859,4.952790365,-0.42476791140000003,-0.5050943494,-0.9495620728,0.0,1.0,0.0,0.0,60,-3.7982982607013263,-6.5887644881890495,0.1725036688997399,-0.39430244857786345,-0.363188387891782,-0.7993599570644261,0.1546884567714234,0.7329918313004472,0.024543314022043572
97,5.119962812,-2.6093730930000003,-12.94816113,-1.346860051,5.001761406,-0.06376314162999999,0.7460699081000001,0.2201089859,5.002790365,-0.2577775419,0.1940203607,-2.111698866,0.0,1.0,0.0,0.0,60,-3.2494944038671916,-9.836183967156089,-0.33016312249652024,-0.3311424275275172,-0.1412601416935774,-1.5995649634823152,0.015247834929076082,0.7411833163682896,0.127232520260826
98,5.169962812,1.731207132,-22.86222458,-3.15433836,5.051761406000001,0.9841272831,5.665553093,0.7471555471,5.052790365,-0.2086806893,0.741797626,-3.143419981,0.0,1.0,0.0,0.0,60,-0.9504193348338639,-16.4879184682218,-1.2645141841641967,-0.27448839897731897,0.21044909146622956,-2.540938038603875,0.6336967441156484,3.825574238817581,0.4527467219506548
99,5.2199628119999995,0.2395813614,-13.422239300000001,-1.4090734719999998,5.1017614060000005,-0.6887991428,5.733929157,-0.1845755875,5.102790365,-0.67750597,0.30916506050000003,-2.8520457739999996,0.0,1.0,0.0,0.0,60,-0.40111901780319337,-14.922432494665959,-1.3123402263655306,-0.46093495209663815,0.24976624493688304,-2.7306374874984973,-0.21047034007328347,5.0208769586154265,0.11809636410339824
100,5.269962812,0.02662015148,-6.213562012000001,1.2149556879999999,5.151761406,-0.6887991428,5.733929157,-0.1845755875,5.152790365,-1.13205266,-0.5055524707,-3.049273252,0.0,1.0,0.0,0.0,60,-0.20367605660828259,-10.475256565804287,-0.4762088174246055,-0.7714116964625477,-0.05106635738602461,-2.9249271886213735,-0.5157941106018564,5.467498928228477,-0.04083307460345606
101,5.319962812,3.402294636,-6.874280453,1.315454245,5.201761406,-0.6887991428,5.733929157,-0.1845755875,5.202790365,-1.564227104,-1.814674497,-2.5374596119999997,0.0,1.0,0.0,0.0,60,1.4608278808896444,-8.636421745395051,0.11654557757007444,-1.138189005090978,-0.753486163807338,-2.6886669568796786,-0.626225572093099,5.634378146720322,-0.11631055698285471
102,5.369962812000001,5.633601665,-11.50439262,-1.899901152,5.251761406,-1.3665533069999998,-6.408554077000001,0.18663477899999997,5.252790365,-1.0950200559999999,-2.951079369,-0.1648524106,0.0,1.0,0.0,0.0,60,3.3869662184646154,-10.100948182037301,-0.5505763195919369,-1.1182179110712618,-1.6287559922516328,-1.1497588123014213,-1.098786818695893,-1.9087415855894774,0.04276243258903349
103,5.4199628120000005,0.5174478889,-10.63071251,-1.883151412,5.301761406000001,-2.54031229,0.9875221251999999,2.234692574,5.302790365,0.2573957741,-2.445832491,1.181836724,0.0,1.0,0.0,0.0,60,2.0624062134551737,-10.371471801390905,-0.9914459001662885,-0.4818227549563623,-1.9541858330699304,0.2719428600082685,-2.018932103124847,-0.09465980375714356,1.1937188562978351
104,5.469962812,1.398305774,-9.993923187,-2.041077614,5.3517614060000005,-2.54031229,0.9875221251999999,2.234692574,5.352790365,0.3254288733,0.9948410987999999,0.130186826,0.0,1.0,0.0,0.0,60,1.755859685180876,-10.178676982356205,-1.3387064005264921,-0.10836687012712864,-0.7796307374755398,0.18550643162233338,-2.351736156893256,0.5831674654539023,1.7403217632027737
105,5.519962812,1.374377489,-10.41745281,-2.462513685,5.401761406,-2.54031229,0.9875221251999999,2.234692574,5.402790365,-0.021456010640000002,2.52638793,-0.47035238149999997,0.0,1.0,0.0,0.0,60,1.579768787154357,-10.300607619048016,-1.710507171132941,-0.06815961529477399,0.5371090419988955,-0.2144066565352844,-2.4721068636490084,0.8364359848158196,1.9999099905955773
106,5.569962812000001,1.2355937959999999,-9.555737495,-2.2468605040000003,5.451761406,0.8849240541,-2.096396446,-0.02161979675,5.452790365,0.3044309914,1.583010674,0.2941229641,0.0,1.0,0.0,0.0,60,1.420898769284436,-9.920240441650838,-1.887954483717739,0.10421062198415221,0.9536766485972501,0.09567174291045338,-0.32926844020724877,-1.0005507033861092,0.9384287640770153
107,5.619962812000001,1.6761722559999999,-9.620343208,-1.93340075,5.501761406,-1.020848513,-0.6896085739,0.035640120510000005,5.502790365,0.40384638310000004,1.093263865,0.10949437320000001,0.0,1.0,0.0,0.0,60,1.5387321519729078,-9.767098221905602,-1.9029899414110132,0.24283002438000573,1.0092722330144726,0.10410015868554663,-0.7707133921320388,-0.805791348369393,0.4643851943696358
108,5.6699628120000005,1.8005990980000002,-11.61236858,6.343073845,5.551761406000001,-1.020848513,-0.6896085739,0.035640120510000005,5.552790365,0.6680378318,-0.003894151188,-0.033672954889999995,0.0,1.0,0.0,0.0,60,1.65960905317063,-10.70938367111397,0.8251405058324741,0.43954236585026085,0.6057426055309466,0.02009233533351909,-0.9303780364032384,-0.7330199865232121,0.2392562599772383
109,5.719962812,1.922633052,-10.59721375,1.198205948,5.6017614060000005,-0.5261867046,-0.025352478030000004,-1.094764233,5.602790365,0.7711182833,-0.916729033,-0.1190388575,0.0,1.0,0.0,0.0,60,1.7810200458945402,-10.652104211531713,0.9485655990195534,0.5929381265947808,-0.0006359940030975508,-0.06474358343808152,-0.6723772204016133,-0.2897707306094498,-0.4612220201656315
110,5.769962812,1.46769762,-10.02502918,-0.503988266,5.651761406,-0.1289404631,0.4378185272,-1.063884974,5.652790365,1.8315491680000002,-2.924736738,-0.2964136302,0.0,1.0,0.0,0.0,60,1.6363914686136536,-10.331888980354055,0.46800220197539605,1.165952247717113,-1.1652633468543223,-0.2060055166527927,-0.32549415830158646,0.16595656119453378,-0.7776731627180902
111,5.819962812000001,1.2667005059999998,-10.13988495,-1.8735800980000001,5.701761406,-0.1289404631,0.4378185272,-1.063884974,5.702790365,2.548073053,-2.54540062,-0.6149705052000001,0.0,1.0,0.0,0.0,60,1.465743364379777,-10.233842315249461,-0.3066876540867964,1.8053577692975284,-1.7149522115788978,-0.4553738994038006,-0.2000312654257807,0.3362379612957064,-0.9279595774332368
112,5.869962812000001,2.315355062,-9.186943054,-0.3795614839,5.751761406,-0.1289404631,0.4378185272,-1.063884974,5.752790365,0.9730033278,2.217070103,-0.3208475113,0.0,1.0,0.0,0.0,60,1.8579212652784232,-9.699244263435268,-0.330797255826885,1.4202886612985337,-0.1488841654279096,-0.3733457826278753,-0.15465304086367487,0.39986319450400676,-0.9993323848301603
113,5.9199628120000005,1.470090389,-9.737591743,1.411167145,5.801761406000001,-0.42840850350000004,-0.43514156340000004,-1.478840828,5.802790365,0.1903552711,2.8602159019999998,0.2984752357,0.0,1.0,0.0,0.0,60,1.6788998379568694,-9.718826365439599,0.2455148177203602,0.8512890502242834,1.0495971978850824,0.03630033749220052,-0.3293948702951947,-0.12314405563660868,-1.2511165601144898
114,5.969962812,2.741576433,-10.43659496,3.539582968,5.8517614060000005,-0.08518707752,-0.49161338810000005,-3.3079490660000004,5.852790365,0.5936672090999999,-0.12942326070000001,0.4252260625,0.0,1.0,0.0,0.0,60,2.169427778401883,-10.085354175922213,1.3353254047207987,0.7321063948506755,0.5800102733069714,0.27344968223222854,-0.17351371981670732,-0.35393571339058016,-2.3311348239691796
115,6.019962812,4.024727821,-8.492725372,2.4741785530000002,5.901761406,-0.08518707752,-0.49161338810000005,-3.3079490660000004,5.902790365,1.0019421579999999,-1.450991273,-0.01061347127,0.0,1.0,0.0,0.0,60,3.0258280351350564,-9.27207988359179,1.7121039536446634,0.8569395324536321,-0.22890848885150084,0.10024079842769629,-0.11713362456085913,-0.4401704579863029,-2.8440483542930326
116,6.069962812000001,4.024727821,-8.492725372,2.4741785530000002,5.951761406,0.016438364980000002,0.09895133972,-1.281888366,5.952790365,0.9546779394,-0.6815528273999999,0.1766875684,0.0,1.0,0.0,0.0,60,3.486916815150328,-8.874103288419208,1.9642289638834902,0.9021558961943472,-0.40919023146365374,0.1468545867302517,-0.03187280972233772,-0.10249021576510975,-2.023776740666921
117,6.119962812000001,1.199701428,-8.63390255,0.8102695942,6.001761406,-0.42212998869999996,-1.409051895,0.7796120644,6.002790365,0.6965186,0.4953207672,0.3370349705,0.0,1.0,0.0,0.0,60,2.43114588912106,-8.751445023466895,1.5824526675906674,0.8070226617469666,-0.04893648437726744,0.2628179969507916,-0.28097926675285845,-0.9208582844362275,-0.5517506514183832
118,6.1699628120000005,0.23479571940000002,-8.753543854,2.510071039,6.051761406000001,1.8790575269999998,-0.41257762909999995,0.1537601948,6.052790365,0.3917821646,0.7485933304000001,0.07307260484,0.0,1.0,0.0,0.0,60,1.417318041497663,-8.752516789039193,1.8893462338528484,0.6149214607575881,0.26870819282008185,0.14711982501167267,1.0978015518224198,-0.6024954663428548,-0.18129530466565752
119,6.219962812,0.7447660565,-9.107980728,3.448655605,6.1017614060000005,1.8790575269999998,-0.41257762909999995,0.1537601948,6.102790365,0.26785650850000003,0.4607315361,-0.05092938989,0.0,1.0,0.0,0.0,60,1.1068703083801061,-8.934034091045774,2.4052286576606887,0.4543600641569996,0.3451883340981764,0.026358356903999694,1.5964878500027673,-0.4835399695357606,-0.0053616504956641164
120,6.269962812,0.7447660565,-9.107980728,3.448655605,6.151761406,0.1194247007,0.7186203003,-2.49895215,6.152790365,0.1459161341,-0.01687465608,-0.04672981426,0.0,1.0,0.0,0.0,60,0.9397242042118072,-9.022859765850384,2.7504363711997764,0.3116657706053556,0.2009838422884726,-0.01820750949146955,0.6536583832501388,0.26943602370045117,-1.3147163376144184
121,6.319962812000001,0.9194421172,-9.129515648,3.244966507,6.201761406,-0.841633141,0.6136798859,-1.7891670469999998,6.202790365,-0.07490514219,-0.2088334113,-0.025044737379999998,0.0,1.0,0.0,0.0,60,0.9303620611030132,-9.077323484446127,2.914046883488023,0.13282787516717134,0.037759512830001535,-0.02237654231721696,-0.30080650282311505,0.48505399955086836,-1.5638447568898288
122,6.369962812000001,1.29302156,-8.962018013,2.8262226580000003,6.251761406,-0.841633141,0.6136798859,-1.7891670469999998,6.252790365,-0.23067119719999998,-0.1588966399,0.004275931045,0.0,1.0,0.0,0.0,60,1.097764465311835,-9.018442861742738,2.8849910879789404,-0.03533637863513028,-0.04056580994836416,-0.006125067584006525,-0.6460234904447126,0.5656191346110304,-1.6821588088934383
123,6.4199628120000005,1.494018674,-8.717651367,1.870888233,6.301761406000001,-0.10995042320000001,0.4733457565,0.8542957306,6.302790365,-0.3548259139,-0.1864611208,0.020310672,0.0,1.0,0.0,0.0,60,1.2806740745977265,-8.864843988408742,2.5494849669385125,-0.1831406603631649,-0.09867381804575207,0.00999425267789509,-0.30384077175480223,0.5078234810255484,-0.35029672482702034
124,6.469962812,3.201297522,-12.72802162,4.46620369,6.3517614060000005,-0.10995042320000001,0.4733457565,0.8542957306,6.352790365,-0.4780643284,-0.35375690460000003,0.002290677279,0.0,1.0,0.0,0.0,60,2.1672273948246814,-10.837571750676931,3.183612817695769,-0.31958012429287747,-0.20026974986932197,0.0052969602636660515,-0.18007792925958518,0.4862282748807928,0.2822204337299409
125,6.519962812,2.049452543,-10.76231766,4.018446445,6.401761406,-0.3215106726,0.3630838394,0.22807979579999998,6.402790365,-0.6136724353,-0.4910448492,-0.09025268257,0.0,1.0,0.0,0.0,60,2.112862919654634,-10.79914332387803,3.459809448878564,-0.45563498052115464,-0.316081298028304,-0.05296489727940507,-0.2703563699764371,0.4090964598205214,0.25379182927685123
126,6.569962812000001,1.92741859,-6.538986206000001,3.61615324,6.451761406,-0.3215106726,0.3630838394,0.22807979579999998,6.452790365,-0.8389223814,-0.5883222818,-0.2326564491,0.0,1.0,0.0,0.0,60,2.027262440918591,-8.62369838820582,3.5115342800713054,-0.6329538367848266,-0.42451097403723254,-0.1625326913868513,-0.30300885599890837,0.3802763437181552,0.24029074660055266
127,6.619962812000001,1.92741859,-6.538986206000001,3.61615324,6.501761406,-0.3215106726,0.3630838394,0.22807979579999998,6.502790365,0.03359659761,-0.18951536719999998,0.19447849690000002,0.0,1.0,0.0,0.0,60,1.9811748551211679,-7.559142214908621,3.546146451149831,-0.3245900335448808,-0.3309155970232679,0.05515660998210967,-0.3148188167711779,0.36950777705724064,0.23387892171716695
128,6.6699628120000005,1.034596682,-11.40628624,0.475274384,6.551761406000001,-0.3369936943,-3.751615524,4.906009674,6.552790365,0.08612946421,-0.1482831687,-0.00809372589,0.0,1.0,0.0,0.0,60,1.544237555460584,-9.52368243112601,2.5301781294131747,-0.13458036607412346,-0.258175722381288,0.016589411309560195,-0.3289733422370031,-2.2117677724370304,2.687159161515086
129,6.719962812,-0.1624128371,-10.21166992,1.767996788,6.6017614060000005,-0.166264534,-0.16498851779999998,1.838844299,6.602790365,-0.08536590636,0.5083776116,-0.1311794519,0.0,1.0,0.0,0.0,60,0.7564534771176763,-9.875002549413203,2.2780178044819497,-0.11181245956713796,0.04713146718369127,-0.07351336882724749,-0.2251141003450578,-0.9297626347656998,2.24171912593606
130,6.769962812,2.911466837,-8.988339424,-1.4090734719999998,6.651761406,-0.166264534,-0.16498851779999998,1.838844299,6.652790365,-0.39346200229999995,-0.4040754735,-0.3872008026,0.0,1.0,0.0,0.0,60,1.7512003923785544,-9.422228918725377,1.0581793174348815,-0.24211096315978076,-0.13257778052716235,-0.2647858010007058,-0.18754962296537508,-0.45074451646203223,2.0301743504051526
131,6.819962812000001,2.911466837,-8.988339424,-1.4090734719999998,6.701761406,-0.166264534,-0.16498851779999998,1.838844299,6.702790365,-0.10201149429999999,0.7359182239000001,0.051082100719999995,0.0,1.0,0.0,0.0,60,2.286775478882176,-9.200663685907397,0.24191259547082478,-0.1772972554367896,0.21333171132411854,-0.07218381791304962,-0.17396306162424008,-0.27176055538370064,1.9297092182213107
132,6.869962812000001,1.683350682,-9.864411354,0.11126625539999999,6.751761406,-3.493560553,-2.48943615,3.200413942,6.752790365,-0.1666085869,-0.1519482583,0.1482068151,0.0,1.0,0.0,0.0,60,2.0082366232874787,-9.53960576323513,0.19868951747117938,-0.17235239558941606,0.06784594278688683,0.062200438118235835,-2.2929072203780825,-1.6608070287515941,2.5969411420538315
133,6.9199628120000005,1.1494522090000001,-10.2786684,-0.09720841795,6.801761406000001,-3.493560553,-2.48943615,3.200413942,6.802790365,-0.543424964,-0.7040014862999999,-0.050242185589999995,0.0,1.0,0.0,0.0,60,1.6118246276833854,-9.91700735517529,0.10079454748031356,-0.3440203483101866,-0.23956980885114432,-0.006361996343683632,-3.0593005472534314,-2.1798208831871904,2.9138175255848417
134,6.969962812,1.575673699,-10.08245754,0.8102695942,6.8517614060000005,2.7362551689999997,0.1247081757,1.6121320719999999,6.852790365,-0.5523586273,0.8533536195999999,-0.2638860047,0.0,1.0,0.0,0.0,60,1.5951374808260776,-10.001494326428169,0.3355175045966379,-0.4404031286077811,0.19572590448620025,-0.16338850783601255,0.64008137025378,-0.7363735321332596,2.2303179897463994
135,7.019962812,3.2730822560000004,-9.390632629,-0.6332007050999999,6.901761406,0.09968388081,-0.1184654236,-0.06967937946000001,6.902790365,-0.8310576677,0.2193705291,-0.1430146098,0.0,1.0,0.0,0.0,60,2.3696711429021806,-9.689558416917174,0.01502645443957129,-0.6211302172434566,0.2051432190489829,-0.15096542482897618,0.29513831411985175,-0.34934529351921345,1.022616750943345
136,7.069962812000001,2.607279301,-9.498309135,1.13120687,6.951761406,-0.6677927971000001,-0.3847932816,-1.630923748,6.952790365,-0.6045860648,-0.2922140658,0.042224816979999996,0.0,1.0,0.0,0.0,60,2.479350268984541,-9.591897164212122,0.3843039491849299,-0.6134764561763337,0.007052951737893137,-0.033166739104346005,-0.31951369080729003,-0.371548226580216,-0.3707257766218113
137,7.119962812000001,1.470090389,-10.06092167,0.1639083475,7.001761406,-0.6677927971000001,-0.3847932816,-1.630923748,7.002790365,-0.4614187479,-0.5235724449,0.05413633958,0.0,1.0,0.0,0.0,60,2.0134793046632113,-9.831404054554723,0.3113881960437909,-0.5431305516269098,-0.20428752696680624,0.020066736002660755,-0.5418249739907743,-0.3798442988058099,-1.0324407296755673
138,7.1699628120000005,1.470090389,-10.06092167,0.1639083475,7.051761406000001,1.020244598,0.2885150909,-0.5556032061999999,7.052790365,-0.641618669,-0.6039752364000001,-0.1422510594,0.0,1.0,0.0,0.0,60,1.7626528098150351,-9.948606992896458,0.26259591458353126,-0.5886937511840247,-0.3634774043832495,-0.07890732599362599,0.4552652470259204,0.038784221837359134,-0.7820590224746453
139,7.219962812,0.8404789567000001,-10.43180943,-0.6427719593,7.1017614060000005,1.4482822419999999,0.3761291504,0.43690633770000004,7.102790365,-0.3998758793,0.1642415524,-0.23051849010000003,0.0,1.0,0.0,0.0,60,1.3369804623353785,-10.195353827701307,-0.036936289715965076,-0.5013416258338788,-0.15329451897763957,-0.17135296767328623,1.0891214800140716,0.250081033931127,-0.1419948227087222
140,7.269962812,2.167000055,-9.086444855,-0.11156535890000001,7.151761406,0.05245471001,0.09523773193,1.195660949,7.152790365,-0.4152234197,0.34138727189999996,-0.130034104,0.0,1.0,0.0,0.0,60,1.7201147134348025,-9.629090579037207,-0.061626595450503745,-0.46150107332403917,0.04373013748602639,-0.1461585904001477,0.42740300274242493,0.15309455713283932,0.5603922990826294
141,7.319962812000001,2.3488545419999998,-9.012267113,-0.35802608729999996,7.201761406,0.05245471001,0.09523773193,1.195660949,7.202790365,-0.48631078,-0.06841489673,0.1682120711,0.0,1.0,0.0,0.0,60,2.010338902486362,-9.314110298060342,-0.15968750052864605,-0.47297869771371726,-0.0009356198718379477,0.04553044318741045,0.18806841567649885,0.11685579470384766,0.8939643046209393
142,7.369962812000001,2.2866411209999997,-10.077672,-1.14795661,7.251761406,0.05245471001,0.09523773193,1.195660949,7.252790365,-0.4364503622,-0.23647424579999998,0.37070792909999994,0.0,1.0,0.0,0.0,60,2.137879076752992,-9.704022313472239,-0.48664677670401957,-0.4560797267100728,-0.0947472735699314,0.24380899035165074,0.10150434570796067,0.1033152687899495,1.0523816209792876
143,7.4199628120000005,2.063809633,-9.756733894,-1.135992527,7.301761406000001,-0.46052336689999995,0.05912208557,0.6996614932999999,7.302790365,-0.317258805,0.1093416587,0.1648524106,0.0,1.0,0.0,0.0,60,2.103688870878281,-9.730939429084716,-0.7014765376781386,-0.39185750860400104,-0.01346158142988886,0.1956648333674443,-0.25724557562631867,0.07563476157015792,0.8671724808080722
144,7.469962812,1.3049856420000001,-9.778269768,-0.7746763229000001,7.3517614060000005,-0.46052336689999995,0.05912208557,0.6996614932999999,7.352790365,-0.1458397806,0.2089861184,0.011987877079999999,0.0,1.0,0.0,0.0,60,1.735010148267427,-9.755108618795278,-0.7256939786379932,-0.278043221842699,0.07513614433458508,0.08366691956817542,-0.3870005503347334,0.06529200701131074,0.7792144553628242
145,7.519962812,1.450947881,-9.680164337,-0.8153542876000001,7.401761406,-0.46052336689999995,0.05912208557,0.6996614932999999,7.402790365,-0.18837001920000002,-0.09872818738,-0.06223006546,0.0,1.0,0.0,0.0,60,1.6038879614496582,-9.716838396961707,-0.7553572246658419,-0.2365580342418271,0.0058884767211832,-0.005294473757604584,-0.43393116260905196,0.061427461791269816,0.7374421420035869
146,7.569962812000001,1.580459356,-9.771091461000001,-0.9541380405,7.451761406,0.241489172,-0.10286617279999999,0.02922558784,7.452790365,-0.1691283286,-0.24594238399999999,-0.04840964451,0.0,1.0,0.0,0.0,60,1.5930733961536068,-9.744542669489162,-0.8211219349777981,-0.20536327474299418,-0.0944121402376761,-0.03158415796955082,-0.002801190804708198,-0.0414782536831242,0.3655660602095146
147,7.619962812000001,1.6450655459999999,-9.66580677,-1.1168500190000001,7.501761406,-0.3722412586,-0.1059999466,0.3889161348,7.502790365,-0.1305686086,-0.081242688,0.035429142420000004,0.0,1.0,0.0,0.0,60,1.617072797585429,-9.704336261989237,-0.918960711110448,-0.1707612903905955,-0.08916693645041182,0.009277526542029228,-0.23861980310279335,-0.08189157212688677,0.37782690642960204
148,7.6699628120000005,1.570888042,-9.670592308,-1.176670551,7.551761406000001,-0.3722412586,-0.1059999466,0.3889161348,7.552790365,-0.23914669449999998,0.27388864760000003,0.042072106150000003,0.0,1.0,0.0,0.0,60,1.5957540700267696,-9.687104945939494,-1.004221519150984,-0.20239818119691255,0.05543289123268297,0.029274180311413885,-0.3239121927448806,-0.09699191079674714,0.3836497282558346
149,7.719962812,1.38873446,-9.958030701,-1.088136077,7.6017614060000005,-0.3722412586,-0.1059999466,0.3889161348,7.602790365,-0.3282540441,0.4785988331,0.06658235192,0.0,1.0,0.0,0.0,60,1.5001945146034203,-9.825452909359763,-1.031983838964226,-0.26062242129718227,0.22397381160023278,0.05202301866642805,-0.3547612918043813,-0.10263411581046764,0.386415055657503
150,7.769962812,1.022632599,-9.897911072000001,-0.8775677085,7.651761406,-0.35177719590000006,-0.09432697296,0.53627491,7.652790365,-0.40460994840000003,0.41621604560000003,0.01672194339,0.0,1.0,0.0,0.0,60,1.2797535413017513,-9.862453596921252,-0.9808967557203542,-0.32723484728067437,0.3005411338972955,0.030498017025868,-0.3528565028839301,-0.09743091679058692,0.46510468118783227
151,7.819962812000001,0.5437689424000001,-10.63549805,-0.5877370834000001,7.701761406,-0.35177719590000006,-0.09432697296,0.53627491,7.702790365,-0.4431696832,0.22051586210000002,-0.015423893000000001,0.0,1.0,0.0,0.0,60,0.9400255270194264,-10.2572079656429,-0.8508236808104683,-0.38086935877865224,0.26866821685405995,0.002496909950862339,-0.35216756659851217,-0.09548675406422681,0.5024753210940233
152,7.869962812000001,0.23001007739999998,-10.1709919,-0.5781657696,7.751761406,-0.35177719590000006,-0.09432697296,0.53627491,7.752790365,-0.4278984964,0.1294996142,0.020692450930000002,0.0,1.0,0.0,0.0,60,0.6122847846600821,-10.21318181744058,-0.7606174480437845,-0.40262627766786857,0.21323936010715422,0.013591729196584204,-0.35191838769985867,-0.09476032236478077,0.5202230828553233
153,7.9199628120000005,1.27627182,-10.17577744,-1.217647672,7.801761406000001,-0.6659514904,-0.2804965973,0.9776113629000001,7.802790365,-0.3007659316,0.1259872466,0.1253000498,0.0,1.0,0.0,0.0,60,0.9187789658856356,-10.194081307425753,-0.9118214771144899,-0.35550299623258963,0.1784880957575707,0.08170641877077743,-0.5523699817367963,-0.2110966874916748,0.7603922238552467
154,7.969962812,1.534995675,-10.74796104,-1.421037555,7.8517614060000005,-0.7565844059000001,-0.6146850586,1.166306615,7.852790365,0.06368082762,0.02382304333,0.2699944973,0.0,1.0,0.0,0.0,60,1.2032225252813966,-10.476919436455898,-1.0802906912264487,-0.1615775083644267,0.11688722549250316,0.1965159866910195,-0.6827228219195602,-0.4638852400799792,0.9735330384692953
155,8.019962812000001,1.752742529,-10.66181946,-1.660319805,7.901761406,-0.7565844059000001,-0.6146850586,1.166306615,7.902790365,0.3113794029,-0.01504211407,0.2189123929,0.0,1.0,0.0,0.0,60,1.4568791098219465,-10.57133844598208,-1.2721877134874942,0.057224827351821744,0.06434166330400544,0.21017230383395136,-0.729869674016914,-0.558339071216342,1.0747561486133865
156,8.069962812,1.752742529,-10.66181946,-1.660319805,7.951761406,-0.7565844059000001,-0.6146850586,1.166306615,7.952790365,0.180199936,0.4537831545,0.09888090193,0.0,1.0,0.0,0.0,60,1.593448668493953,-10.617542483519186,-1.400597461973847,0.11411635462368885,0.2194506190631182,0.1423118324468029,-0.746922050164401,-0.5936315167206535,1.1228282086071344
157,8.119962812,2.77746892,-9.627521515,-1.016351461,8.001761406,0.1237848997,-0.8228788376,0.106749773,8.002790365,0.01557660475,1.263690233,0.3329881132,0.0,1.0,0.0,0.0,60,2.139988432242941,-10.111989274367016,-1.2734733891395678,0.06852926852762482,0.6353562680055247,0.2585776182202756,-0.19113797982354896,-0.737221130732355,0.5892975177460839
158,8.169962812,3.5985062119999998,-9.881160736,2.321038008,8.051761406,0.1314610243,-1.087852478,-0.058846712110000005,8.052790365,0.09590301662999999,1.091354966,0.3478011489,0.0,1.0,0.0,0.0,60,2.8132353315691496,-9.994116914092894,-0.0842640598292499,0.08119308605321737,0.8169740039171653,0.3129820982316316,0.014781345405832091,-0.9568399233470948,0.24896469832543577
159,8.219962812,1.8053846359999999,-11.41585732,2.533999205,8.101761406,0.1314610243,-1.087852478,-0.058846712110000005,8.102790365,0.5741963983,-0.8671740294,0.0787229389,0.0,1.0,0.0,0.0,60,2.348014841881381,-10.720127215964649,0.7819630172078131,0.3092694153395573,0.14620201711640513,0.17014144111210588,0.08925956894867611,-1.0388999539125938,0.08733659097187232
160,8.269962812000001,2.116750717,-10.97767162,-2.115255117,8.151761406,0.1314610243,-1.087852478,-0.058846712110000005,8.152790365,2.266319752,-4.513092041,-0.5397599339,0.0,1.0,0.0,0.0,60,2.241264100116078,-10.851642007790526,-0.17655358055196912,1.2146524947317299,-1.7095279251017388,-0.2627243609805906,0.11619733098688613,-1.0695614858163016,0.010577478726495657
161,8.319962812,1.8723837140000001,-10.97288609,-3.173480988,8.201761406000001,1.9447872640000001,0.3988208771,2.437503815,8.202790365,2.035953999,-0.6098546386,-0.9016105533,0.0,1.0,0.0,0.0,60,2.070990155040585,-10.913555173798448,-1.1680580266817349,1.5946082224001659,-1.2715438401735502,-0.6522883113889947,1.283411117470316,-0.14983664055396184,1.2849276069802982
162,8.369962812,1.71924305,-8.061718941,-1.449751377,8.251761406,1.9447872640000001,0.3988208771,2.437503815,8.252790365,0.9152782559,3.744112015,-0.2252499312,0.0,1.0,0.0,0.0,60,1.908624874809525,-9.457267877579072,-1.2612535471132569,1.2803322707202696,0.7261198903730053,-0.39189959057258567,1.7055764932317485,0.19381632290837808,1.8901316530845178
163,8.419962812,-0.6939185858,-10.38156033,4.846662045,8.301761406,1.9447872640000001,0.3988208771,2.437503815,8.302790365,0.44507858159999997,2.705366135,0.2521272004,0.0,1.0,0.0,0.0,60,0.7072995709713281,-9.929256883985397,0.7594912502268221,0.8939218943033744,1.5144252586734117,0.0007988647651094305,1.8582679766220724,0.32222142135144843,2.1775502590863143
164,8.469962812,2.296212435,-10.22363377,2.311466694,8.351761406,0.8731608391,-1.353094101,-5.072455406,8.352790365,0.6388698815999999,-0.7159129976999999,0.1154501289,0.0,1.0,0.0,0.0,60,1.4407364022023357,-10.079580141983934,1.2729473149522978,0.7759281092971971,0.6261135462059496,0.0707080284317498,1.2294607129353934,-0.7271165089149665,-1.6293414097902907
165,8.519962812000001,3.655933857,-8.708079338,2.55792737,8.401761406,0.5872601271,0.7076892853,-4.50338316,8.402790365,0.8335774541,-1.701438665,-0.10208784789999999,0.0,1.0,0.0,0.0,60,2.463264093172485,-9.379224639682354,1.6980705377784981,0.8025982160097154,-0.3009170891745434,-0.03465509415027761,0.8195353578664718,0.17157757131585172,-3.1384665192920176
166,8.569962812,0.6562315822,-9.582057953,1.351346612,8.451761406000001,0.5872601271,0.7076892853,-4.50338316,8.452790365,0.7653152347,0.40224292869999995,0.40270105,0.0,1.0,0.0,0.0,60,1.6291439667626144,-9.482801266501403,1.5833602804631177,0.7853501259455516,-0.020858547442570097,0.2320249332553197,0.6712709237406617,0.5073724403011406,-3.8551679988135215
167,8.619962812,0.6562315822,-9.582057953,1.351346612,8.501761406,0.5872601271,0.7076892853,-4.50338316,8.502790365,0.5415924788,0.3330644667,0.49066305159999996,0.0,1.0,0.0,0.0,60,1.1800508838861328,-9.533486593296608,1.5066008022955246,0.672581412164107,0.12010390876165386,0.3897307787211308,0.617645691354266,0.6328413807529203,-4.195538063239731
168,8.669962812,1.996810555,-7.937291622,2.55792737,8.551761406,2.706622124,0.647726059,-0.5751912593999999,8.552790365,0.48195847869999997,0.24937839809999998,0.2642678022,0.0,1.0,0.0,0.0,60,1.5570643998843277,-8.718391241115159,1.8544220287458155,0.5843942177408072,0.17159208219828825,0.31322912108809864,1.951067716515205,0.6421644349564539,-2.2945370540883085
169,8.719962812,1.9322042469999998,-8.356334686,2.859722137,8.601761406,1.034045458,0.2948970795,-1.123155117,8.602790365,0.6186355352,-0.10300412029999999,0.24678228800000002,0.0,1.0,0.0,0.0,60,1.7302276907447987,-8.533507426537204,2.187015846383502,0.6002351539208389,0.06222435639698372,0.2727128427274614,1.36571995560407,0.4246526867476603,-1.6794583433778396
170,8.769962812000001,0.9122636318,-9.088837624,3.427120209,8.651761406,1.034045458,0.2948970795,-1.123155117,8.652790365,0.5336514115,-0.3774272501,0.08269345015,0.0,1.0,0.0,0.0,60,1.3526582335976038,-8.817086231591952,2.597292380299863,0.569431759343299,-0.11288256757656485,0.15684759768135664,1.1540076195283766,0.3433799482271465,-1.3873501416039509
171,8.819962812,0.9122636318,-9.088837624,3.427120209,8.701761406000001,1.034045458,0.2948970795,-1.123155117,8.702790365,0.09483403712999999,-0.038101598619999996,0.034589227289999996,0.0,1.0,0.0,0.0,60,1.1493735673468903,-8.955855805846422,2.8718328911910898,0.3498703412119455,-0.08309838107350279,0.08229996413447012,1.077434142631739,0.3130125860914548,-1.248624479249267
172,8.869962812,0.5246263742,-8.650651932,2.495713949,8.751761406,1.148175716,1.338335991,-1.001864433,8.752790365,-0.036803547289999995,-0.1064401343,-0.05764871091,0.0,1.0,0.0,0.0,60,0.8609923652876028,-8.80000375535627,2.7473975770811547,0.1709848064948857,-0.09239506634644468,-0.003034418360913671,1.1225894498414977,0.9552263811276023,-1.1190537166112904
173,8.919962812,1.5637096169999998,-8.344370842,1.8062820430000002,8.801761406,1.148175716,1.338335991,-1.001864433,8.802790365,-0.09422318637,-0.22112670539999998,-0.0141258426,0.0,1.0,0.0,0.0,60,1.1853642838753644,-8.567335267665266,2.436038605311745,0.04829259730803066,-0.14366703032574762,-0.009797468016440398,1.1389215112484004,1.1951880120190852,-1.0575190189903432
174,8.969962812,2.770290375,-13.77159119,8.495417595,8.851761406,1.148175716,1.338335991,-1.001864433,8.852790365,-0.3791070879,-0.38361206649999996,-0.01038440317,0.0,1.0,0.0,0.0,60,1.9169608341434585,-11.224883303923304,4.440725537315876,-0.14943376459636742,-0.23923369398193925,-0.010155354568828837,1.1448285960692337,1.2848490948939233,-1.0282954585650566
175,9.019962812000001,0.7112665176,-9.934102057999999,2.921935558,8.901761406,1.148175716,1.338335991,-1.001864433,8.902790365,-0.7052994967,-0.69522053,-0.09704835713,0.0,1.0,0.0,0.0,60,1.360416394811049,-10.565747162708425,3.93824856259941,-0.4065919065487689,-0.4208467053866592,-0.06313878377585244,1.1469651084304824,1.3183507416047848,-1.0144168418341981
176,9.069962812,3.6607196330000003,-2.59591341,-3.470490217,8.951761406000001,-0.1539052725,1.040090561,-1.01216507,8.952790365,-0.3545968235,-0.5542675257,-0.2418191582,0.0,1.0,0.0,0.0,60,2.422228629077172,-6.4959595948895155,1.4871389950990928,-0.38253761036123285,-0.4739863029375744,-0.17209000757815887,0.31660187842138954,1.1440618042701063,-1.0132344630292442
177,9.119962812,5.906383514,-11.21486092,5.028815746,9.001761406,-0.1539052725,1.040090561,-1.01216507,9.002790365,0.6015318632,-0.2135674655,0.34642675520000005,0.0,1.0,0.0,0.0,60,4.030502799949692,-8.905661795378155,2.6588684929104205,0.07271887116547443,-0.37026521814664975,0.14407810013248676,0.016270774492775975,1.0789391644694166,-1.0126729372594259
178,9.169962812,5.906383514,-11.21486092,5.028815746,9.051761406,-0.1539052725,1.040090561,-1.01216507,9.052790365,-0.5392253995,0.1446944475,-0.06505523622,0.0,1.0,0.0,0.0,60,4.896403025396177,-10.084851997471395,3.4429426194141355,-0.21038268114585157,-0.16516417522373644,0.016558035282681377,-0.09235490728987229,1.0546062476505673,-1.0124062619867897
179,9.219962812,1.029811025,-10.49910736,-0.8368897437999999,9.101761406,1.8928915259999999,6.025341033999999,-5.02740097,9.102790365,-1.3152304890000002,-1.11304009,-0.4582118094,0.0,1.0,0.0,0.0,60,3.1115971689558837,-10.296391080981863,2.0270014768577203,-0.7215144040902025,-0.5426895457804239,-0.27293517722030114,1.174854850946394,4.168038006088202,-3.1206321878607524
180,9.269962812000001,3.42622304,-8.60518837,1.14795661,9.151761406,3.880438805,5.204494476,-3.7793121339999995,9.152790365,-1.068371892,2.309613466,-0.7233195305,0.0,1.0,0.0,0.0,60,3.2568274121404506,-9.432780122139546,1.7361779847458172,-0.8819798221996928,0.5933418009617719,-0.5475592182149642,2.901865830518037,4.8172250235803356,-3.4664971863697387
181,9.319962812,2.930609465,-9.110373497000001,0.6188437343,9.201761406000001,3.880438805,5.204494476,-3.7793121339999995,9.202790365,-1.1615260840000001,0.19631104170000002,-0.1528645307,0.0,1.0,0.0,0.0,60,3.1062463053013665,-9.268143504177162,1.3665187549029565,-1.0113052925696717,0.43521014867121477,-0.30689222065372,3.526502248951339,5.059792182173093,-3.6307525914288576
182,9.369962812,1.374377489,-10.81735325,-0.9158528447,9.251761406,3.880438805,5.204494476,-3.7793121339999995,9.252790365,-1.056842089,-0.9068027734999999,-0.02336490713,0.0,1.0,0.0,0.0,60,2.3068214874833575,-10.059245897722773,0.6114181864146125,-1.0323718149471053,-0.09929433449721536,-0.13401006787173303,3.752424758911269,5.1504268141703005,-3.70875943863064
183,9.419962812,1.0202397109999999,-10.89153004,-0.2120639086,9.301761406,0.7528140545,0.2346668243,-0.47908300159999995,9.302790365,-0.5634302497,-0.4001049399,-0.293970257,0.0,1.0,0.0,0.0,60,1.7129396687225071,-10.484250954014135,0.3389771000585761,-0.8154270841398423,-0.21910288070352046,-0.23154656804116852,1.8377325114460032,2.071428652485897,-2.012894788464143
184,9.469962812,1.5517455340000001,-8.856734276000001,-0.20727826649999997,9.351761406,0.7528140545,0.2346668243,-0.47908300159999995,9.352790365,-0.7053758501999999,-0.2606027126,-0.3971270621,0.0,1.0,0.0,0.0,60,1.6385329985272465,-9.653161203710955,0.15825379543355553,-0.7645144820357699,-0.23563166805722918,-0.33251007632835083,1.1452143271346573,0.9209684379897554,-1.2075084780847152
185,9.519962812000001,1.633101463,-8.930911064,-0.5159524083,9.401761406,0.7528140545,0.2346668243,-0.47908300159999995,9.402790365,-0.9956046939000001,-0.3924693763,-0.003206948051,0.0,1.0,0.0,0.0,60,1.6360258201517355,-9.28434489836218,-0.06480080611036035,-0.8714229062771732,-0.29809787595722775,-0.13171589876933743,0.8947399042937182,0.4911017620010825,-0.8250209317567077
186,9.569962812,1.63788712,-9.847661972000001,-1.191027522,9.451761406000001,0.7528140545,0.2346668243,-0.47908300159999995,9.452790365,-0.7898254991,-0.043141089380000004,0.24899661539999998,0.0,1.0,0.0,0.0,60,1.6368849900123756,-9.572002193910253,-0.43740202215383917,-0.833673794542715,-0.19655224760228313,0.1004254008623593,0.8041467070047705,0.33048311843809797,-0.6433730427739692
187,9.619962812,1.582852125,-9.71605587,-1.229611754,9.501761406,-0.8413605690000001,-0.01018714905,0.9144988656,9.502790365,-0.5900784731000001,0.29610821600000004,0.1461452097,0.0,1.0,0.0,0.0,60,1.6119436014209374,-9.645563058350078,-0.6994969497696266,-0.7209801769288372,-0.00033265675119334426,0.12830327574234954,-0.246202933323457,0.11710347225928644,0.17464695100176386
188,9.669962812,1.400698543,-9.297013283,-0.8823533654000001,9.551761406,-0.8413605690000001,-0.01018714905,0.9144988656,9.552790365,-0.4944808483,0.2559449971,0.13797512650000002,0.0,1.0,0.0,0.0,60,1.5144335931072719,-9.467576466979947,-0.7599932262889371,-0.616195616302635,0.10173905406763205,0.1342007335937221,-0.6261001344403037,0.037374683666021785,0.5631343839693408
189,9.719962812,1.400698543,-9.297013283,-0.8823533654000001,9.601761406,-0.8413605690000001,-0.01018714905,0.9144988656,9.602790365,-0.6519267559,0.06459710002,0.2032594234,0.0,1.0,0.0,0.0,60,1.4619338765096443,-9.38047854898615,-0.8004748948457213,-0.6327257834638064,0.0869459469188367,0.17630960419725764,-0.7635037930651729,0.007584214685570804,0.7476316905414272
190,9.769962812000001,0.7423732281000001,-9.790233612,-0.5925226808,9.651761406,-0.3529005051,-0.17322731019999998,0.5834410191,9.652790365,-0.8550334573,0.1714953631,0.1335464865,0.0,1.0,0.0,0.0,60,1.1297871025156718,-9.589719558690199,-0.7316759161424968,-0.7355711740743236,0.12062076573839275,0.15023458604173148,-0.5014101383262736,-0.10566752132805067,0.6614171235142006
191,9.819962812,1.75034976,-10.3217392,-0.8703892231,9.701761406000001,-0.2194643021,0.230091095,1.11278975,9.702790365,-0.882979691,0.21906509999999998,0.1414874941,0.0,1.0,0.0,0.0,60,1.4162367370403657,-9.963524648607383,-0.7775678721049246,-0.8037662401522854,0.15982973095231973,0.14490100436748152,-0.3214402822037531,0.104635700247546,0.8984275164764346
192,9.869962812,2.119143486,-12.87637711,-1.473679662,9.751761406,-0.2194643021,0.230091095,1.11278975,9.752790365,-0.6841489076999999,0.1855448484,0.2087570578,0.0,1.0,0.0,0.0,60,1.7406961270868342,-11.450969818096386,-1.0078697248711403,-0.7484281086668882,0.1700716931247036,0.18383754224799398,-0.25634762924203847,0.18321499023021076,1.010986573527769
193,9.919962812,2.119143486,-12.87637711,-1.473679662,9.801761406,-0.2194643021,0.230091095,1.11278975,9.802790365,-0.42011019590000004,0.6100073457,0.18890450890000002,0.0,1.0,0.0,0.0,60,1.9153861544949382,-12.178852611935675,-1.1619784371440252,-0.5965395867549861,0.34529174854589073,0.18692714973710323,-0.23280450062660132,0.21257595183564262,1.064442209653837
194,9.969962812,1.4150555130000002,-9.354740142999999,11.77298641,9.851761406,-0.6266453265999999,-0.2987699509,2.217378616,9.852790365,-0.17111359539999998,1.0837193729999999,-0.0813953951,0.0,1.0,0.0,0.0,60,1.6844352141717027,-10.736722427816895,3.117429575397103,-0.399726307621178,0.6393968716178409,0.02331617831082841,-0.48419844822867475,-0.10770679135418035,1.6698353919452074
195,10.01996281,2.15982151,-11.32014465,-1.234397411,9.901761406,-0.6266453265999999,-0.2987699509,2.217378616,9.902790365,0.43828290700000005,0.08551861346,-0.1255291104,0.0,1.0,0.0,0.0,60,1.9038719287947217,-11.03464639886482,1.6776697079842577,-0.0120411524724926,0.4187951119548074,-0.06744295748284297,-0.5751242251365419,-0.22737966352893968,1.957343820973808
196,10.06996281,1.175773263,-11.70329571,-2.261217356,9.951761406000001,-0.6266453265999999,-0.2987699509,2.217378616,9.952790365,2.3051085469999997,-3.1500630380000003,0.020921519030000002,0.0,1.0,0.0,0.0,60,1.5677840347083265,-11.376091494062427,0.3745270201246973,1.0599333856842408,-1.002629860483746,-0.013562289907992138,-0.6080108438684523,-0.27209514270812307,2.0938849964948596
197,10.11996281,2.849253654,-12.86680603,-4.923531532,10.00176141,-0.39479064939999997,-0.9508171082,6.962115288,10.00279037,3.505881548,-1.714877367,-0.7207233906,0.0,1.0,0.0,0.0,60,2.1593060990447626,-12.137323368531444,-1.3782844087769326,2.1914934881389527,-1.2863078184872805,-0.44475719641830364,-0.47190949820949785,-0.6972142877085457,4.650134769765257
198,10.16996281,0.9337990284000001,-10.43898773,4.679164886000001,10.05176141,0.41073083880000005,0.7803592681999999,3.622270107,10.05279036,1.8029919859999999,3.33049202,-0.3699443638,0.0,1.0,0.0,0.0,60,1.593616159069542,-11.270069988544336,0.6257641025168263,2.0117624513004393,0.5524972858851673,-0.399139709367618,0.09149181517897859,0.22826748352785498,4.1104152714578035
199,10.21996281,-0.07148557901000001,-9.893125534,-2.323430777,10.10176141,0.41073083880000005,0.7803592681999999,3.622270107,10.10279036,0.7476770281999999,3.236574173,0.6216897964,0.0,1.0,0.0,0.0,60,0.8250107998439611,-10.566934691566004,-0.34994849843461806,1.426963209444656,1.6215265818344873,0.22331602653925642,0.29526641921935626,0.5740715084534254,3.8540960567498375
200,10.26996281,-0.07148557901000001,-9.893125534,-2.323430777,10.15176141,0.41073083880000005,0.7803592681999999,3.622270107,10.15279037,1.302784443,-0.4896704257,0.7277481556000001,0.0,1.0,0.0,0.0,60,0.41119108807694227,-10.222854724848691,-1.0028560225164749,1.3695148383134972,0.7806671186119787,0.5308959606194045,0.3689689262335368,0.7032803458084503,3.732367010394202
201,10.31996281,5.844170094,-4.980660438999999,-1.19581306,10.20176141,-0.056862950329999995,-1.360572815,-0.23262786870000002,10.20279036,2.072986603,-0.42499697210000004,0.4524087608,0.0,1.0,0.0,0.0,60,2.9190359150019374,-7.545933499513227,-1.0666939920110787,1.6949594222032738,0.3004684178116217,0.48303801034149346,0.09715465661240202,-0.5894190742370317,1.6503953997406295
202,10.36996281,3.7734813689999998,-3.3287153239999996,-0.5542375445000001,10.25176141,-0.1144378781,-0.03745651245,-1.9067087169999999,10.25279037,1.595762134,-0.7627955079000001,0.4339306355,0.0,1.0,0.0,0.0,60,3.3134450613637956,-5.39241529163119,-0.8971527328759514,1.649068141353691,-0.1230143413403339,0.4530945506344673,-0.03790773174989839,-0.24369598837168033,-0.21739762744596725
203,10.41996281,-0.4283152521,-6.1058850289999995,2.88604331,10.30176141,-0.1144378781,-0.03745651245,-1.9067087169999999,10.30279036,1.114261746,-0.23731416460000002,0.04772244393999999,0.0,1.0,0.0,0.0,60,1.586261091722489,-5.756747893372738,0.354481086648184,1.4016526039349786,-0.1685383202603772,0.20591694501836688,-0.08675796346793899,-0.11451739370070091,-1.104434770752508
204,10.46996281,-0.4283152521,-6.1058850289999995,2.88604331,10.35176141,-0.1144378781,-0.03745651245,-1.9067087169999999,10.35279036,-0.20096874239999998,0.5107446909000001,-0.1756949425,0.0,1.0,0.0,0.0,60,0.6563394304869626,-5.935034419479431,1.1920239628657765,0.6602377191819816,0.1020103524170157,-0.026772751847684517,-0.10442642889226547,-0.06625012430675507,-1.5256992696304246
205,10.51996281,-1.802393675,-10.17577744,4.712664127,10.40176141,4.062530993999999,5.5333271029999995,-4.841053486,10.40279037,-0.8319739698999999,-0.03726168349,-0.2940466106,0.0,1.0,0.0,0.0,60,-0.4786034972905139,-8.100565563545244,2.356793709426625,-0.03009874742327623,0.04654029967321113,-0.189744281850237,2.5553990818524124,3.4410586181288254,-3.2665523017362306
206,10.56996281,4.482056141,-15.50010681,5.581857203999999,10.45176141,4.062530993999999,5.5333271029999995,-4.841053486,10.45279036,-0.41972842810000005,-0.8121214509,-0.02367033064,0.0,1.0,0.0,0.0,60,1.8112202990594621,-11.879133839082563,3.423774773728792,-0.21035170953439986,-0.29545235004954573,-0.08847988566618674,3.5174218485525826,4.751556044966919,-4.093304130252076
207,10.61996281,5.9805612560000005,-9.098408699,0.4319044948,10.50176141,4.062530993999999,5.5333271029999995,-4.841053486,10.50279037,-0.5043307543,-1.053482413,0.1900498569,0.0,1.0,0.0,0.0,60,3.7357740551236387,-10.459159350793675,2.4339434294950446,-0.3463541658116558,-0.5973648432104456,0.08135497401808255,3.8653724189606162,5.241220238190082,-4.485938415483771
208,10.66996281,6.43549633,-6.072385787999999,-1.428215981,10.55176141,-3.5937757489999997,-2.6790380480000002,2.25974822,10.55279036,-1.06249249,0.02634278871,0.38162681460000003,0.0,1.0,0.0,0.0,60,4.981956772751396,-8.219057855176825,1.1561853437432048,-0.6776586340704502,-0.34895104633346075,0.26444718328432004,-0.8959031523091499,0.2803473003219574,-0.9438586653723511
209,10.71996281,3.5697922710000003,-8.370692253,-1.476072431,10.60176141,-0.2700099945,-1.5928030009999998,-0.29852962489999996,10.60279036,-0.13858596980000001,0.9787300229000001,0.434006989,0.0,1.0,0.0,0.0,60,4.330106390525129,-8.296489807553279,0.28532831846517115,-0.4282694079936384,0.1798452655468794,0.367837096141576,-0.496387050029967,-0.8929049226313204,-0.6050040684060862
210,10.76996281,1.412662625,-10.97288609,-0.008374879137,10.65176141,-0.2700099945,-1.5928030009999998,-0.29852962489999996,10.65279037,-1.171528697,-0.3028275371,-0.1458397806,0.0,1.0,0.0,0.0,60,2.9834241657125204,-9.6631888676359,0.18815945625486558,-0.7721207496601201,-0.012396383277198997,0.05462013239807045,-0.3518875012801387,-1.331287777442279,-0.44407798649325525
211,10.81996281,1.412662625,-10.97288609,-0.008374879137,10.70176141,5.348768711,4.206855774,-3.992428303,10.70279036,-1.8422390219999998,1.363334775,-0.6962131858,0.0,1.0,0.0,0.0,60,2.2583659242825878,-10.331984431059741,0.12313797228333813,-1.2671856741208751,0.5355375893270478,-0.40320412028271047,3.286918774213775,2.1375418336628993,-2.3072744970793284
212,10.86996281,-0.1528415531,-10.43898773,-0.2527419031,10.75176141,2.7549018860000003,2.132909775,-2.110859156,10.75279037,-1.460306764,0.3363477588,-0.6362738013,0.0,1.0,0.0,0.0,60,1.145360666448837,-10.386625558733728,-0.0012182489418065545,-1.3565285813933434,0.45620313905663773,-0.5453194872518228,2.9473251696477027,2.1346405323760327,-2.204139139476847
213,10.91996281,0.8404789567000001,-8.657830237999999,-0.2599203587,10.80176141,0.9940135479000001,-0.1846084595,-1.236493111,10.80279036,-0.814412117,-0.7390488386,-0.6707866192,0.0,1.0,0.0,0.0,60,1.0046282951566001,-9.50381797193727,-0.08680733975786696,-1.10573121313528,-0.01984856658538292,-0.6218236786917868,1.7004998354349667,0.6819733156760921,-1.6960397288542577
214,10.96996281,1.0250253679999999,-9.136693954,-0.6044868231,10.85176141,0.9940135479000001,-0.1846084595,-1.236493111,10.85279036,-0.6873558759999999,-1.287971497,-0.45630291100000003,0.0,1.0,0.0,0.0,60,1.0140435152234009,-9.316346462676195,-0.25807658978629994,-0.9121797525212411,-0.524923726523163,-0.5208965888617381,1.2495400439878273,0.13918772440381388,-1.4547372702016093
215,11.01996281,1.003489971,-8.859127045,-0.9661021233,10.90176141,-2.3230838780000003,-0.9388399124,0.5875267386,10.90279037,-0.4430933297,-1.319200993,0.01786728203,0.0,1.0,0.0,0.0,60,1.0091720347968614,-9.082867827999936,-0.4923199894676198,-0.6951680067706746,-0.8412729602617215,-0.1923827088970923,-1.030914321513257,-0.5360374938485252,-0.38236875080068833
216,11.06996281,0.9675976634000001,-9.256335258,-1.358824134,10.95176141,-1.6373794080000001,0.5210285187,0.5965771079,10.95279036,-0.5771743059000001,-0.47485738990000004,0.04795150831,0.0,1.0,0.0,0.0,60,0.989981444859169,-9.171448796427502,-0.7789945047601717,-0.6405810100839404,-0.6953348982545652,-0.04583775581221669,-1.4180292219628496,0.126058360318128,0.1316640659793995
217,11.11996281,1.199701428,-12.15344524,-1.792224169,11.00176141,-1.6373794080000001,0.5210285187,0.5965771079,11.00279037,-0.9904124737000001,0.4642439187,0.10873081539999999,0.0,1.0,0.0,0.0,60,1.0867874835592533,-10.694202274829879,-1.1142117390776423,-0.8024222677596275,-0.2334913004783058,0.04841117916016349,-1.5580434244197292,0.3734488745056614,0.37578436984905916
218,11.16996281,3.2036905289999997,-12.90269756,15.16062546,11.05176141,-1.6373794080000001,0.5210285187,0.5965771079,11.05279036,-1.521238685,0.8890118003,0.06085565686000001,0.0,1.0,0.0,0.0,60,2.063942805887699,-11.82196816646282,4.270160736222413,-1.1349656923926714,0.2135855717554273,0.05599925971808916,-1.608684660049947,0.46588574165234375,0.49172000822856493
219,11.21996281,0.2395813614,-16.00768471,-2.297109842,11.10176141,-0.9687860012,0.3114557266,1.160401583,11.10279036,-2.139797926,0.5874059796,0.07826480269,0.0,1.0,0.0,0.0,60,1.2218237021013996,-13.959400096747878,2.0974427843826784,-1.5998275740565633,0.36247287426437064,0.06957578239859928,-1.2002286562602742,0.3691581281467278,0.8428367428329466
220,11.26996281,-1.175175071,-14.32941818,14.20768356,11.15176141,-1.318910837,-0.8396377562999999,1.97186017,11.15279037,-1.18649447,0.5938962698,-0.1204132661,0.0,1.0,0.0,0.0,60,0.11537713445737685,-14.14834945899386,6.103998815035343,-1.4086087832423202,0.45464549077319893,-0.046270960213812454,-1.275985104045897,-0.38797409838799085,1.4356735044401843
221,11.31996281,1.288235903,-13.56820202,-5.124528885,11.20176141,-1.318910837,-0.8396377562999999,1.97186017,11.20279036,1.437247276,1.003011227,-0.16676130890000002,0.0,1.0,0.0,0.0,60,0.6567647952437571,-13.852097753729737,2.38914902855982,-0.09204074471113577,0.6730516919410563,-0.11974053396648264,-1.303385182434384,-0.6708747232017958,1.7172187398109817
222,11.36996281,1.288235903,-13.56820202,-5.124528885,11.25176141,-1.879698515,-5.682803154,0.3731185198,11.25279037,3.458082676,-0.23784865440000003,0.2837385535,0.0,1.0,0.0,0.0,60,0.948249733582688,-13.707126682976666,-0.09667863632697271,1.5503399416837174,0.31025315937967357,0.12628279401945053,-1.6712538089296356,-3.8101082205294814,1.0114477147940826
223,11.41996281,3.5506496430000003,-10.97527885,-3.719343662,11.30176141,-1.879698515,-5.682803154,0.3731185198,11.30279036,3.7155547139999996,-0.6533774734000001,1.034775257,0.0,1.0,0.0,0.0,60,2.1495087746584014,-12.312111344480018,-1.2952023215078166,2.5520253770695778,-0.07354708934728721,0.6802404739824394,-1.8043068954623953,-4.983075222469273,0.6762686533310933
224,11.46996281,0.9723833203,-8.820841789,3.573082447,11.35176141,-2.08573103,-2.958247185,-0.1747159958,11.35279036,1.6143165830000001,1.340580702,0.4579063654,0.0,1.0,0.0,0.0,60,1.6061516259727822,-10.529298067189005,0.3154226078059741,2.118216567941285,0.48967971099312385,0.5446711743198989,-1.983943741976228,-3.71481928264451,0.22942674442169703
225,11.51996281,1.027418256,-6.99392128,-3.3960134980000003,11.40176141,-2.08573103,-2.958247185,-0.1747159958,11.40279037,1.504058719,2.194010735,0.623904109,0.0,1.0,0.0,0.0,60,1.33901024974378,-8.723961476336969,-0.9124701306519036,1.8340909558128229,1.1684902931156935,0.5929838400335459,-2.0489159498847638,-3.2409385188545774,0.01721620255793055
226,11.56996281,3.9912281039999997,-4.073182583,-2.445763826,11.45176141,-2.08573103,-2.958247185,-0.1747159958,11.45279036,2.005029678,-1.6939557790000002,0.7523347734999999,0.0,1.0,0.0,0.0,60,2.5632650863780144,-6.349045924882979,-1.4197455197648114,1.9131717153184749,0.028419111113550777,0.6901488436100157,-2.072415515160115,-3.0638741178621736,-0.08356510998284222
227,11.61996281,5.068596363,-2.689532757,-2.7209384439999997,11.50176141,2.3350541590000002,-0.46239948270000003,-4.13694334,11.50279037,1.657152295,-0.14736689630000002,0.6302416325,0.0,1.0,0.0,0.0,60,3.7197175732486354,-4.480319216374241,-1.8502326135716645,1.7947303820840013,-0.041593932334190384,0.6536201314312238,0.7409322315746412,-1.4344341867382173,-2.211945766250929
228,11.66996281,4.137190342,-4.238286972,8.138587952,11.55176141,2.3350541590000002,-0.46239948270000003,-4.13694334,11.55279036,1.076694608,-1.254374862,0.2293731421,0.0,1.0,0.0,0.0,60,3.912421598483478,-4.356725694907481,1.4544720579186217,1.4625481032725087,-0.5246271678259927,0.394933474715652,1.7584819061943548,-0.8255978983644956,-3.2227390767114104
229,11.71996281,-4.294817448,-23.58276176,14.061721799999999,11.60176141,2.3350541590000002,-0.46239948270000003,-4.13694334,11.60279036,0.1644706279,-0.5651100874,0.011606098149999999,0.0,1.0,0.0,0.0,60,0.12398767217326334,-14.174481623607484,5.625458697535285,0.8620232419136865,-0.5407509335842339,0.16119775007947568,2.1265158051392703,-0.5981076920915949,-3.7027768525964437
230,11.76996281,-1.498505235,-11.68175983,7.401299477,11.65176141,3.6878695489999997,5.8391361239999995,-6.884397507,11.65279037,-0.9475004673,-1.353026628,-0.5493044257,0.0,1.0,0.0,0.0,60,-0.6249495939530713,-12.901575755905087,6.212978443250098,0.024889869506344198,-0.8642686831775943,-0.27203439317172473,3.123149102962299,3.433875544684057,-5.373407983230941
231,11.81996281,8.870492935,-11.49721336,-5.524429321,11.70176141,4.078320026,7.560246468,-4.136602402,11.70279036,-0.3441360891,-0.8672503829000001,-0.1750840992,0.0,1.0,0.0,0.0,60,3.758114725294725,-12.184439516656164,2.3297706093171318,-0.14583126758053966,-0.8654562513767631,-0.2129184817945131,3.7328476746502326,6.018437954635466,-4.723976095642988
232,11.86996281,7.017251492000001,-6.800102711,-1.4353945259999998,11.75176141,4.078320026,7.560246468,-4.136602402,11.75279037,-1.0951727629999999,-0.515173316,0.220210433,0.0,1.0,0.0,0.0,60,5.262521289588952,-9.434933357032737,1.0841021413736256,-0.5850216708185907,-0.7259435863006686,0.05118397201292854,3.9533673682989154,6.984153446620271,-4.415553161220799
233,11.91996281,2.547458887,-7.76500845,-1.152742267,11.80176141,4.078320026,7.560246468,-4.136602402,11.80279036,-0.1481304616,2.0015938280000003,0.20280128719999999,0.0,1.0,0.0,0.0,60,4.009257620795496,-8.582187887217138,0.34406380388072855,-0.3829042796465104,0.3603954138698423,0.14363336434271684,4.033126346825437,7.344990703971308,-4.269079438116603
234,11.96996281,1.9130617380000001,-10.47996521,-3.0562326910000004,11.85176141,4.299791336,-3.68241787,-1.335444927,11.85279036,-1.5440691709999999,-0.1127776727,0.1983726472,0.0,1.0,0.0,0.0,60,3.041660655010802,-9.551285963089503,-0.7808914035011084,-0.9200897701873398,0.1719373655777845,0.1770109071927573,4.20334223077474,0.43794666676888383,-2.72866287919327
235,12.01996281,1.316949725,-11.07129097,-2.14157629,11.90176141,6.892287731000001,0.19728469850000002,-8.023202896,11.90279037,-1.830098391,2.05756259,-0.6159631014,0.0,1.0,0.0,0.0,60,2.245539893446405,-10.327474986803269,-1.23106083761051,-1.34108374856371,0.9229548254002113,-0.3065088355788856,5.919732659664248,0.287207460733106,-5.508762814494476
236,12.06996281,-0.1986042857,-9.414560318,3.6568312639999996,11.95176141,6.892287731000001,0.19728469850000002,-8.023202896,11.95279036,-1.2295591829999999,1.2024527790000001,-0.6647545099000001,0.0,1.0,0.0,0.0,60,1.1173311648990596,-9.86129603188751,0.38605098836375906,-1.2894895444645025,1.0342748482344704,-0.524950870797076,6.540527769143323,0.23088412106146816,-6.82906536880416
237,12.11996281,-0.8497511148000001,-9.780662537000001,0.1495514214,12.00176141,6.892287731000001,0.19728469850000002,-8.023202896,12.00279037,-1.7304539680000002,-2.068939686,-0.7503495216,0.0,1.0,0.0,0.0,60,0.2093326038084502,-9.820120618851924,0.3078073940741476,-1.4934913119718858,-0.2016909560537008,-0.6623887899419536,6.765060929819637,0.20983904144884408,-7.456092769071989
238,12.16996281,0.17258232829999998,-8.507082939,-0.5350949764,12.05176141,-0.5874462128,-1.582481384,-3.286463022,12.05279036,-2.107957602,-3.1079144480000003,-0.7904363275,0.0,1.0,0.0,0.0,60,0.1923688003075909,-9.149619251963781,0.02894129740053225,-1.7777596167216754,-1.3591980558620043,-0.7404663961839435,2.071855773366293,-0.9127851931309587,-5.266669825366978
239,12.21996281,1.4174482819999998,-9.222835541,-1.275075316,12.10176141,-0.5874462128,-1.582481384,-3.286463022,12.10279036,-1.076389194,-0.7773795128000001,-0.1061347127,0.0,1.0,0.0,0.0,60,0.7578613667713012,-9.187007076001786,-0.4024799867522324,-1.4532871687070796,-1.127468081781953,-0.3536795795753146,0.37438720218972543,-1.3322510225638342,-4.226886805939381
240,12.26996281,3.1196424960000004,-13.63280773,-2.7735805510000002,12.15176141,-0.5874462128,-1.582481384,-3.286463022,12.15279037,-0.7397360206,-0.0260373652,0.5385382175,0.0,1.0,0.0,0.0,60,1.8480515886710764,-11.457250697024074,-1.1869356750448286,-1.1231795962074003,-0.6887840376881949,0.1903545439797928,-0.2395641283141584,-1.4889834149726517,-3.7330814721648045
241,12.31996281,2.25553441,-13.62323666,2.907578707,12.20176141,-1.837009788,0.6742658615,2.0012600419999997,12.20279036,-1.159464478,0.6830036044,0.46951246259999996,0.0,1.0,0.0,0.0,60,2.0361442880352953,-12.56330924258539,0.16769480576197715,-1.1399659393319783,-0.1424207109590605,0.3605724370648092,-1.2592353859860261,-0.13402699738114987,-0.722047006074662
242,12.36996281,-7.036095142000001,-22.62503624,13.2523489,12.25176141,-1.129713535,1.340292931,2.140514851,12.25279037,-2.7312507630000002,0.08773294091,0.2787754238,0.0,1.0,0.0,0.0,60,-2.151570904916957,-17.701319985956218,4.496626057169928,-1.8761362498197602,-0.0507538151247017,0.31069631199362413,-1.1765598297868953,0.7894168561409641,0.7810501481904704
243,12.41996281,-0.4115654826,-16.54636765,-6.209075451,12.30176141,-1.129713535,1.340292931,2.140514851,12.30279036,-0.25128728149999996,0.7984537481999999,-0.3989596069,0.0,1.0,0.0,0.0,60,-1.3483902571079154,-17.111544737998674,0.9547482594612839,-1.1244382811416886,0.2874733675356934,-0.12201982200370298,-1.1466572038470098,1.134459418042659,1.4948888800117632
244,12.46996281,6.7660050389999995,-14.27677631,-4.19581461,12.35176141,-1.129713535,1.340292931,2.140514851,12.35279036,2.4816434380000003,1.696399212,-0.16126367449999998,0.0,1.0,0.0,0.0,60,2.397187306703654,-15.66397310115325,-0.7492656491674683,0.5438301895248945,0.8486283071252991,-0.14594895115284634,-1.1358418301234023,1.2633837365809206,1.8338993914762465
245,12.51996281,5.554638862999999,-10.54696369,-2.227717876,12.40176141,-3.1971788410000004,-7.17727375,2.4062690730000003,12.40279037,4.327013016,1.243150473,1.675783157,0.0,1.0,0.0,0.0,60,3.854656320073429,-13.050977406936964,-1.2383972688734244,2.2940303010914844,1.0057608225411068,0.9648610261868537,-2.451621236972917,-4.023442499708027,2.1344438978616767
246,12.56996281,5.6096735,-5.59830761,-4.949852943,12.45176141,-6.549639225,-10.93078423,6.53640604,12.45279036,2.496456385,0.3652102947,1.355775476,0.0,1.0,0.0,0.0,60,4.6647663447162016,-9.24527909123053,-2.4662964813586674,2.3876779439143165,0.7506387419975771,1.2032230051842623,-5.067441769981698,-8.349872699662917,4.445861816693041
247,12.61996281,0.46959143880000004,-5.164907455,1.317847013,12.50176141,-6.549639225,-10.93078423,6.53640604,12.50279037,1.89469552,1.293545485,0.2786990702,0.0,1.0,0.0,0.0,60,2.7282877249111337,-7.161641430639512,-1.2143492065733534,2.1596112782874353,0.9668707044801701,0.6394900575898259,-6.0135485338241415,-9.966432877509776,5.543581702068163
248,12.66996281,-0.37088751789999996,-5.847161292999999,-4.3441696169999995,12.55176141,-6.549639225,-10.93078423,6.53640604,12.55279036,3.29636097,-1.7086161380000002,0.7191963196,0.0,1.0,0.0,0.0,60,1.297718861552608,-6.490403474076576,-2.2498200174386547,2.6855016536268415,-0.0987372998088496,0.6880913369228527,-6.355742502138487,-10.57045667722981,6.064901943176792
249,12.71996281,3.50757885,-2.986242771,-3.470490217,12.60176141,4.113457203,1.555761814,-5.556211472,12.60279036,2.207831144,-1.868581772,-0.10529479380000001,0.0,1.0,0.0,0.0,60,2.317782795936842,-4.701007345217141,-2.6536669466317377,2.464518683186265,-0.8036409480567671,0.20432030065125262,0.32688984174304725,-2.9751703898012964,-0.03720637013344241
250,12.76996281,6.584150791,-5.732305527,17.55703735,12.65176141,4.113457203,1.555761814,-5.556211472,12.65279037,1.489856482,-1.0334771870000001,0.4108711481,0.0,1.0,0.0,0.0,60,4.287123906191063,-5.227638721501638,4.032849091836687,2.0136142536630297,-0.8951814229405324,0.33026568038837123,2.743907210112095,-0.13721004278558446,-2.9351702492142766
251,12.81996281,2.600100994,-20.00100708,4.640879631000001,12.70176141,4.113457203,1.555761814,-5.556211472,12.70279036,0.4162923992,-1.328821898,0.6174138784000001,0.0,1.0,0.0,0.0,60,3.508399806813029,-12.771644374256997,4.234010114822338,1.2746510535322548,-1.0678941993332658,0.5053556850511278,3.6181095690592264,0.9231869753708362,-4.3114477935080515
252,12.86996281,-0.04995017126,-6.519843578,-0.43698924780000004,12.75176141,1.6862254140000001,5.156617641,-8.448648452999999,12.75279037,-1.555904269,-1.3520340919999998,0.09185615927000002,0.0,1.0,0.0,0.0,60,1.8658774307948351,-9.57916860302041,2.6886551539061516,-0.0348384607825214,-1.1810630399189406,0.2532223462799571,2.3849616779975458,3.574806514453565,-6.483842609364297
253,12.91996281,11.93001556,-16.0316124,-7.712665557999999,12.80176141,3.537323475,7.290800095,-5.988178252999999,12.80279037,-0.8133431077,-0.2752630413,-0.6607840061,0.0,1.0,0.0,0.0,60,6.511449727202898,-12.87410251847224,-0.7525212013374385,-0.394995234186808,-0.8202959026220885,-0.3040974543967363,3.1205298620692057,5.902328082997972,-6.223575156446529
254,12.96996281,3.8907296660000004,-11.81815147,-0.851246655,12.85176141,3.537323475,7.290800095,-5.988178252999999,12.85279036,-1.41311872,1.388684869,0.3113030195,0.0,1.0,0.0,0.0,60,5.301734165572119,-12.334882182582202,-0.7851835627985525,-0.8660059995676124,0.05950943015805865,0.07114596547833096,3.386574885202742,6.772000886416313,-6.099971044764201
255,13.01996281,3.8907296660000004,-11.81815147,-0.851246655,12.90176141,3.537323475,7.290800095,-5.988178252999999,12.90279037,-1.513526797,4.053964138,0.1659977436,0.0,1.0,0.0,0.0,60,4.650419236492628,-12.071014167388448,-0.8070398978827233,-1.1655661912052913,1.6504434025044774,0.1289822966389677,3.4827997571681513,7.0969520255279965,-6.041269980710662
256,13.06996281,0.5868397355,-8.521439552,-1.622034669,12.95176141,7.460194587999999,-3.111349106,-7.81037426,12.95279036,-2.715979576,1.373260975,-0.750120461,0.0,1.0,0.0,0.0,60,2.774684612798631,-10.258427470089671,-1.076673035199226,-1.882828296654664,1.540045620356726,-0.4070548680576203,6.021624890681354,0.7029579162920685,-6.970205577859556
257,13.11996281,-0.650847733,-8.052146912000001,-0.8943174481,13.00176141,7.558687687000001,-4.9976034160000005,-7.0161795620000005,13.00279037,-1.6322602030000002,0.3309265077,-0.3235199749,0.0,1.0,0.0,0.0,60,1.1934704088978019,-9.131792528032694,-1.016342452975411,-1.7669088909634971,1.0584708339085593,-0.35611906235365337,7.002752946894468,-2.8676024650883343,-6.994345969443234
258,13.16996281,-1.0244271759999999,-8.478368759,-0.7531409264,13.05176141,7.558687687000001,-4.9976034160000005,-7.0161795620000005,13.05279037,-1.179087877,-0.4256841838,-0.3749074936,0.0,1.0,0.0,0.0,60,0.1696963471635231,-8.798122339460278,-0.9292647735971996,-1.4949673932884662,0.4673531944209074,-0.36757539930898975,7.357613641068742,-4.201733713801749,-7.005810528779844
259,13.21996281,0.0050847479139999995,-10.81017494,-0.15463615949999998,13.10176141,7.558687687000001,-4.9976034160000005,-7.0161795620000005,13.10279036,-1.295148849,-1.21176827,-0.6268820167,0.0,1.0,0.0,0.0,60,0.09371218686870651,-9.825574971717572,-0.6729863888940271,-1.402526067104108,-0.20141678197774526,-0.5256888652780857,7.485961935129242,-4.700228627394415,-7.011255184485907
260,13.26996281,1.738385677,-12.66790199,8.531310081,13.15176141,-1.8195838930000001,1.216817856,-0.23444592949999998,13.15279037,-1.5093271730000002,-1.726330757,-0.5401417017,0.0,1.0,0.0,0.0,60,0.8528879357365993,-11.277006398428107,2.3721660737808357,-1.4519350743999402,-0.8087681291369909,-0.5345015522925569,1.546105663465501,-0.9940722482876345,-3.452833317613021
261,13.31996281,-0.6675975323,-14.29591846,-3.956233025,13.20176141,-1.8195838930000001,1.216817856,-0.23444592949999998,13.20279036,-2.716590405,-0.9170344471999999,0.054289050400000004,0.0,1.0,0.0,0.0,60,0.151036960143074,-12.818610800352335,0.27847644076665556,-2.036997970253442,-0.8518890495261771,-0.17548363029247266,-0.6022596865109606,0.3907241169465938,-1.762896412652557
262,13.36996281,-2.30039978,-16.30230141,-0.5159524083,13.25176141,-1.8195838930000001,1.216817856,-0.23444592949999998,13.25279037,-3.437313795,2.132849455,0.09704835713,0.0,1.0,0.0,0.0,60,-0.9805379901392038,-14.597553895119896,0.01564733981546207,-2.684820987388535,0.33688945279872273,-0.009305930860519479,-1.3792942587105839,0.9081499287597757,-0.9603252590369001
263,13.41996281,-3.88056016,-18.13370705,-3.475275755,13.30176141,-1.5611336230000001,-3.770653725,8.757551193,13.30279037,-0.1004080176,5.031090736,-0.4150707126,0.0,1.0,0.0,0.0,60,-2.319178465015061,-16.403286935520235,-1.1392908016473138,-1.4892034146282442,2.206522441846432,-0.25672297196580585,-1.4953647944009347,-2.022430058383481,4.1424159819149615
264,13.46996281,4.058227062,-20.53969002,-6.88205719,13.35176141,-0.6360704899,-3.30805397,15.08396244,13.35279036,0.9708653688,-0.5402944088,0.1617218107,0.0,1.0,0.0,0.0,60,0.6246104663651799,-18.515536997702203,-3.03922951680757,-0.35111074053125657,1.1125047190040553,-0.0015742388561890142,-0.9468655705765896,-2.827683705777166,9.88769177628868
265,13.51996281,11.02014446,-15.69183159,-1.990828395,13.40176141,-0.6360704899,-3.30805397,15.08396244,13.40279037,4.1460495,-1.8514016869999999,1.67540133,0.0,1.0,0.0,0.0,60,5.4231539780089,-17.073614678441714,-2.6923761458243463,1.7293941452756578,-0.06797665742652526,1.0209697372535784,-0.7484808499605895,-3.1285647830810683,12.616191644299136
266,13.56996281,11.02014446,-15.69183159,-1.990828395,13.45176141,-0.6360704899,-3.30805397,15.08396244,13.45279036,3.546197414,-2.159192324,2.492867708,0.0,1.0,0.0,0.0,60,8.006705951795102,-16.368008537273422,-2.4602758578427504,2.569895234007886,-0.9008778392563709,1.9184666546818625,-0.6767277905861753,-3.240988269733464,13.911988712391775
267,13.61996281,2.971287489,-1.420439363,-9.987043381,13.50176141,-1.5262787340000001,-8.84676075,-6.602761269,13.50279037,1.728163242,-0.0099262679,0.8229639529999999,0.0,1.0,0.0,0.0,60,5.682373733542314,-8.735047413429056,-4.950434093411549,2.1804878240579786,-0.5460246174152985,1.2504785759013881,-1.2190076948350343,-6.75217742394533,3.1399377103021635
268,13.66996281,-3.014059305,-4.121038914,-1.44496572,13.55176141,5.824125767000001,-9.560048103,-7.689772129,13.55279037,3.857347727,0.2854947448,-0.5710658431,0.0,1.0,0.0,0.0,60,1.6681295063933508,-6.378908626474106,-3.7906837872429633,2.956247422181773,-0.21484239137346733,0.13978304314026535,3.2767200397297565,-8.510894016693502,-2.5466140066541847
269,13.71996281,2.327319145,-4.382155418,-4.360919476,13.60176141,5.824125767000001,-9.560048103,-7.689772129,13.60279036,3.6524083610000004,-1.369595885,-0.023975754159999998,0.0,1.0,0.0,0.0,60,1.9724092254920678,-5.35926861457704,-3.979340749364789,3.2783098255908847,-0.6747641322597983,0.039930323266836945,4.9027637091604745,-9.168034216941006,-5.24722511123239
270,13.76996281,7.060322285,-5.744269847999999,26.00340271,13.65176141,5.824125767000001,-9.560048103,-7.689772129,13.65279037,1.911188364,-2.6642866130000002,0.06849125028,0.0,1.0,0.0,0.0,60,4.320972772774896,-5.555869106068392,5.940159929124874,2.6458433960104357,-1.4671623782223222,0.05734548685561205,5.490881622655889,-9.413573063030213,-6.529777473575936
271,13.81996281,4.254438877,-15.64397526,4.20030117,13.70176141,-3.4860804080000003,6.135769367000001,-8.27911377,13.70279036,0.9849148393000001,-1.462062955,0.4862344265,0.0,1.0,0.0,0.0,60,4.290260950420814,-10.707350338216273,5.364544486810031,1.8774540585545831,-1.4651313511130015,0.3188625952726979,-0.2392351490745055,0.325795184644619,-7.448333138026287
272,13.86996281,6.440282345,-9.981958388999999,-3.592524052,13.75176141,-3.4860804080000003,6.135769367000001,-8.27911377,13.75279037,-1.7196114059999998,-1.0590564009999999,0.41178742049999995,0.0,1.0,0.0,0.0,60,5.282703591244414,-10.33692967108082,2.401184994199674,0.21335674496175683,-1.30339752752546,0.37552395757499335,-2.311740570195824,3.964886569209526,-7.8845661578001005
273,13.91996281,13.54367542,-17.26002884,-5.59142828,13.80176141,-3.4860804080000003,6.135769367000001,-8.27911377,13.80279037,-1.310420036,-0.08819106966,-1.008203387,0.0,1.0,0.0,0.0,60,9.095940390428025,-13.872203279004355,-0.24309380245748669,-0.49158256542782397,-0.8193982388570151,-0.46821049349384203,-3.061337636309392,5.324624261474746,-8.091738411922394
274,13.96996281,2.300997972,-11.23400307,-4.078566073999999,13.85176141,-3.4860804080000003,6.135769367000001,-8.27911377,13.85279036,-1.180615067,2.215466738,0.030007870869999998,0.0,1.0,0.0,0.0,60,5.959417835314255,-12.525009001486607,-1.5120227066850302,-0.8103471658614891,0.3893449178115491,-0.16441943253369412,-3.3324567155647107,5.832686960754225,-8.190126981637649
275,14.01996281,0.1582254022,-7.913363457000001,-2.3955144880000003,13.90176141,-2.7616007330000003,-1.7093133930000002,4.866116047,13.90279037,-2.215543032,5.685995579,-0.4600443542,0.0,1.0,0.0,0.0,60,3.2816069292399948,-10.170076855089507,-1.804317417416461,-1.4604278186134063,2.498924846094308,-0.34467816048010147,-2.96807158952119,1.108736794032013,-1.3344491922738788
276,14.06996281,-0.5168496966,-6.883851527999999,-2.4505496030000002,13.95176141,-2.7616007330000003,-1.7093133930000002,4.866116047,13.95279036,-2.695363522,4.54271841,-0.746684432,0.0,1.0,0.0,0.0,60,1.5282521325565805,-8.491969206190772,-2.0181170854548087,-2.0317416314488526,3.312938485466533,-0.5898034318119982,-2.836278437795747,-0.6563557577294317,1.9213938016724788
277,14.11996281,-0.5168496966,-6.883851527999999,-2.4505496030000002,14.00176141,-2.7616007330000003,-1.7093133930000002,4.866116047,14.00279037,-1.5573550459999999,0.0033596600410000003,-0.08849649876,0.0,1.0,0.0,0.0,60,0.5842400099766504,-7.670785535761352,-2.1611832012068457,-1.8122778908791615,1.994780746150899,-0.2841291011345705,-2.788610644572894,-1.3158783196377222,3.4676323979022676
278,14.16996281,-1.493719578,-8.061718941,0.2500499785,14.05176141,-0.9674514531999999,0.9144220352,-3.4421677589999997,14.05279037,-1.202987313,-2.554563284,-0.19821994010000002,0.0,1.0,0.0,0.0,60,-0.3749391433941751,-7.870415284738602,-1.3634500253054163,-1.530404006932638,0.18284232184824667,-0.2317455740428873,-1.6261400013110512,0.0810757030994309,-0.16062140839218397
279,14.21996281,0.8883354068000001,-17.85853195,28.68725204,14.10176141,-1.270744681,2.389582157,-2.4313266280000003,14.10279036,-2.296403885,-2.905036926,-0.1501157135,0.0,1.0,0.0,0.0,60,0.20818413804265545,-12.970836987398872,8.57853410222019,-1.8847757445511686,-1.047015658178785,-0.18197137116084325,-1.39928634230266,1.5270143052521143,-1.3529416879996583
280,14.26996281,-2.271686077,-15.17946911,-7.18833828,14.15176141,-1.270744681,2.389582157,-2.4313266280000003,14.15279037,-3.722808599,-1.114261746,-0.04199574888,0.0,1.0,0.0,0.0,60,-0.9365156085027315,-14.098672752584154,3.362216872860361,-2.7350981993498826,-1.0737988098460456,-0.09662055745391313,-1.317236454521033,2.0672857659764663,-1.9191887824770113
281,14.31996281,-5.182853699,-17.82981873,14.31536102,14.20176141,-1.270744681,2.389582157,-2.4313266280000003,14.20279036,-4.220191002,4.059461594,-0.487303406,0.0,1.0,0.0,0.0,60,-2.8966109820079815,-16.003978680682806,6.985958675400698,-3.422141281349607,0.9707051242431708,-0.3348413167606257,-1.2875601243511565,2.269156890268093,-2.18810626839749
282,14.36996281,-6.509375095,-17.21456337,-3.996911049,14.25176141,-3.912828684,-3.75887394,7.561288834,14.25279037,0.4789042473,3.662182093,-0.3339807391,0.0,1.0,0.0,0.0,60,-4.56425073976968,-16.622162531230845,3.3523824541436302,-1.6174147764297502,2.042681766364862,-0.3343165753737215,-2.963304697132686,-1.5065148027919846,2.931185040327376
283,14.41996281,-4.1416769030000005,-20.95155525,-6.233004093,14.30176141,-3.912828684,-3.75887394,7.561288834,14.30279037,0.659180522,-1.8302510980000002,0.285800159,0.0,1.0,0.0,0.0,60,-4.369192078573661,-18.83296255775877,0.1811500254416849,-0.5642017734458669,0.5001482000484814,0.04380260714388701,-3.5693987524298465,-2.9172853969155623,5.3623974242205135
284,14.46996281,4.367200375,-22.11506462,-4.463810444,14.35176141,-3.912828684,-3.75887394,7.561288834,14.35279036,3.5681879519999997,-0.1989071369,1.3634874819999998,0.0,1.0,0.0,0.0,60,-0.3365027201811239,-20.50896466620305,-1.3555902194755889,1.3475506558722545,0.22172449381978782,0.8484868519745286,-3.7886147414494626,-3.4444164165171975,6.517009127118047
285,14.51996281,9.064311027999999,-7.515855789,0.4175475538,14.40176141,-3.912828684,-3.75887394,7.561288834,14.40279037,3.895525694,-3.2387120719999998,2.8113482000000003,0.0,1.0,0.0,0.0,60,4.0028812719867535,-13.874046722240124,-0.7689647370976282,2.5263110807990885,-1.1565177181783026,2.0453510666266963,-3.867902187716012,-3.6413776467722703,7.065347969623111
286,14.56996281,2.296212435,-1.906481385,-11.243873599999999,14.45176141,-6.5613689420000005,-7.847058296,-6.410192013,14.45279036,2.7703449730000003,-2.95306468,2.305719376,0.0,1.0,0.0,0.0,60,3.2150886796740377,-7.762821552679998,-4.234487019134818,2.6392075926234506,-1.8720565848483293,2.2041119042122053,-5.587178594527521,-6.275615895796296,-0.010497658795760145
287,14.61996281,1.151844978,-0.5036891699,-8.098209381,14.50176141,-6.5613689420000005,-7.847058296,-6.410192013,14.50279037,2.227988958,1.139230132,-1.063256025,0.0,1.0,0.0,0.0,60,2.2627023299577194,-4.055952922539693,-5.512762192420315,2.448967011444082,-0.6727043105489376,0.21181848257222136,-6.2090175230292886,-7.259892644876329,-3.370900980444797
288,14.66996281,1.151844978,-0.5036891699,-8.098209381,14.55176141,-6.5613689420000005,-7.847058296,-6.410192013,14.55279037,4.128792763,-0.4914266169,-0.3269560039,0.0,1.0,0.0,0.0,60,1.7499343144867532,-2.24199301985053,-6.368132388184214,3.22609868929509,-0.6005040072947925,-0.11670187029488327,-6.4339282188710065,-7.627665271038178,-4.966796521014016
289,14.71996281,5.561817168999999,-6.10349226,30.68615532,14.60176141,3.9005539419999997,4.3885793689999995,-9.673879623,14.60279036,2.835858345,-4.3657255169999996,1.117468715,0.0,1.0,0.0,0.0,60,3.509486613217171,-4.213863712340903,5.890920308348195,3.045563218121593,-2.100137687413181,0.6358396220405604,0.1627120869170966,-0.10126137167842497,-7.4384298237381286
290,14.76996281,-1.9534405469999998,-13.05344582,11.55015469,14.65176141,0.7223862409999999,7.260333061,-17.44839478,14.65279037,1.3037770990000002,-3.318122387,0.77493608,0.0,1.0,0.0,0.0,60,0.9878178188365343,-8.727787398511483,7.763223265705882,2.239767040499773,-2.5852435098534796,0.7206543610296338,0.5199596998394127,4.50969111030825,-12.69454325861581
291,14.81996281,1.0250253679999999,-9.634700775,-3.001197815,14.70176141,0.7223862409999999,7.260333061,-17.44839478,14.70279036,-1.195428133,-1.593929529,0.5189147592,0.0,1.0,0.0,0.0,60,1.0049926982053605,-9.190901799630575,4.20191866534859,0.6505551910859046,-2.190417381022692,0.5976426615944865,0.6491713099966282,6.23256235052877,-15.190734098985216
292,14.86996281,9.317950248999999,-9.383454322999999,-8.526823044,14.75176141,0.7223862409999999,7.260333061,-17.44839478,14.75279037,-0.9452861547,0.17622943219999998,-1.058369279,0.0,1.0,0.0,0.0,60,4.842225930388245,-9.289228551397505,-0.009262415920254341,-0.08772308670709028,-1.2478159269818052,-0.4121186405855244,0.6959053946916902,6.876309021520286,-16.37620484438383
293,14.91996281,3.5195429330000003,-9.751948357,-1.009172916,14.80176141,8.088894844,-6.4510908129999995,8.50687027,14.80279037,-1.4071630240000002,3.142809153,0.33169007300000003,0.0,1.0,0.0,0.0,60,4.231679909401154,-9.52551595326665,-0.3400731338092228,-0.698130786107555,0.5009070176494859,0.04142232542260532,5.414950957311039,-1.4713401058669744,-3.3103983165586186
294,14.96996281,5.176273346,-12.53151131,-4.459024906000001,14.85176141,8.088894844,-6.4510908129999995,8.50687027,14.85279036,-1.6583739519999998,4.966722488,-0.5615213513,0.0,1.0,0.0,0.0,60,4.667701061150321,-11.060524448859027,-1.7027884889238005,-1.1423645895264882,2.2795772157741796,-0.32622550204521117,7.121765652484108,-4.590419007940332,2.8947087422762134
295,15.01996281,3.275475025,-14.657534599999998,-5.038387299,14.90176141,8.088894844,-6.4510908129999995,8.50687027,14.90279037,-2.660927057,3.5775797369999998,-0.7572978734999999,0.0,1.0,0.0,0.0,60,4.0250542077909595,-12.89733405445066,-2.8063390929730807,-1.844891621008328,2.796552987880776,-0.5890739685840298,7.739097349116792,-5.7558552941207175,5.8415879517306255
296,15.06996281,-1.63489604,-15.26561069,-3.831806421,14.95176141,3.019348145,0.486828804,-3.3265004160000005,14.95279036,-2.353823662,2.8385307789999996,-0.7175928354000001,0.0,1.0,0.0,0.0,60,1.4124402191820153,-14.106692132383849,-3.145605040157265,-2.0803370000703327,2.813272139473826,-0.6674389701660964,4.726417337448005,-1.8457350071441945,1.0275338892557286
297,15.11996281,-2.0395822530000003,-16.48415565,7.9232339860000005,15.00176141,3.751837254,-0.7063331604,-4.133529663,15.00279037,-1.901796579,-1.052031636,-1.713579297,0.0,1.0,0.0,0.0,60,-0.18100173767874317,-15.320741482390325,0.5164132930892094,-1.9977394945839997,1.27377712952951,-1.3053281018306988,4.104329635072745,-1.132067904030464,-1.6824791434314914
298,15.16996281,-2.91804719,-12.53629684,9.65414238,15.05176141,3.751837254,-0.7063331604,-4.133529663,15.05279037,-2.132162333,-4.55111742,-1.954940319,0.0,1.0,0.0,0.0,60,-1.4444127081691487,-13.898867636269992,3.53954258070949,-2.059927043213127,-1.046194757053568,-1.7014322979054244,3.8793289610993438,-0.8654079174334277,-2.9694965933570145
299,15.21996281,-7.581957817,-7.396214962,9.704391479,15.10176141,-3.508865833,-5.152905464,-1.506160021,15.10279036,-5.042162418,3.508859396,-1.380591154,0.0,1.0,0.0,0.0,60,-4.2774828775786,-10.57829460635049,5.57912321205564,-3.4395877485144335,0.7680179272602321,-1.505797856365629,-0.836656108133599,-3.5508923780149746,-2.201115979062599
300,15.26996281,-5.798407555,-5.16969347,-1.868794441,15.15176141,-7.282441616,-8.921645164,9.374708176,15.15279037,-2.424529076,7.571299076,-1.378911376,0.0,1.0,0.0,0.0,60,-4.979536590586553,-7.816397890871208,3.1150516932081946,-2.969994846414052,3.4776671521591727,-1.4284282103443988,-4.951088531865421,-6.914876378582673,3.8772114829501736
301,15.31996281,-4.862215518999999,-13.13480186,-0.7674978375,15.20176141,-7.282441616,-8.921645164,9.374708176,15.20279036,1.531775832,-1.6569995880000001,0.08131904155,0.0,1.0,0.0,0.0,60,-4.925381578705627,-10.532235516238172,1.8305477332284381,-0.8873570501900412,1.4326030943502341,-0.5078525105258506,-6.439222865373336,-8.171820862348621,6.763881552656383
302,15.36996281,-2.556730986,-21.885355,2.447857618,15.25176141,-7.282441616,-8.921645164,9.374708176,15.25279037,2.624428988,1.142895222,1.953871369,0.0,1.0,0.0,0.0,60,-3.8320204354654988,-16.32969452834985,2.034778738053904,0.7372877521617571,1.3172166072457991,0.9931955494350825,-6.9774608448797375,-8.641475127946503,8.134795532433694
303,15.41996281,-2.556730986,-21.885355,2.447857618,15.30176141,-9.570372581,3.978874207,-0.7386814356,15.30279037,2.4757640359999997,0.2564795017,3.5797176360000003,0.0,1.0,0.0,0.0,60,-3.2433511167805955,-19.16668694290339,2.1714418902683135,1.5415527126475557,0.8947402443078198,2.5703399204862154,-8.632551618197386,-0.7366887915297831,3.475438408712569
304,15.46996281,0.1079761237,-11.14546871,-0.5925226808,15.35176141,-6.718519211,2.135491371,-2.150860786,15.35279036,0.3833066523,0.8500702977,5.748301982999999,0.0,1.0,0.0,0.0,60,-1.696389739808039,-15.070659942947163,1.257010945187357,1.0057175502604918,0.8769488457891441,4.5081176815739665,-7.410798739929297,1.0623082016572174,0.5211356782729033
305,15.51996281,6.50010252,-4.085146427,-3.506382465,15.40176141,-6.718519211,2.135491371,-2.150860786,15.40279037,0.6760551929,1.340504289,4.0863389969999995,0.0,1.0,0.0,0.0,60,2.0870835060865565,-9.46091854545144,-0.3189116928448328,0.8532070528693685,1.061576324653053,4.250936085557273,-6.968907315312388,1.7344990760835897,-0.8818978572035698
306,15.56996281,6.50010252,-4.085146427,-3.506382465,15.45176141,-6.718519211,2.135491371,-2.150860786,15.45279036,1.092423916,-3.30002594,0.5710658431,0.0,1.0,0.0,0.0,60,4.1241182330781125,-6.715785934931182,-1.373455568509455,0.9638750801711875,-0.675587249371157,2.007117380515343,-6.809081187931566,1.9856615701696056,-1.5482151852786972
307,15.61996281,0.3305086195,2.5178475380000003,1.0498509409999999,15.50176141,4.088223457,-6.204415321,-4.384596825,15.50279037,0.9739195704000001,-3.755794287,-0.7224795818,0.0,1.0,0.0,0.0,60,2.373000800982923,-2.000640314482193,-0.5717280483128993,0.9685219261755046,-1.9023894979816662,0.34273241098946383,0.14681635297330686,-3.144212904014767,-3.037565419083232
308,15.66996281,-1.163210869,-0.8267202376999999,-1.004387259,15.55176141,5.414330482,3.6055250169999997,-6.002327919,15.55279037,0.10117157550000001,-2.403760433,-1.95776546,0.0,1.0,0.0,0.0,60,0.7406973935605219,-1.4011792112365211,-0.7148691636208471,0.5672627879649351,-2.102078344624254,-1.0600073091013245,3.5091421548905797,1.0835017714354218,-4.594326914486359
309,15.71996281,1.434198022,-2.516950369,-5.5076794620000005,15.60176141,5.414330482,3.6055250169999997,-6.002327919,15.60279036,-1.0837193729999999,-1.48810029,-1.628824234,0.0,1.0,0.0,0.0,60,1.060814949964564,-1.9709466275865264,-2.3005240946125154,-0.19652508447103978,-1.8575396988419355,-1.4068461843224698,4.725249736925996,2.663177132360646,-5.333651480748407
310,15.76996281,1.434198022,-2.516950369,-5.5076794620000005,15.65176141,-0.5224752426,11.60686493,-2.577791691,15.65279037,1.8612515930000002,-1.585759521,0.2729723752,0.0,1.0,0.0,0.0,60,1.233167319529299,-2.2497628874113564,-3.3615804282423376,0.7554566555836637,-1.7492935550482671,-0.3825686809071538,1.3755556181712905,8.265077620203712,-3.8865823115344944
311,15.81996281,1.934597135,-30.21925545,-7.930412292000001,15.70176141,-7.632054329,12.18921757,16.5293293,15.70279036,1.178553462,1.5697247980000002,1.068830013,0.0,1.0,0.0,0.0,60,1.5569449618473836,-16.532356054775658,-4.873134260489099,0.951192392358162,-0.4273761872982835,0.5024287032152012,-4.374124134757282,10.722972169315707,6.833569839304127
312,15.86996281,-2.982952595,-16.94148254,-3.862913132,15.75176141,-7.632054329,12.18921757,16.5293293,15.75279037,-3.25810647,2.199431896,0.05390727147000001,0.0,1.0,0.0,0.0,60,-0.538656473508639,-16.741276083849193,-4.538912370957718,-0.9961402312840673,0.6188437662413653,0.2289405876448088,-6.453705220511918,11.64135852152884,11.924697711226187
313,15.91996281,-0.2632105052,-11.09761238,25.16082954,15.80176141,-7.632054329,12.18921757,16.5293293,15.80279037,-5.1075992580000005,-0.8140303493000001,-1.138390183,0.0,1.0,0.0,0.0,60,-0.41151154143585406,-13.85934490584755,5.28695998380927,-2.8982095677494817,0.04815057401531919,-0.6047959731625474,-7.2058614584355505,11.984511360301385,14.342534943716773
314,15.96996281,-5.4367923739999995,-7.870292664,-6.230610847,15.85176141,3.507005692,-23.94363785,-8.937479973,15.85279036,-3.7628190519999998,-3.83925128,-0.1399603784,0.0,1.0,0.0,0.0,60,-2.7311642635000672,-10.801041418537043,1.4764830729673033,-3.2982007087690404,-1.5001457832463605,-0.32136021767145095,-0.3676928754518176,-10.519171812524457,2.1184762424060093
315,16.01996281,-8.498707771,3.6000015739999998,21.65803528,15.90176141,-0.1067554429,-9.855020523,-3.0337316989999996,15.90279037,-0.5066977739,8.367233276,0.4649311304,0.0,1.0,0.0,0.0,60,-5.393442938895195,-3.447163338667573,8.153354422833957,-2.0067778586429865,2.4298896563889647,0.15808474049112625,-0.2011329687243574,-10.103179045681182,-0.5868868143930808
316,16.06996281,1.070489049,-0.5946164131,-3.4079775810000004,15.95176141,-0.1067554429,-9.855020523,-3.0337316989999996,15.95279036,-0.2235700935,1.550483108,1.5765204430000002,0.0,1.0,0.0,0.0,60,-2.40971368445804,-1.990513128046201,4.328399551306199,-1.1818189357367215,2.0796346513021606,1.0229827807503378,-0.14089051235119013,-9.947744354707044,-1.8716959354148044
317,16.11996281,1.070489049,-0.5946164131,-3.4079775810000004,16.00176141,-0.1067554429,-9.855020523,-3.0337316989999996,16.00279037,0.3891097009,-3.3787488939999997,2.6904766560000004,0.0,1.0,0.0,0.0,60,-0.8032638136087518,-1.2776998783867755,1.7688940038132204,-0.45506593398392603,-0.09436116314154486,2.039745248234904,-0.11910163397596805,-9.88966655844736,-2.481867081691089
318,16.16996281,-18.02483368,-49.76472855,19.17069626,16.05176141,-4.183552742,10.25059605,11.992836,16.05279036,2.6380965709999997,-1.078221798,3.131661177,0.0,1.0,0.0,0.0,60,-8.752682512917014,-26.03755216640668,7.526111968437596,0.9759125859380251,-0.4862187313034914,2.7055462746725167,-2.713495971638145,2.725235646829809,5.118627195092841
319,16.21996281,0.1917249113,-10.37916756,-12.07717419,16.10176141,0.654727459,10.39600658,7.206893921,16.10279036,2.101467371,-2.48683548,2.258836746,0.0,1.0,0.0,0.0,60,-4.623974143848715,-18.04161385761912,1.040554348256018,1.496623902534393,-1.2830356646520487,2.433162975906057,-0.5635132152831761,7.529841580323344,6.215151193541289
320,16.26996281,4.094119549,-4.257429599999999,-2.9844479560000003,16.15176141,0.654727459,10.39600658,7.206893921,16.15279036,1.68166256,3.4436514380000003,1.805053592,0.0,1.0,0.0,0.0,60,-0.5997314317417075,-11.002734068263095,-0.29107873405342555,1.5822276634303396,0.5995359597192687,2.0501702364415433,0.21410635083911067,9.325070964218954,6.73590349371229
321,16.31996281,4.094119549,-4.257429599999999,-2.9844479560000003,16.20176141,0.654727459,10.39600658,7.206893921,16.20279037,1.813681841,-1.01148665,2.534634352,0.0,1.0,0.0,0.0,60,1.5669343860487834,-7.558251144340943,-1.1821538907218354,1.6893044677592837,-0.04211122035627968,2.3455745774061008,0.49536078780091897,9.995854080548082,6.983214960234778
322,16.36996281,3.3759737010000004,0.7076773047,1.746461391,16.25176141,-6.680661678,-26.81641006,-11.59779549,16.25279037,-1.159617186,-4.027163029,0.5049416422999999,0.0,1.0,0.0,0.0,60,2.4019808466262735,-3.337263118345346,-0.21324985037149136,0.3713182047162811,-1.629300152799502,1.2232397294821153,-4.085191802990746,-13.061596621918547,-2.7734524321221334
