,Unnamed: 0,Unnamed: 0.1,Unnamed: 0.1.1,Time (s),Acceleration x (m/s^2),Acceleration y (m/s^2),Acceleration z (m/s^2),Gyroscope x (rad/s),Gyroscope y (rad/s),Gyroscope z (rad/s),Linear Acceleration x (m/s^2),Linear Acceleration y (m/s^2),Linear Acceleration z (m/s^2),Still,Walk,Run,Cycle,SPM/RPM,Timestamps,Acceleration x (m/s^2)_kalman,Acceleration y (m/s^2)_kalman,Acceleration z (m/s^2)_kalman,Gyroscope x (rad/s)_kalman,Gyroscope y (rad/s)_kalman,Gyroscope z (rad/s)_kalman,Linear Acceleration x (m/s^2)_kalman,Linear Acceleration y (m/s^2)_kalman,Linear Acceleration z (m/s^2)_kalman,Acceleration x (m/s^2)_kalman_max_freq,Acceleration y (m/s^2)_kalman_max_freq,Acceleration z (m/s^2)_kalman_max_freq,Gyroscope x (rad/s)_kalman_max_freq,Gyroscope y (rad/s)_kalman_max_freq,Gyroscope z (rad/s)_kalman_max_freq,Linear Acceleration x (m/s^2)_kalman_max_freq,Linear Acceleration y (m/s^2)_kalman_max_freq,Linear Acceleration z (m/s^2)_kalman_max_freq,0,1,2,3,4,5,0_max_freq,1_max_freq,2_max_freq,3_max_freq,4_max_freq,5_max_freq
0,0,0,0,0.0481,2.33,4.13,9.51,-0.542,0.687,0.106,0.537,1.55,0.227,,,,,160,48100000.0,1.463419736700115,2.6484537738988654,6.092889287550026,-0.3187510235565466,0.3145161461482566,0.03330267414380804,0.3877622363809398,1.033243588940277,-0.013169637769090844,,,,,,,,,,-0.20896511333499573,-1.8657134614883184,-0.1554961002591726,-0.7209403649395899,0.3584736513587581,0.4984315526585999,,,,,,
1,1,1,1,0.0982,2.42,4.35,9.29,0.0589,-0.055,-0.0525,0.847,1.87,-0.0648,,,,,160,98200000.0,1.6602537775924904,3.394926273954203,6.779927689281071,-0.08911621004342163,0.25650043551558466,-0.006259237643385658,0.5012641249495172,1.4085110271714023,-0.02696445673141645,,,,,,,,,,-0.34343196243877905,-1.970330464991916,-0.05508064107130358,-0.7585247902504203,0.4685548603419685,0.4280255026772264,,,,,,
2,2,2,2,0.14800000000000002,2.19,4.28,8.2,0.142,0.18600000000000005,-0.0231,0.643,1.69,-1.13,,,,,160,148000000.0,1.8275763887474807,3.8808051418069263,7.241242301112036,0.0662071802422998,0.2398657520319153,-0.01569812932973936,0.5528653347536601,1.5653579152739998,-0.4509916883185031,,,,,,,,,,-0.3934426847007342,-2.0149457238875916,0.02071522892898759,-0.8039981856429531,0.5034382179486746,0.3774364721955597,,,,,,
3,3,3,3,0.198,1.97,4.4,8.49,-0.117,0.191,-0.16399999999999998,0.515,1.73,-0.831,,,,,160,198000000.0,1.8793860668141384,4.176922036259316,7.7051696696326575,-0.0581536042633876,0.22621184894538265,-0.10154665091248984,0.5374134311991194,1.6604457630034144,-0.6128193793044563,,,,,,,,,,-0.39194497356004776,-2.0846811807259016,-0.03163014082977928,-0.7535499111421416,0.5380694456984937,0.4443510924767961,,,,,,
4,4,4,4,0.248,1.59,3.95,9.46,-0.0547,0.306,-0.17600000000000002,0.237,1.29,0.113,,,,,160,248000000.0,1.7686686783032963,4.046612647942329,8.388528798215804,-0.05580690451702141,0.25025202163385696,-0.14488702741656692,0.410307538592752,1.4451642974127332,-0.2940435918950315,,,,,,,,,,-0.5002385173408683,-2.1248994238633707,-0.13465813836129145,-0.7744991364927534,0.6342571617552819,0.4613274887010944,,,,,,
5,5,5,5,0.298,1.73,4.04,8.31,0.116,0.0745,-0.0616,0.478,1.29,-1.02,,,,,160,298000000.0,1.7536000193019678,4.042810651677739,8.357430065178868,0.06094686290224805,0.1954486285605629,-0.09635741128122507,0.4392840876355468,1.3548940243840704,-0.6159029604575265,,,,,,,,,,-0.5071724195498736,-2.084053981844188,-0.02455764888708918,-0.7703078648038354,0.6483268822011498,0.42661661396207656,,,,,,
6,6,6,6,0.348,1.14,3.91,8.3,-0.187,0.458,-0.0781,-0.0111,1.12,-1.03,,,,,160,348000000.0,1.5128742523778669,3.9664335983170464,8.33454895845933,-0.10755069255893053,0.2786169333732889,-0.08571740506818849,0.2457634147218828,1.218213353957578,-0.8000297664488614,,,,,,,,,,-0.46140836073771296,-2.0585571017151003,-0.14767333153808246,-0.7670855757579512,0.5579325515325311,0.4879948301527623,,,,,,
7,7,7,7,0.398,1.09,3.78,11.7,0.0932,0.373,-0.0665,0.157,1.08,2.27,,,,,160,398000000.0,1.3465633664864545,3.8592145520534142,9.67832365819932,0.028873849241497218,0.30873186103686856,-0.07451760569104132,0.20757696963047248,1.1377868120841923,0.5662665122557853,,,,,,,,,,-0.7823119152376999,-2.185917343875724,-0.31143684092733376,-0.8635232695300118,0.8076350469521852,0.4917063440350609,,,,,,
8,8,8,8,0.448,1.61,4.92,7.18,0.0272,-0.234,-0.145,0.68,2.06,-2.15,,,,,160,448000000.0,1.4502635353521405,4.469282797904186,8.679998708014091,0.0277363483355392,0.1349833962012882,-0.11559457148294365,0.4108962227767735,1.6744271821199492,-0.642921698118853,,,,,,,,,,-0.5699272130954358,-2.1293069404596494,-0.0012866188150101752,-0.6917578103761579,0.6735135561977618,0.469498744064809,,,,,,
9,9,9,9,0.498,1.47,3.81,9.14,-0.318,0.2,-0.0366,0.58,1.02,-0.214,,,,,160,498000000.0,1.4580352694072818,4.090122212172323,8.863866237845377,-0.20721640384059206,0.1558296053205801,-0.06955668679484793,0.483683680729796,1.2936123800605384,-0.4519644213601082,,,,,,,,,,-0.5327741344931649,-2.1325021572188305,-0.12403694273175822,-0.6669359890094186,0.7047289637299027,0.6042429263850585,,,,,,
10,10,10,10,0.5479999999999999,1.24,3.87,8.54,0.0687,-0.225,-0.0659,0.349,1.1,-0.828,,,,,160,548000000.0,1.3721679663747224,3.9635274898334485,8.73440030221539,-0.019711326359058118,0.03363811878754347,-0.06742557519099428,0.4257092681814568,1.1809482609371509,-0.6193809903260273,,,,,,,,,,-0.5696279123262344,-2.0728088530572197,0.048183857826975436,-0.6114210842730606,0.7640411937465915,0.5315727362546675,,,,,,
11,11,11,11,0.598,1.32,3.83,8.54,-0.243,0.069,-0.0354,0.326,1.03,-0.805,,,,,160,598000000.0,1.351622117500315,3.88673434422791,8.65668568667758,-0.1714520692456645,0.044987895295315335,-0.048761127443891314,0.3827889645529664,1.0931105994723846,-0.7020219653453905,,,,,,,,,,-0.515829650885016,-2.0644018555326524,-0.0017553008650168936,-0.5772950468327884,0.7312364169398011,0.6035541703705338,,,,,,
12,12,12,12,0.648,1.5,3.85,9.27,-0.073,-0.345,-0.118,0.458,1.11,-0.091,,,,,160,648000000.0,1.4100603352759975,3.8656079710594815,8.901871214834516,-0.10454679367750973,-0.08020175348616368,-0.08911341804884397,0.4151640391174674,1.1029386453209522,-0.4299831604955664,,,,,,,,,,-0.5863493729283228,-2.0926694806664816,0.08624216125755411,-0.5025776742166581,0.8640983770675005,0.6035529700190686,,,,,,
13,13,13,13,0.698,1.63,4.09,8.38,0.0119,-0.478,-0.16899999999999998,0.419,1.29,-0.942,,,,,160,698000000.0,1.4966834865583007,3.9946583396468496,8.693241233526228,-0.02541280682311306,-0.20790744577572529,-0.13567117398901732,0.4168152553368158,1.2117906816594188,-0.6579431267397189,,,,,,,,,,-0.5667906355739164,-2.077636162423468,0.2456535381459048,-0.4117116610646018,0.9008676891223736,0.570289642176467,,,,,,
14,14,14,14,0.748,1.83,3.61,7.62,-0.18,-0.21600000000000005,-0.259,0.469,0.779,-1.67,,,,,160,748000000.0,1.6279603780683438,3.773437111153593,8.264187573706561,-0.13046594794956484,-0.21050549399384014,-0.2075469936188267,0.43927856084739497,0.9599473310354056,-1.1085308605527195,,,,,,,,,,-0.4230517726620521,-2.026971927264328,0.2564877422785187,-0.3658495146125091,0.8397306873731285,0.5801510574132235,,,,,,
15,15,15,15,0.7979999999999999,1.87,2.91,5.26,-0.773,0.648,0.243,0.552,0.206,-4.07,,,,,160,798000000.0,1.7232878835451606,3.2768651466407936,7.063191756431053,-0.5671141342491286,0.06511453030744424,0.0550309832523547,0.4878003202898831,0.5212211219687858,-2.427035712712841,,,,,,,,,,-0.035355818182003104,-1.8578346351049584,0.07260873075674162,-0.487217031125023,0.4295112442556844,0.7316702289340543,,,,,,
16,16,16,16,0.848,5.3,1.23,4.79,0.11,-1.3,0.7979999999999999,3.7,-1.23,-4.57,,,,,160,848000000.0,3.1319793831661924,2.0996908910927097,6.154428709973493,-0.10696629219118092,-0.3731534179828344,0.4880319753580317,1.870515181987936,-0.4978243485397548,-3.381125997889774,,,,,,,,,,0.15070143343805714,-1.658755218358228,0.7895304071918059,-0.4853433346376144,0.712652160993122,0.6896291855340889,,,,,,
17,17,17,17,0.898,1.63,-0.405,2.79,-0.275,5.43,0.39,0.608,-2.91,-6.63,,,,,160,898000000.0,2.5404233258948987,0.6592160904828571,4.809417360419337,-0.22115730806433886,1.489946023065416,0.4308991083358436,1.327056272843422,-1.9014830307871031,-4.827589209403214,,,,,,,,,,0.6167758987636287,-1.373566599752427,-0.6936681485676639,-1.8316892317210336,-0.5562712447420692,0.21063784341337632,,,,,,
18,18,18,18,0.948,0.261,0.299,13.6,-2.71,3.77,1.27,1.76,-1.57,4.05,,,,,160,948000000.0,1.6426701764304927,0.4520519210736258,8.323664550232909,-1.9125052722406328,2.2219572598611594,0.9199255856792226,1.5134200658615344,-1.7085912139247947,-0.8751102765666836,,,,,,,,,,0.2641602500732794,-1.8989762150693184,-2.274499600681652,-2.103233976961944,-0.4846620820347278,1.207994151108627,,,,,,
19,19,19,19,0.998,-4.25,-0.958,11.0,-2.84,0.708,0.47,-1.56,-1.49,1.58,,,,,160,998000000.0,-0.6781638896673852,-0.35888417978300624,9.393594088298572,-2.542804710388903,1.7359010169509737,0.6577097639568328,0.1904439191073808,-1.5813917577828305,0.2179535479039938,,,,,,,,,,-0.029299460590881437,-1.8746315236257207,-2.3544845386929394,-1.326821314361472,-0.18623715367917984,1.5985538409589402,,,,,,
20,20,20,20,1.05,-2.5,-0.826,9.88,-0.0999,0.282,-0.7490000000000001,0.193,-0.624,0.453,,,,,160,1050000000.0,-1.3956958750510284,-0.6275275218993114,9.588046609882033,-0.8826749404381404,1.269125698536942,-0.16211816052676653,0.19154420443495185,-1.0242800953622997,0.3226008958343872,,,,,,,,,,-0.4953724305542049,-1.7843933634224758,-1.5759332144417932,-1.2209323457543602,0.2625142096203664,0.6827721279452302,,,,,,
21,21,21,21,1.1,-4.74,1.43,13.9,0.0137,1.26,-0.982,-1.66,1.82,4.56,,,,,160,1100000000.0,-2.712853332573644,0.5557787616950788,11.311853659028532,-0.2735235817197047,1.2661958870437693,-0.6399438160917803,-0.6054665418436538,0.6308225833123329,2.2091750234853262,,,,,,,,,,-1.1461539016059263,-2.0355674514970303,-1.6746601628741713,-1.2154502391530135,0.4913150879078698,0.34277277922847554,,,,,,
22,22,22,22,1.15,-3.43,0.294,7.96,0.0272,0.057999999999999996,-0.581,-0.633,0.4,-1.44,,,,,160,1150000000.0,-2.995302296281252,0.4052269666365715,9.971869459154158,-0.06916023959946865,0.8783041856162492,-0.6055914490002337,-0.6173185274989841,0.4965056221764107,0.5844898762083506,,,,,,,,,,-0.9575407209319066,-1.7920656833999895,-1.1051209164574145,-0.9086928797985678,0.4429157877595158,0.2632376672081053,,,,,,
23,23,23,23,1.2,-0.0982,-2.83,4.56,-1.01,2.36,-1.96,3.2,-2.37,-4.66,,,,,160,1200000000.0,-1.854275638380475,-1.4553869814360016,7.808344298086556,-0.7085286408269604,1.3540031119100202,-1.3949383354944955,1.0258742054520549,-1.1715301189351963,-1.7504610018991993,,,,,,,,,,0.04089831584240919,-1.6363346643720469,-1.507769673822028,-1.0612336214714355,0.0016520877803344394,0.17166440547190456,,,,,,
24,24,24,24,1.25,-0.316,-11.1,2.94,-3.89,2.25,-2.35,4.11,-9.06,-5.58,,,,,160,1250000000.0,-1.2484242340570102,-7.002108378144578,5.8621064542790675,-2.8705677358698654,1.6416632305175891,-1.9515464979430184,2.353458794664803,-5.761875530351848,-3.4554477097505467,,,,,,,,,,1.3630308674055092,-1.2441071720538568,-2.4128735021369043,-0.6946203385053863,-0.21065756127411228,0.9392558391998234,,,,,,
25,25,25,25,1.3,-12.8,-4.64,12.2,-4.06,1.88,-3.39,-8.05,-0.219,4.82,,,,,160,1300000000.0,-5.79802406344454,-5.643634245534918,8.395831944400863,-3.6788726228627056,1.7181813338225949,-2.7898746694562706,-2.1247863048235454,-2.5364449586755096,0.2289458758549205,,,,,,,,,,0.4166943574865261,-1.5766855869987466,-3.393529723450736,0.057145558918489485,-0.26938446644633296,1.1664594817770428,,,,,,
26,26,26,26,1.35,-18.4,2.19,9.53,-1.25,2.04,-1.71,-13.7,8.12,3.27,,,,,160,1350000000.0,-10.761324833067544,-1.1384264991122803,8.849242829539609,-2.028278667580534,1.8215013194199263,-2.1605256791599734,-7.107421717197213,3.664600469424898,1.5828834993851144,,,,,,,,,,-1.0694031377028088,-1.5313418148718716,-3.0395415936206724,-0.003975291825528228,-0.9198812799306164,0.423991890831418,,,,,,
27,27,27,27,1.4,-14.9,1.7,8.03,-0.89,2.71,-0.000535,-9.87,8.19,2.69,,,,,160,1400000000.0,-12.39134606729526,0.4939832831236704,8.521730673663427,-1.2547362866167333,2.106754151142169,-0.9016870014413928,-8.296593718720228,6.297955765447531,2.075793756649776,,,,,,,,,,-1.6635167239879047,-1.4097018490728457,-2.863379960476768,-0.4857558068555543,-1.3964609587458034,0.26123243813664343,,,,,,
28,28,28,28,1.45,-7.88,-3.02,4.42,-1.44,1.74,1.06,-2.1,3.55,0.00455,,,,,160,1450000000.0,-10.614547918297651,-1.5269464680175044,6.881965094440122,-1.3806363675896407,1.989007602611283,0.2415806166949797,-5.629224536948357,4.698904761035057,1.1536349418163514,,,,,,,,,,-1.1792185216002191,-1.1421529411675229,-2.440580731589316,-0.7801392144522136,-1.3610969355725748,0.6028688619681769,,,,,,
29,29,29,29,1.5,-7.43,-4.33,4.32,-2.32,1.62,0.905,-0.989,2.3,1.05,,,,,160,1500000000.0,-9.360310444433157,-3.139012803276855,5.857757922412324,-2.0190015946026394,1.870537581114034,0.6282202218072523,-3.631805916667052,3.302968507059908,1.1074945883236915,,,,,,,,,,-0.6992205002714265,-1.0701856366872895,-2.3961714092822897,-0.7456678771146551,-1.2515283439051823,1.0276671186977793,,,,,,
30,30,30,30,1.55,-3.99,-4.43,4.88,-1.75,-0.32299999999999995,2.54,3.09,1.93,2.52,,,,,160,1550000000.0,-7.245208268720387,-3.8814733932221417,5.466875693492316,-1.8361956286442176,1.1663015502532388,1.7424020112321332,-0.7383553764257411,2.504030349603609,1.7363700138858316,,,,,,,,,,-0.6252833608014385,-1.0571469985134248,-1.521620012659104,-0.7155601150976092,-0.6443677985833619,1.4238493762765818,,,,,,
31,31,31,31,1.6,-8.2,-7.47,3.33,1.34,0.715,0.973,-0.56,-1.69,1.25,,,,,160,1600000000.0,-7.621253878977084,-5.94527370570068,4.6126081468570055,0.3222581787642993,1.0214110174019817,1.2939958989264635,-0.6615809996640623,0.0635003736406472,1.5198284338926416,,,,,,,,,,-0.9866148418007348,-0.5696687935382321,-0.7893275582226231,-1.1004657119274948,-0.31284104353519776,0.2278333576331187,,,,,,
32,32,32,32,1.65,-7.71,-7.67,6.37,0.987,-1.02,1.87,0.257,-2.6,3.75,,,,,160,1650000000.0,-7.65620664318354,-6.937182480727758,5.315167813789996,0.7739981352928397,0.3660152848365282,1.6296900544402408,-0.2661710823661196,-1.4864054781468865,2.5127450627827903,,,,,,,,,,-1.316359995831527,-0.4415136417636737,-0.20597635115263954,-0.8262452574881277,0.333165878078784,0.29160707076395176,,,,,,
33,33,33,33,1.7,-2.35,-6.32,4.85,0.846,-0.897,1.87,5.84,-2.24,1.34,,,,,160,1700000000.0,-5.566351772864685,-6.582234264829697,5.129205740492142,0.8229286010196671,-0.039476229720503235,1.7697422606984734,2.362275038099301,-1.9249263912490449,1.990615707875738,,,,,,,,,,-1.016017584923833,-0.5875312693208121,0.33016102876539405,-0.7881786937931795,0.7090495527641528,0.43808830559072703,,,,,,
34,34,34,34,1.75,-5.0,-1.96,-17.2,-1.94,2.7,-4.54,3.28,2.24,-20.4,,,,,160,1750000000.0,-5.343293556486518,-3.9239374080940888,-3.7974322642563534,-1.0546805001080777,0.8400336108648884,-1.9075641428958168,2.7573164556660803,0.4986677992600352,-7.9781304758431695,,,,,,,,,,1.8886053523194648,-0.3926188769260785,-0.14355670780239074,0.019473460668903184,-1.6203367961644153,-0.2813704799275262,,,,,,
35,35,35,35,1.8,-16.3,-1.43,18.8,-2.51,-0.8079999999999999,0.28,-8.66,4.55,17.6,,,,,160,1800000000.0,-9.658603128358012,-2.489647022290117,5.236435142467479,-2.0436749542319785,0.31093182047005363,-0.6326556994769028,-2.15735095018149,2.8561609943251782,3.409760864051899,,,,,,,,,,-0.7577067346442707,-1.2712019569013668,-1.345504936615343,0.6865896023723751,-0.15125767692951111,1.0863171037614479,,,,,,
36,36,36,36,1.85,-20.4,1.62,5.97,-0.268,0.894,0.27,-12.6,7.34,4.84,,,,,160,1850000000.0,-13.88911295865208,-0.12614460364206706,5.529695275213717,-0.8369758843038395,0.4981260664683458,-0.10658957723233076,-6.652465864078388,5.4653323191995815,4.046531771932373,,,,,,,,,,-1.8504723961437084,-0.996627608453969,-1.2365326232321852,0.6018225576354139,-0.6837859080263773,0.5162246401933376,,,,,,
37,37,37,37,1.9,-0.6559999999999999,-2.28,4.3,-0.0473,0.36,2.65,7.76,2.67,3.39,,,,,160,1900000000.0,-8.677238093821018,-1.3648501025747697,5.0380950531604025,-0.3003342220700989,0.4537806479219782,1.4999459194006708,-0.4485142992208964,3.8387127027831567,3.754230847872485,,,,,,,,,,-1.3458805998361656,-1.107783115254689,-0.5227766096365516,-0.4269963348200917,-0.1972364059294553,0.7647926924568716,,,,,,
38,38,38,38,1.95,6.81,-5.44,-0.113,0.422,-2.3,0.466,15.6,-1.17,-1.2,,,,,160,1950000000.0,-2.5775737887291448,-3.7085128820647366,2.9788207639916924,0.19054392216246646,-0.43032160063974295,0.8973640942690615,6.459686360175015,0.9241145235465068,1.5485089588856351,,,,,,,,,,-0.14044190614532534,-1.1908093302386809,0.8006294824496104,-0.4184829834606886,0.7566912999661219,0.5840515395234286,,,,,,
39,39,39,39,2.0,8.4,-4.9,1.12,-0.622,-3.79,-4.31,16.6,-0.122,-1.21,,,,,160,2000000000.0,1.7459545583229559,-4.393750054962473,2.2357124036140714,-0.3616382050793729,-1.5089475424944419,-2.137478288173313,10.824658782992103,0.3153745744519275,0.32036602328293506,,,,,,,,,,1.0533771552390052,-1.7877474627609846,1.442885405141502,0.6991044624432203,1.8023511805013859,0.363444396641995,,,,,,
40,40,40,40,2.05,-10.1,-19.0,-2.8,-3.83,4.79,-8.89,-4.03,-11.7,-5.31,,,,,160,2050000000.0,-2.9195867302669622,-12.793962249629582,0.22256512538359585,-2.7186398994497765,0.5133318110913241,-6.07283598076882,4.430362046445176,-6.676439626076133,-2.1863846139330443,,,,,,,,,,2.3582481844231595,-0.9326403832105667,-1.7847879565639198,1.0282052624719362,0.39844220024359206,-0.20399788854981046,,,,,,
41,41,41,41,2.1,-14.1,-12.8,8.08,1.3,4.71,-9.35,-12.1,-3.27,8.36,,,,,160,2100000000.0,-7.32300391177059,-12.797434734811892,3.363763899274614,0.0123154356896924,1.860673649321714,-7.9827614913953875,-2.685253504068867,-4.69421316158283,2.5090749085969644,,,,,,,,,,0.4661195006058971,-0.961711045807766,-3.046036231403773,0.06203929888347436,0.15314772411647873,-2.317906756601809,,,,,,
42,42,42,42,2.15,0.153,-7.13,-3.47,1.34,-7.0,-7.57,-1.69,2.45,-4.45,,,,,160,2150000000.0,-4.3785722396974185,-9.538031836075827,0.6318022066474578,0.9145727837443042,-0.9840488011381604,-7.742204937628579,-2.256839370139287,-0.5369551542216655,-0.589243227130567,,,,,,,,,,0.632589072915376,-0.9825254636887358,0.2173150033959041,1.9547413609446056,1.1639282166793206,-2.1912018915133658,,,,,,
43,43,43,43,2.2,-1.02,-5.93,4.53,-0.232,-9.0,-6.16,-6.26,2.33,5.27,,,,,160,2200000000.0,-3.0557951716054643,-7.463013636045604,2.1902007301105715,0.13539396748759247,-3.557572806159916,-6.82009866056743,-3.980029274891464,1.1313421943233657,2.019408099254192,,,,,,,,,,0.0034165773040205475,-1.3038813690447444,1.9951562848763071,3.995966939130393,2.7203186233346317,-0.9102279783736849,,,,,,
44,44,44,44,2.25,6.57,-16.0,-5.66,2.31,-1.44,2.6,0.504,-8.57,-3.49,,,,,160,2250000000.0,0.7353340229408372,-12.372726754063336,-0.9481059898099612,1.6131954150196046,-2.8777253162513707,-1.3300821821618258,-2.0498460357643005,-4.5139234310774805,-0.4334897000433737,,,,,,,,,,0.11296335872624445,0.030672010301752938,2.9345916652375763,1.7220971694416631,2.1629413199891987,-0.5301840080046606,,,,,,
45,45,45,45,2.3,17.2,-18.7,-7.08,1.51,-1.14,3.41,12.7,-10.1,-5.78,,,,,160,2300000000.0,7.2199596076875805,-16.011610416082227,-3.399478250754011,1.5430666884729127,-2.319827976138264,1.4324292268389796,4.299333113831337,-7.7644931511457775,-2.813862256289137,,,,,,,,,,1.260742007390048,0.34201197604279737,3.3275476076147563,0.1170215225908826,2.004239058970314,0.06217450848002416,,,,,,
46,46,46,46,2.35,4.16,-7.3,3.41,-1.06,0.86,-0.603,0.0982,1.48,5.02,,,,,160,2350000000.0,6.014791372999128,-11.001469228199003,-0.6772253080653869,-0.22590464674596802,-1.2989430602710004,0.2461847478159547,2.4909246025803498,-2.385070374955257,0.6739286392529138,,,,,,,,,,0.9915069894896908,-0.7665573158703943,1.4774396626355482,0.1536566752493395,1.4307760493466681,0.5233659397412057,,,,,,
47,47,47,47,2.4,3.56,-9.13,-1.38,0.969,0.6890000000000001,-0.6409999999999999,-0.735,-0.424,0.0408,,,,,160,2400000000.0,5.047969294848743,-9.925167115713613,-0.9581764126319242,0.5861191451087221,-0.6607132249961047,-0.2708649095704277,1.1023017294403756,-1.2439124473724923,0.3920472081411957,,,,,,,,,,0.7744857175547765,-0.7450826808552279,1.159426076742741,-0.33153088944524794,0.9409148644739992,-0.2011564877853212,,,,,,
48,48,48,48,2.45,-1.98,-14.2,1.78,0.951,0.0244,-0.775,-6.66,-5.65,2.72,,,,,160,2450000000.0,2.279996499434668,-12.383669596340642,0.13647553433970228,0.8340819599905228,-0.440757378742464,-0.5646739184414402,-2.239037823693563,-3.8078397293863233,1.4284979914995173,,,,,,,,,,0.2425462119435535,-0.3346319633377985,0.627155337634224,-0.26257519642483584,0.9761874327540562,-0.45511848643052205,,,,,,
49,49,49,49,2.5,1.59,-11.7,3.57,1.16,1.76,0.26,-3.24,-3.13,3.91,,,,,160,2500000000.0,2.008240696063188,-11.990483713302385,1.5091095947918425,1.0555667289317994,0.2657965633129277,-0.08405544955158463,-2.6699093261256284,-3.4134010299248767,2.533311958071513,,,,,,,,,,-0.12167678443308792,-0.4459868126261389,0.013154490124628323,-0.9736124056276492,0.7455206752757374,-0.5360621305168648,,,,,,
50,50,50,50,2.55,5.54,-16.1,7.72,2.85,1.46,0.43,0.8640000000000001,-7.52,6.92,,,,,160,2550000000.0,3.399227641366468,-14.353911161143332,3.992062513564632,2.2750133664745142,0.6491960168677589,0.21553514481287472,-1.14871217003106,-5.803054148049723,4.486352542272115,,,,,,,,,,-0.6413940672335908,-0.4721408037795471,-0.17571073667039133,-1.9372677369886568,1.3527134846620896,-0.9871531378239842,,,,,,
51,51,51,51,2.6,10.5,-9.0,-5.04,3.65,0.649,0.963,6.23,-0.561,-7.65,,,,,160,2600000000.0,6.1958739892937835,-11.27481899209001,0.3812780397887541,3.2094159209522104,0.6491330820610784,0.6511563159700589,2.027508522317218,-2.7526732331373016,-0.9169924429840676,,,,,,,,,,0.2363918450078483,-0.4281125363761547,1.0320421951655807,-2.425594876341815,0.6228580205781427,-1.485015368123726,,,,,,
52,52,52,52,2.65,3.24,0.773,4.43,3.07,-0.0806,0.6890000000000001,-0.6729999999999999,8.88,0.541,,,,,160,2650000000.0,5.031700044135554,-4.345988086597888,1.999852071193244,3.1146727119354987,0.41485201426071294,0.6732115529808518,0.8650548638802571,4.016445073481824,-0.267865276286241,,,,,,,,,,-0.3715944216073906,-1.1828453364420108,1.2466299202817086,-2.042700300293577,0.3813234968275697,-1.3033447076175282,,,,,,
53,53,53,53,2.7,1.9,-1.13,1.75,-2.06,1.51,1.19,-1.59,6.81,-2.84,,,,,160,2700000000.0,3.79827681697577,-2.4964385797323434,1.8999676890977144,-0.401890208671555,0.7664496644819904,0.9743949625268208,-0.1917414937604212,5.6420304261595895,-1.4130306494400922,,,,,,,,,,0.4656596530324956,-1.5024548165090734,-0.04504096163849864,-1.244621168867526,-0.4679455138947906,0.4068451466740384,,,,,,
54,54,54,54,2.75,1.99,-7.24,0.915,-3.44,-0.635,1.18,-0.866,1.46,-2.59,,,,,160,2750000000.0,3.0860851744120867,-5.224511885061943,1.506203145156,-2.466504756299693,0.31651375053291764,1.094221177507,-0.4819810035857944,3.2084833289029464,-1.937040717724676,,,,,,,,,,1.0625093519467348,-1.2882274989997171,-0.3821764971640007,-0.30324051237555943,-0.3464910482636955,1.5322381698455574,,,,,,
55,55,55,55,2.8,8.47,-9.92,4.13,-3.42,0.588,-0.971,5.82,-0.654,2.29,,,,,160,2800000000.0,5.206545558275858,-7.924937888473124,2.5551291667395795,-3.1144735286256005,0.40367450806209465,-0.1093860144962806,2.230752939495201,0.9608824788700518,-0.0550783406894324,,,,,,,,,,1.4862028302434138,-1.6211694377317092,-0.9747627127402256,-0.30065849061473593,0.2928638909971326,1.6327902213643803,,,,,,
56,56,56,56,2.85,4.86,-0.915,-3.6,-2.72,0.4970000000000001,-0.787,1.59,8.31,-4.18,,,,,160,2850000000.0,5.070058293567016,-3.8934468640183417,0.09446810006893848,-2.8464003622868246,0.4336366935253839,-0.5042982251576749,1.9549361591503889,5.23737570650529,-1.8915752273850133,,,,,,,,,,1.7525067379600363,-1.7970947341758452,-0.5406310571039246,-0.17078143436878127,-0.4177654751197726,1.253618564372761,,,,,,
57,57,57,57,2.9,1.3,-0.654,-14.4,-5.46,1.19,0.0496,-2.12,8.49,-13.4,,,,,160,2900000000.0,3.585217017291998,-2.0304059544294377,-5.700044408719213,-4.6225296602562125,0.6764674224929786,-0.1814873362642316,0.20085010002565,7.130096016141138,-7.015354098908403,,,,,,,,,,3.0568169972424535,-1.3204755586441759,-0.572412218453542,0.4512563710325607,-2.0734182437153605,1.8032716214289044,,,,,,
58,58,58,58,2.95,-2.35,-22.9,7.46,-6.6,-3.4,-1.41,-6.0,-14.7,11.3,,,,,160,2950000000.0,1.2476258524836972,-14.032734810542744,-0.4389997367770437,-5.966363174370662,-0.6322839349747211,-0.8974622847118191,-2.4683512311949283,-5.572960011626667,1.139005016136414,,,,,,,,,,2.123648190289074,-0.7021812439245086,-1.4748468957782273,1.9000301206356618,0.4960029470521866,2.8335397738851555,,,,,,
59,59,59,59,3.0,3.08,-29.5,10.3,1.16,-5.42,-0.653,-0.35100000000000003,-21.4,14.7,,,,,160,3000000000.0,1.969308226667972,-22.92812617735775,3.8541740878811153,-1.1234859427917447,-2.1693819178896714,-0.7549901037856379,-1.5569218941642131,-14.782803728675717,7.1766289545908615,,,,,,,,,,0.044248578651572334,0.1103394542120864,0.3999787989930547,1.3891076523126848,3.4500104738973283,1.0864403948034786,,,,,,
60,60,60,60,3.05,8.48,-8.96,2.0,2.87,0.69,0.802,5.22,-0.7290000000000001,6.23,,,,,160,3050000000.0,4.533550561239911,-14.894905879692542,3.1129233462680714,1.590375421009171,-1.2513763292175089,0.1524209165361703,1.3602536688098774,-6.6048159659206735,6.7551709709325145,,,,,,,,,,-0.4907458758198855,-0.6102636144183539,1.1537267871568986,-0.4178456987631753,2.6358587491899983,-0.21231497157809054,,,,,,
61,61,61,61,3.1,1.68,-17.0,1.91,5.7,-2.11,1.05,-1.02,-7.95,4.55,,,,,160,3100000000.0,3.4096767769036926,-16.10556825825444,2.632025757905303,4.3831613044206135,-1.5270377327423934,0.6755283620684684,0.3356560558966524,-7.38758604014845,5.77338518795679,,,,,,,,,,-1.2818071554028454,0.015112409612209075,2.3454670813122718,-0.9452640036515998,2.838781552001608,-1.4472703430286842,,,,,,
62,62,62,62,3.15,4.38,-15.4,-1.44,5.64,0.779,0.71,2.23,-5.86,-1.39,,,,,160,3150000000.0,3.791839601055168,-15.699788108394735,1.0041353806976585,5.237273666585132,-0.7866834972968045,0.6956183580668011,1.151090286161363,-6.498675175331409,2.584103983695621,,,,,,,,,,-0.914717781517416,0.2176623870788813,2.376282923436691,-1.7596489161732904,2.071321460800163,-2.1199908496057653,,,,,,
63,63,63,63,3.2,0.136,-19.5,1.37,5.5,1.24,0.902,-1.69,-10.2,-1.2,,,,,160,3200000000.0,2.3519834935997586,-17.885331036545654,1.150398574480238,5.415815140413809,-0.1360160311377795,0.8158972131325105,-0.07187785600374408,-8.652496879911226,0.899345790510981,,,,,,,,,,-0.8809148241203103,0.6547637704590307,1.8590242303731936,-2.2216566119686094,1.6416783236971515,-2.352964015753076,,,,,,
64,64,64,64,3.25,3.96,-15.6,-2.72,2.69,-2.69,1.08,2.56,-7.15,-7.52,,,,,160,3250000000.0,2.9853024298485584,-16.57101267900326,-0.3968864693731224,3.5634273876822258,-0.9559735179671852,0.9698158666864848,1.0610332143821002,-7.778185516908055,-2.849113990736996,,,,,,,,,,0.10382423476355793,0.6210116866267091,2.389870675284334,-1.099395176360874,1.473476402435623,-1.2778731543150688,,,,,,
65,65,65,65,3.3,3.06,8.34,-14.0,-0.993,-0.0513,-1.98,0.862,16.3,-19.3,,,,,160,3300000000.0,3.014722120578918,-2.244419983625201,-5.835058677003561,0.4670066923411342,-0.6655277609497426,-0.7493315189800727,0.975357904906356,6.233046152567004,-10.17337449574782,,,,,,,,,,1.985267377626189,-0.6308430368457026,2.287843136848253,0.2337544157452204,-1.041308863226068,-0.5537388287824434,,,,,,
66,66,66,66,3.35,-1.71,8.8,0.103,-5.28,2.04,0.624,-4.21,17.4,-3.92,,,,,160,3350000000.0,1.1538855379068316,4.107345416857166,-3.4611767276613588,-3.4384985879121146,0.2030828840194316,0.051043624444566005,-1.2567173914140453,12.731159430316088,-7.3892481342994785,,,,,,,,,,2.012765729558647,-1.7278052042588183,0.22579879177839,0.7035608152739031,-2.091688712487346,1.485378176838242,,,,,,
67,67,67,67,3.4,10.6,-28.3,-17.7,2.98,3.55,2.35,9.7,-19.1,-21.2,,,,,160,3400000000.0,4.87424738660521,-14.530468723185615,-9.153489517939251,0.9233336889039618,1.2776118082102397,1.3908712041677955,3.4596817580734265,-5.791572203658353,-13.538069216437172,,,,,,,,,,3.1204890725598746,1.058876171241952,1.200842949675442,-2.1194076433332034,-1.8183271819644924,-0.8356314043307678,,,,,,
68,68,68,68,3.45,1.83,-0.594,-6.89,-7.52,2.15,-1.4,1.56,9.06,-8.59,,,,,160,3450000000.0,3.675267503020255,-6.515454937180596,-8.248605023144687,-4.814519908962702,1.5576923804344858,-0.2356434934277698,2.641949810278561,2.8506417674942166,-11.335090697179899,,,,,,,,,,4.164727859085924,-0.6238113681562107,-1.0189615033031043,-0.26313964819394514,-2.782368426307024,1.5707479073617023,,,,,,
69,69,69,69,3.5,1.15,-9.96,10.7,-0.531,-0.414,-0.779,0.373,-0.193,10.4,,,,,160,3500000000.0,2.680688343198064,-8.496450050306757,-0.6734439439565012,-1.903559501815868,0.9246798336583686,-0.5523106777141018,1.6652637483365471,1.0795294344516884,-1.6581972541491723,,,,,,,,,,1.5774008455281832,-1.0720987635352208,-0.8413328773334579,-0.6867984441271276,-0.5001203556102952,0.610735015678718,,,,,,
70,70,70,70,3.55,-3.16,-59.0,1.21,-9.71,2.21,-4.41,-4.7,-49.3,2.37,,,,,160,3550000000.0,0.3803273205602435,-37.541587423539795,0.0795081427141966,-7.2085983252808346,1.3373323459217383,-2.8005649781996773,-1.0747105596135782,-28.23660277518986,0.13523603378627191,,,,,,,,,,3.6645116233038246,1.3392214460268712,-4.566925117159057,0.7061090896250865,1.0952211909054737,2.522251947835855,,,,,,
71,71,71,71,3.6,-1.74,-12.2,19.2,1.8,-0.695,-1.35,-4.65,-3.46,22.6,,,,,160,3600000000.0,-0.4547657347630149,-22.96736651737359,7.723385504275856,-1.0866066973124129,0.684851320245441,-1.9551783352359235,-2.6137201203016702,-13.818957737640266,10.136994832929568,,,,,,,,,,-0.5005332892097908,-0.410779019319975,-2.6141037300470864,-0.5688118245843858,2.406878914154276,0.2911476213760757,,,,,,
72,72,72,72,3.65,1.69,-2.33,-0.74,3.31,4.82,1.62,-1.67,6.61,1.48,,,,,160,3650000000.0,0.38995243339754027,-11.0985939591688,4.33994334009385,1.9012043042114184,2.012442340880411,0.12842916250002556,-2.2074888656631915,-1.93123179719052,6.2827289829273845,,,,,,,,,,-0.9927951197249216,-0.8354099991916353,-1.5336599862377245,-2.6287213713525333,0.2746861977442561,-1.1311066064271935,,,,,,
73,73,73,73,3.7,-0.373,3.16,-0.199,1.93,-0.86,1.14,-3.25,12.5,0.485,,,,,160,3700000000.0,0.08946285037717032,-2.8983224297673638,2.525391438154648,1.9207730186768401,1.0902436933685822,0.7179708164409039,-2.6562454172161107,6.466383473744908,3.7014650164106206,,,,,,,,,,-1.0306895635374715,-1.320661988715765,-0.1136923339421282,-1.7951823267146978,-0.2877292356726403,-0.8798490376905799,,,,,,
74,74,74,74,3.75,-11.8,-0.797,1.09,5.03,-1.96,3.19,-13.9,8.75,0.29100000000000004,,,,,160,3750000000.0,-4.5932141477545505,-1.6898291859856784,1.9515591587319985,4.033716924822028,0.11096185026841066,2.1586650058962467,-7.496201745452554,7.7952328251615794,2.1830583296862627,,,,,,,,,,-2.3036423270246016,-0.4806279082771873,1.495493538573935,-1.3118138037218692,-0.3602392699842727,-1.4541712500581867,,,,,,
75,75,75,75,3.8,-18.1,-51.7,-7.14,0.487,-1.89,6.75,-18.1,-42.4,-10.3,,,,,160,3800000000.0,-9.91287551484894,-30.45121932506441,-1.6830104935505084,1.623467214321391,-0.531447664240003,4.8344867715652935,-12.060684514538504,-21.41365747875148,-3.3746469933930494,,,,,,,,,,-0.8514590224453801,3.6922141621082174,0.8542919325560825,-0.3575768035302416,0.4185616573273746,0.2443024767138861,,,,,,
76,76,76,76,3.85,0.0718,-13.2,-2.2,2.85,-4.42,-0.885,2.4,-4.17,-5.24,,,,,160,3850000000.0,-5.980401002750144,-20.529856545788487,-1.889689517333742,2.4569845529941343,-1.7798688096465545,1.5011801873265118,-5.83597693598211,-11.379475867321267,-4.205139059518035,,,,,,,,,,-0.3577094372249759,1.9724163478535552,2.4245499184577732,0.6399456087730702,1.0727619319695718,-0.6200286580906341,,,,,,
77,77,77,77,3.9,11.5,-0.0168,-14.6,-1.92,-0.0464,-0.773,12.9,8.9,-18.4,,,,,160,3900000000.0,0.9042725447981228,-8.732576039206164,-6.970942359638162,-0.5174917973484772,-1.2233380269075154,0.1757920687901542,2.2290613659138057,0.42126542904551023,-10.524972613140553,,,,,,,,,,2.3610586039010006,0.226726022506087,2.4078744581734632,0.8023899523188257,-0.6540624085929874,0.2571093627253792,,,,,,
78,78,78,78,3.95,2.67,7.71,6.4,-3.06,2.75,-4.29,3.21,17.3,4.36,,,,,160,3950000000.0,1.599706112160476,0.7237271595248806,-1.6255861303509658,-2.2453092780189805,0.05230357053187529,-2.4268634838742216,2.6513136002904574,10.243095940272926,-3.897887421427144,,,,,,,,,,1.819659449494368,-2.0519526469779734,0.07719216300142934,0.6401703215291852,-0.861884163015748,0.4724189044280211,,,,,,
79,79,79,79,4.0,-18.1,-5.76,10.6,3.8,-3.88,0.472,-19.0,3.82,8.66,,,,,160,4000000000.0,-6.159043139062251,-3.0051345318701514,3.2618864795685796,1.8629139278740767,-1.210163936724148,-0.7374110645951109,-6.6686528804877865,6.505460104791343,1.693133145085694,,,,,,,,,,-1.6132023168261822,-0.8351578441861109,1.393260460351952,0.8893169221340009,0.5770198014118048,-0.7356882948666413,,,,,,
80,80,80,80,4.05,0.998,-3.76,-9.14,-3.84,4.02,1.86,1.13,5.78,-11.4,,,,,160,4050000000.0,-3.3402344774253443,-3.439265815017277,-1.6960664251527682,-2.0126269409909634,0.4689820633393012,0.7763554343069912,-3.3116656445745463,6.083310895480852,-4.136189335225623,,,,,,,,,,0.8709138985300894,-0.7084880669845449,-0.1933897690505494,0.17915729814842568,-1.5217877999995928,0.962345310375836,,,,,,
81,81,81,81,4.1,12.0,-9.61,-22.6,2.0,-0.6659999999999999,-1.99,12.6,0.0536,-24.2,,,,,160,4100000000.0,2.7015323277699403,-6.988121535124147,-10.052917407498892,0.7142421880273591,0.10459566241207352,-0.8358715362190552,3.5376275093559015,2.574588076761508,-13.068996258356414,,,,,,,,,,3.0012195121040643,0.16029919485991068,2.0916207393414767,-0.4520151057901456,-1.771854652844268,-1.0682346247940464,,,,,,
82,82,82,82,4.15,16.2,-35.2,-6.95,-2.53,-1.8,-5.3,14.9,-25.6,-8.11,,,,,160,4150000000.0,8.017917721526409,-23.213078167780274,-8.812451376888284,-1.4904541173285373,-0.5068754422346926,-3.4375576762721014,8.42864378460925,-13.820364039191954,-10.861152582449755,,,,,,,,,,4.6860125860350355,0.7069924153417081,0.9763151365578984,0.29335494598178863,0.5334578341907574,-0.3584111038632419,,,,,,
83,83,83,83,4.2,-2.86,-30.4,-1.29,-2.53,-1.27,-0.652,-5.86,-21.1,-0.7559999999999999,,,,,160,4200000000.0,3.7336389080263066,-27.34635436392096,-5.805170277131866,-2.196900427769373,-0.7518768488579534,-1.8141396851055032,2.2779923815968304,-18.05642553233972,-6.362138153879293,,,,,,,,,,3.378522173556444,1.3317914383298397,0.2492336058534609,0.7639673231924706,1.0212825814950048,0.5199607211366041,,,,,,
84,84,84,84,4.25,0.6920000000000001,-12.5,26.5,-3.21,2.09,-1.92,-2.7,-3.61,28.7,,,,,160,4250000000.0,2.5356863483752443,-18.808055523120338,7.109599475272857,-2.8853746100906714,0.16050870433786255,-1.8758348609629016,0.13517908911188048,-9.649968880082898,9.248221741315358,,,,,,,,,,0.3001490531857116,-1.1874880407242805,-2.346743399083707,0.09316491981623493,2.3616633096057904,1.3445797456703827,,,,,,
85,85,85,85,4.3,-5.16,-1.7,4.26,0.901,0.033,-0.8009999999999999,-9.34,6.79,6.85,,,,,160,4300000000.0,-0.4952674137286106,-8.969027930645789,5.970403555918196,-0.3122602265695713,0.11957198905827268,-1.2494230391921672,-3.9434811973856094,-0.08345818017018125,8.18048579776814,,,,,,,,,,-0.9942136652925444,-1.4289093573329288,-1.0847315045149,-0.15470155437960265,1.3274310518836052,0.11220089927194396,,,,,,
86,86,86,86,4.35,-6.12,1.29,4.49,1.02,1.68,2.19,-10.2,9.97,6.48,,,,,160,4350000000.0,-2.7105739650345337,-3.0689501192786395,5.378576493647149,0.5931065780363494,0.6205479443323504,0.7550665470708029,-6.636645447165827,5.766706058640598,7.423395790650789,,,,,,,,,,-1.799561758366226,-1.443560944248124,-0.7654582196408146,-0.8106738623557568,0.2037566124324364,-0.014067886325689808,,,,,,
87,87,87,87,4.4,1.56,2.14,5.66,2.05,0.0342,1.96,-1.55,11.3,6.97,,,,,160,4400000000.0,-1.0286041285672962,-0.07322655167937064,5.491082256212247,1.5831705996904963,0.4323007271626825,1.4572996156109428,-4.447061646995686,8.986561158695071,7.221534895655192,,,,,,,,,,-2.015857685780769,-1.7733467973576422,0.022172403387108432,-1.2301745804833475,0.2869475650937355,-0.2297532925402465,,,,,,
88,88,88,88,4.45,-1.09,-6.05,5.28,3.04,-0.337,1.36,-3.49,3.45,5.36,,,,,160,4450000000.0,-1.0527849675375052,-3.5105336631201416,5.4066971251392015,2.5731911204985893,0.1853164490372218,1.4005935832043752,-4.035087457076955,5.7648049851612475,6.392742685819584,,,,,,,,,,-2.079510955912804,-1.294192045191383,0.4794852173302474,-1.352410710489146,0.7017568904219531,-0.6815110806531569,,,,,,
89,89,89,89,4.5,-1.85,-58.8,-1.17,1.51,-0.238,4.12,-3.28,-49.2,-2.49,,,,,160,4500000000.0,-1.3667689207078173,-35.30810283375015,2.7775040944385467,1.8506761413155344,0.04941054961198663,2.9854586786250015,-3.7100545197421377,-26.21952584681313,2.437969400028701,,,,,,,,,,-0.4247202864759361,2.571452362368305,-0.20442738461816265,-1.6796804788902564,2.3155094300130545,-0.07002236436437617,,,,,,
90,90,90,90,4.55,-0.529,-18.6,-3.65,2.62,-0.319,2.26,-0.197,-9.04,-5.89,,,,,160,4550000000.0,-1.0368127809841123,-25.699092547227025,0.20795451516511188,2.3734870577672966,-0.0688677912030314,2.5626626616996804,-2.1978344760774107,-16.22266272754306,-1.2698077482743722,,,,,,,,,,-0.09764902137824916,1.8270588978252813,0.8292387064513824,-1.5134268742726686,1.2450798352671786,-0.5199064209197874,,,,,,
91,91,91,91,4.6,2.83,-4.54,-1.62,-0.622,-2.35,0.938,4.01,4.83,-4.28,,,,,160,4600000000.0,0.4861352988176975,-13.5302697328443,-0.522814322772875,0.3378377818417553,-0.8012260736948824,1.6158122020603722,0.4743734294815356,-3.9719994537122383,-2.61000515579211,,,,,,,,,,0.5646638233561431,0.1906326686696385,1.3608302376859087,-0.21505139995943126,0.6616628311044485,0.4362586397353605,,,,,,
92,92,92,92,4.65,6.34,1.84,-12.5,-0.713,0.236,-1.83,7.06,11.3,-15.1,,,,,160,4650000000.0,2.7916858696160194,-4.690661482171095,-5.310982717374541,-0.3762822068214404,-0.4682242705715398,-0.3924009684784491,3.3092045853167416,4.914863375065612,-8.170798837679126,,,,,,,,,,2.120385349671868,-0.6869863078885963,1.7309061841193465,0.10127283463105917,-0.8289596867424885,-0.01409310916201806,,,,,,
93,93,93,93,4.7,0.8809999999999999,6.42,4.82,-2.03,0.1,-1.51,0.8009999999999999,16.1,3.03,,,,,160,4700000000.0,2.039160307781584,1.6992000541876342,-1.2608783453796593,-1.50010258350388,-0.2857956643951045,-1.0437356657196255,2.2295295548529577,11.423557757673352,-3.1839809787332447,,,,,,,,,,1.2842555550303068,-1.9970485194920795,0.7450698075375604,0.4356041905229222,-0.6863229396179552,0.552098877865483,,,,,,
94,94,94,94,4.75,1.26,-9.43,13.4,2.69,0.403,2.05,0.987,0.246,11.8,,,,,160,4750000000.0,1.7322872317522149,-4.7013233469185165,4.600160666262139,1.347374071175512,-0.06465757042011899,0.7592878807210361,1.6946736046297306,4.9192737866534335,3.4871847271905367,,,,,,,,,,-0.7844042260884786,-1.5520981032701395,0.6352981170647217,-1.1038526979245935,0.9158018302848956,-0.12746914100325288,,,,,,
95,95,95,95,4.8,9.01,-2.94,8.65,-1.31,5.33,0.077,9.72,6.66,6.83,,,,,160,4800000000.0,4.598621828430156,-3.6883672882075285,6.219181310765192,-0.4585030436105389,1.6672991513193454,0.36165173237931103,5.14923423183583,5.9322121106839685,4.975472375714509,,,,,,,,,,-0.047011835025466436,-2.427308935741705,-1.4234194354633751,-2.2788309969174283,0.32176463233693586,0.4204037690108837,,,,,,
96,96,96,96,4.85,9.71,-13.3,-15.7,-3.52,-0.259,-2.53,9.8,-3.62,-17.4,,,,,160,4850000000.0,6.611743286365567,-9.216121244376481,-2.5435391732322383,-2.5390108031705063,1.0488601174006584,-1.3235976727753846,7.151190494032411,0.3737260120489463,-4.986531696075343,,,,,,,,,,2.981189147142015,-1.2973595439241263,-0.6936364871018954,-0.9020805541682012,-0.5656178082854729,0.6901411953002131,,,,,,
97,97,97,97,4.9,6.23,-32.6,-6.64,-0.918,-0.95,-3.02,4.85,-22.9,-6.78,,,,,160,4900000000.0,6.461393315911974,-22.66444175121788,-4.181197981382634,-1.4374171517335201,0.4071253642171781,-2.312257882782144,6.160626154379544,-13.169386351024759,-5.785019461653231,,,,,,,,,,3.3744484861589426,0.3457892129323862,-0.3202008186359398,-0.5992130258155332,0.6474047847393035,-0.08596412705608751,,,,,,
98,98,98,98,4.95,-5.48,-31.4,4.41,-3.53,-2.22,-3.46,-8.45,-22.1,5.49,,,,,160,4950000000.0,1.7582635192151308,-27.68835548679987,-0.7466597664646035,-2.859477954980167,-0.4363141846168447,-2.981159943870068,-0.12862477783779802,-18.366161083414205,-0.7651571975066718,,,,,,,,,,2.383140687903201,0.7388733820964344,-1.1925263764365241,0.9755584842968176,1.7093602861640196,0.716490849774856,,,,,,
99,99,99,99,5.0,6.19,-10.3,17.6,-2.08,-0.581,-1.35,2.12,-1.81,20.2,,,,,160,5000000000.0,3.5037074199647877,-17.68812443825236,6.587859429799103,-2.329766468842253,-0.4827656080042714,-2.0305228801612216,0.8393121740536125,-8.732037428791166,8.568947085138253,,,,,,,,,,0.3090746919425704,-1.2506191076697664,-1.4998488528728042,0.4164420399415204,2.675405103701169,1.1636629002092358,,,,,,
100,100,100,100,5.05,-6.13,-2.27,2.24,-0.111,1.46,-0.4270000000000001,-10.8,5.87,5.11,,,,,160,5050000000.0,-0.290537999033591,-8.82099443755518,4.84969792664613,-0.8219547850100328,0.140959998909572,-1.0959926254540524,-4.1709150621211535,-0.2350294629411032,7.028955275131077,,,,,,,,,,-0.6446064662256575,-1.3285795398976517,-1.1000307625556678,-0.02570337994180271,1.0455336887297502,0.33177474770708804,,,,,,
101,101,101,101,5.1,-6.92,1.27,5.08,0.6579999999999999,1.05,2.04,-11.5,9.6,7.57,,,,,160,5100000000.0,-2.9015583177670154,-3.0175544930506657,4.941766695825575,0.18378112169895167,0.4328076017178591,0.7316582065739632,-7.325773340784265,5.488029938516843,7.269839197653128,,,,,,,,,,-1.6923694490813657,-1.3897950673857422,-0.7341120401723095,-0.490811112774879,0.18525609385957634,0.18994804515235644,,,,,,
102,102,102,102,5.15,0.22,2.59,7.19,1.65,0.269,2.57,-3.34,11.5,9.09,,,,,160,5150000000.0,-1.6721294296155615,0.2074106479705136,5.84055212128558,1.1801824790655993,0.3802171104934632,1.8030404540630305,-5.610067983510715,8.986429264799321,8.0802109676447,,,,,,,,,,-2.191461729852272,-1.7689932063207017,-0.13865086792398754,-1.061653649461031,0.272140573414397,0.07132785874029891,,,,,,
103,103,103,103,5.2,2.15,-2.98,2.7,2.34,0.0122,0.7120000000000001,-0.489,6.42,3.62,,,,,160,5200000000.0,-0.16677986516256582,-1.6257036733280763,4.585040802878554,1.9683619947771864,0.2620650852099188,1.1671840496006576,-3.4056667678565358,7.4930096282743985,6.0944365012018125,,,,,,,,,,-1.7236618607036258,-1.574533007840421,0.37174412253905226,-1.2396107002204169,0.4432956928978747,-0.4900874460400853,,,,,,
104,104,104,104,5.25,-12.7,-47.0,-0.56,2.24,-1.06,3.48,-14.7,-37.4,-0.894,,,,,160,5250000000.0,-5.103001168163111,-27.720951855579358,2.52818684431169,2.1529595981947445,-0.16238436580641746,2.5150890312780847,-8.267395128174694,-18.630487057558454,2.983045919739633,,,,,,,,,,-1.2546445572061744,2.1406830903908483,0.05694196036269486,-0.95716145439718,1.5848116999341284,-0.3799919921763704,,,,,,
105,105,105,105,5.3,-0.979,-26.3,-1.32,2.27,1.3,2.72,-0.742,-16.6,-2.45,,,,,160,5300000000.0,-3.4787591419961945,-26.90374664828512,0.9897814649379282,2.232496971395188,0.3071146435925577,2.6345107914830024,-5.028033683640503,-17.448935395289872,0.5641460608399353,,,,,,,,,,-0.5846227557618571,2.0451826843882364,0.13294409064409862,-1.5519577045834017,1.0952354003783105,-0.5255145151775368,,,,,,
106,106,106,106,5.35,3.51,-6.32,-1.23,-0.359,-0.635,1.49,4.84,3.23,-3.03,,,,,160,5350000000.0,-0.7262293160579847,-15.065811598870445,0.10237036260573852,0.4713880554625936,0.004648402709106271,1.9674919690037875,-0.7802662602542192,-5.415746110910689,-1.0360390622667008,,,,,,,,,,0.23720366609424906,0.3700899954478259,0.5241691201884089,-0.8692827133256753,0.3791086370025649,0.2871121272244853,,,,,,
107,107,107,107,5.4,7.44,-0.0431,-8.7,-0.306,-2.38,-1.46,8.67,9.52,-10.5,,,,,160,5400000000.0,2.4900483506028968,-6.426087806010145,-3.4165890816544757,-0.05690313763340405,-0.7609438582937448,-0.03004419992500007,3.2876700837962574,3.275449154370752,-5.2495822412087625,,,,,,,,,,1.516380105592066,-0.6834760471877286,1.7409702035996852,0.10575160813331004,-0.1192024963666386,0.09780531468431966,,,,,,
108,108,108,108,5.45,3.05,5.72,4.35,-0.691,1.53,-2.64,3.17,15.4,2.93,,,,,160,5450000000.0,2.7105858531245457,0.5592584346088456,-0.3117081087638169,-0.4878176339506493,-0.025435520782389642,-1.5511218008729544,3.237018167429402,10.330793532587661,-1.6078699109188794,,,,,,,,,,0.9948471075105794,-2.071862581136992,0.6278762500057609,-0.09459908251037692,-0.32611957265252955,-0.06611307772026044,,,,,,
109,109,109,109,5.5,-10.2,4.58,7.74,1.4,-4.1,0.272,-10.9,14.2,6.21,,,,,160,5500000000.0,-2.374261318243325,2.8716303175638846,2.9071560077305008,0.7950904554197259,-1.3335758763940901,-0.4886096901120753,-2.8483646567121546,12.582306513049351,1.8728009006443167,,,,,,,,,,-1.056700128385639,-1.8872267925527653,1.6185550004050564,0.9123845432002948,0.4152248083868189,-0.05354491364853325,,,,,,
110,110,110,110,5.55,-3.62,-7.87,-2.52,-1.82,5.87,2.74,-3.42,1.7,-4.64,,,,,160,5550000000.0,-2.8648967081414263,-3.305997298177032,0.7375197110444158,-0.9820519703208066,0.9791347034821564,1.3930182281872974,-3.094429308865936,6.249830932250714,-1.0268272179308922,,,,,,,,,,0.05316872307436064,-0.9357401608962572,-0.5387476754222269,-0.7465937494236897,-1.2287513038482891,0.6369787517574129,,,,,,
111,111,111,111,5.6,5.71,-6.02,-13.3,2.25,0.647,-0.0879,7.26,3.62,-14.3,,,,,160,5600000000.0,0.512335015137781,-4.866849571538077,-4.874316904304137,1.2143602232019948,0.8725027426498881,0.529941753165755,1.362710705867156,4.719517396438953,-6.936307171455653,,,,,,,,,,1.2827691359611098,-0.34359573801087473,1.033305226322487,-1.3606422545781425,-1.5532742201031908,-0.8837726205612043,,,,,,
112,112,112,112,5.65,8.75,-30.3,-2.87,-1.94,0.913,-6.19,9.14,-20.6,-4.0,,,,,160,5650000000.0,3.756747669396853,-19.4937288028976,-4.0730429105173815,-0.9292548690999379,0.8855043976545875,-3.386428231458056,4.710501979437632,-10.01405296904299,-5.6290049609999,,,,,,,,,,3.018915657690409,0.12153072610386235,-0.6943129380117401,-0.6399784336588599,0.09941022469417207,-0.7411268968278428,,,,,,
113,113,113,113,5.7,0.124,-28.1,-6.47,-2.86,-2.7,-3.35,-2.01,-18.5,-6.73,,,,,160,5700000000.0,2.325986338782553,-24.443288596614572,-5.031284143789842,-2.2413352306233145,-0.26562308943647017,-3.3651978681907875,1.817612695683496,-14.952073463550393,-6.119189805117188,,,,,,,,,,3.2988963059617262,0.8514981601773243,-0.3688910394573992,0.8108476943242114,0.6582210591679252,0.06665085620966953,,,,,,
114,114,114,114,5.75,-9.25,-28.1,14.6,-3.54,1.55,-1.68,-12.5,-19.0,16.1,,,,,160,5750000000.0,-2.233227544289,-26.54630306255279,2.816794582083461,-3.1238714884446366,0.3172833387719243,-2.38306755504498,-4.3455085297531495,-17.30758477234468,3.7732345051983702,,,,,,,,,,1.0770229932116615,0.5622532252995748,-2.514948021050266,0.6775266414663732,1.5223603290342718,0.9540719347765514,,,,,,
115,115,115,115,5.8,-1.96,-4.96,5.6,-1.04,-0.598,-2.26,-6.32,3.35,8.45,,,,,160,5800000000.0,-2.1256166157008827,-14.131786907774815,3.9294479315639728,-1.7077306365119622,0.023431298069595763,-2.311344000048764,-5.195442915208387,-5.286819602610665,5.855423207805497,,,,,,,,,,-0.08095511294975903,-0.7280669790519656,-1.5770376263622212,0.6622817143595444,1.172849775954689,0.4057541548117655,,,,,,
116,116,116,116,5.85,-8.74,0.0,4.07,0.879,0.451,1.08,-13.5,8.07,6.98,,,,,160,5850000000.0,-4.73069808587344,-6.004443533409329,3.9856370741523226,0.05013921872881233,0.16070238465695216,-0.33487479954625843,-8.770200322395405,2.4855889678829914,6.356107116318072,,,,,,,,,,-1.4738022517480558,-0.9208131218590924,-0.7665727167361627,0.1317444998414275,0.2935306108867288,-0.03987601502932528,,,,,,
117,117,117,117,5.9,-0.563,-0.28,0.34,1.28,1.42,2.64,-4.57,8.4,2.52,,,,,160,5900000000.0,-3.0892460047337886,-2.7122541933691853,2.5282058653575623,0.8859182155657769,0.5650003215715992,1.3988769370823515,-6.962193411587198,5.927217922115986,4.648196109461002,,,,,,,,,,-1.4424609084357158,-0.9966887769826464,-0.1847746285528045,-0.8325677261625171,-0.3783831381769507,-0.14657672037928593,,,,,,
118,118,118,118,5.95,4.06,1.24,-1.02,2.5,-0.688,1.46,1.01,10.4,0.449,,,,,160,5950000000.0,-0.2735082849859416,-0.4392700888520409,1.1097251346946693,1.9828030878478529,0.16272411179966334,1.434499370301435,-3.530504385365945,8.529954847503147,2.7786306879157543,,,,,,,,,,-1.1275016284665842,-1.2379763890135935,0.9697966156695956,-1.0747507710152713,-0.2642045256276924,-0.6019971644971712,,,,,,
119,119,119,119,6.0,-8.42,-19.5,1.41,2.56,-0.489,2.76,-10.8,-9.99,1.82,,,,,160,6000000000.0,-3.4820122851008968,-11.401301852061732,1.2297672296134778,2.37504993965486,-0.04651214547510826,2.2069987445339114,-6.659712085599315,-2.24691132081956,2.351829309321914,,,,,,,,,,-1.3782451530504731,0.3625441120973152,0.8162787847430805,-0.9654994628812644,0.3175125121254772,-0.6168967232627861,,,,,,
120,120,120,120,6.05,1.19,-48.6,1.32,2.17,1.2,4.49,-8.42,-9.72,0.865,,,,,160,6050000000.0,-1.6419355167282272,-32.79467428962633,1.2658399734211492,2.2357037830021267,0.3536810408434472,3.5375276311919417,-7.4174409408855055,-6.5955439765546675,1.6898634056607045,,,,,,,,,,-0.9311502020624144,1.7955527378763607,0.17786401251701178,-1.7547239326835298,0.9164673136821582,-0.3838820967213773,,,,,,
121,121,121,121,6.1,1.38,-15.6,-2.83,0.728,0.55,2.52,2.91,-6.08,-4.42,,,,,160,6100000000.0,-0.4517431705507253,-22.905831500400023,-0.3715706565285529,1.2111104175232636,0.416709316861496,2.9445143491624517,-2.9719183283490658,-6.295545981103975,-1.0303690390880758,,,,,,,,,,0.03673742326696708,1.097387990546164,0.3543086253230487,-1.5519571469759441,0.31968143461950793,-0.01838129098595197,,,,,,
122,122,122,122,6.15,4.89,-2.69,-3.11,-0.642,-2.32,0.53,7.22,6.7,-4.71,,,,,160,6150000000.0,1.6521077067316785,-11.279488362815476,-1.4663236881937125,-0.04821164700678038,-0.4619121686221647,1.5373397182844957,1.4152674559980634,1.266635495642178,-2.6686137654892597,,,,,,,,,,0.8327779853164411,-0.29629992415209144,1.2055752207460584,-0.40390976596838174,0.14688089615473948,0.4914479408333421,,,,,,
123,123,123,123,6.2,5.75,3.89,-3.76,-1.63,0.8109999999999999,-2.77,7.52,13.4,-5.14,,,,,160,6200000000.0,3.2660667153223684,-2.5553516067760533,-2.3832760235704185,-1.12315080253914,-0.05324326408825908,-0.972970100990418,4.043094273198043,8.327108591640911,-3.768923891122492,,,,,,,,,,1.6843156591241129,-1.6070359592556998,0.7359629573405577,-0.04374481590965693,-0.5666373140075757,0.29498559968637755,,,,,,
124,124,124,124,6.25,-1.12,7.03,3.19,0.535,-1.2,-1.78,-0.621,16.8,2.24,,,,,160,6250000000.0,1.5386099183736166,2.9572878128446654,-0.15522470136611674,0.0036821606815264922,-0.4214099404177623,-1.443305656015889,2.035400744004388,13.25753150167925,-1.093631750655486,,,,,,,,,,0.5134998678243811,-2.2000230677687633,1.1217848584765595,0.22118246882595569,-0.3138159614289889,-0.20059321723954784,,,,,,
125,125,125,125,6.3,-4.23,-12.0,5.51,1.58,1.28,1.88,-3.98,-2.27,4.06,,,,,160,6300000000.0,-0.7333629177311087,-5.644810053301406,2.1095853876098696,1.0749037404083963,0.12482832149186113,0.4935108923298532,-0.5539725621760541,4.2219732533773975,1.2008673297532009,,,,,,,,,,-0.4493303416840057,-1.0084746797269606,0.5150002740845644,-0.8019783916760739,0.18824033581366556,-0.28911769232355033,,,,,,
126,126,126,126,6.35,4.15,-5.27,9.9,-1.27,5.92,2.19,5.82,4.34,8.83,,,,,160,6350000000.0,1.18995452527639,-5.4292527300668185,5.223991075773499,-0.51862729605751,1.985370290151161,1.482221722287952,2.1897506744576067,4.290653772484862,4.597508526181658,,,,,,,,,,-0.3495343150639683,-1.7354330813027596,-1.6946787033569783,-2.366625697825414,-0.25840262447439555,0.5532845826328292,,,,,,
127,127,127,127,6.4,16.3,-18.3,-15.0,-1.6,-1.62,-3.35,18.2,-8.71,-15.9,,,,,160,6400000000.0,7.141060859343072,-12.831358141747147,-2.861036366511553,-1.2534979809533358,0.827864864932847,-1.3339883391551104,9.081480059945148,-3.2745000900953847,-4.528388780104773,,,,,,,,,,2.8816599523186825,-0.889255721804839,-0.17736998850630512,-1.245292848782123,0.032486013766048594,0.12071061729674612,,,,,,
128,128,128,128,6.45,7.49,-21.2,-8.74,-0.595,0.28600000000000003,-5.83,6.76,-11.4,-8.73,,,,,160,6450000000.0,7.278490801323825,-17.644254953993908,-5.2112935576043915,-0.8060011754509677,0.6538989601478593,-3.954255793412169,8.082182067650464,-8.002774147563398,-6.399029253351396,,,,,,,,,,3.6122255820839775,-0.34480162992273256,-0.1639783478808429,-0.7006371948985735,0.26278743040027425,-0.8923155288592773,,,,,,
129,129,129,129,6.5,-4.65,-35.7,-5.66,-3.65,-2.47,-2.81,-7.43,-26.4,-4.55,,,,,160,6500000000.0,2.5804426429491807,-28.028309499058327,-5.39067470215835,-2.738703360759632,-0.3490299296854096,-3.287385544443413,1.4048497827209276,-18.70822353185715,-5.575804829062984,,,,,,,,,,3.514911622363972,1.2042920809757358,-0.6033280765238115,0.9566255215116511,0.9181070717212036,0.32317418206191706,,,,,,
130,130,130,130,6.55,-1.22,-11.9,13.1,-3.06,-1.09,-3.06,-5.0,-3.3,15.9,,,,,160,6550000000.0,1.0836344675679466,-18.752744186429158,2.001417932642801,-2.9570475386893214,-0.5869186470130116,-3.1548656253102387,-1.3521647057015245,-9.742091226039024,3.9856494011277768,,,,,,,,,,1.2759762557222771,-0.5485066452370414,-1.3248837825141369,1.2699347695495424,1.7507147833972314,0.9066727723458988,,,,,,
131,131,131,131,6.6,-7.35,-3.42,6.31,-0.32299999999999995,0.355,-0.66,-12.1,4.43,9.79,,,,,160,6600000000.0,-2.2379609273459264,-9.934717346115686,3.723877345266871,-1.1670224539908536,-0.2845153312843833,-1.7008624473627372,-5.97864927325813,-1.4952714166241154,6.569861431824307,,,,,,,,,,-0.5514496646271404,-1.0013097391297128,-0.9755943466747216,0.7408063738662171,1.04952215983968,0.34951005101623644,,,,,,
132,132,132,132,6.65,-8.26,0.898,3.65,0.821,0.904,2.38,-12.9,8.96,6.76,,,,,160,6650000000.0,-4.609747173843222,-3.704704528954408,3.694343135596801,0.18398203326722795,0.09705793669347547,0.6774569041115763,-8.957995210901098,4.588710080191269,6.654514996718024,,,,,,,,,,-1.7085499108485525,-1.0173808736782592,-0.4576752993059287,-0.006817301074120204,0.09248693434032344,0.1546563103289004,,,,,,
133,133,133,133,6.7,0.903,2.2,6.97,1.2,-0.621,2.2,-2.71,10.9,9.57,,,,,160,6700000000.0,-2.438546146108699,-0.3088451141677861,5.003865763681233,0.8744394814133034,-0.13347481860546662,1.5647923061182802,-6.268499937905212,8.261285100209218,7.952546628910872,,,,,,,,,,-2.0945306321158133,-1.603526364580366,0.1603462546528373,-0.43344858760373933,0.4248896532082089,0.22353065079896284,,,,,,
134,134,134,134,6.75,0.792,-2.8,-2.74,2.13,0.8340000000000001,0.979,-2.02,6.43,-1.0,,,,,160,6750000000.0,-1.1661922931734263,-1.7415351837587605,1.9080689424079267,1.727683398718053,0.1771333158602268,1.2233935889935783,-4.439702021824125,7.195649859876268,3.9666952469584333,,,,,,,,,,-1.3030517538750792,-1.1736866671440611,0.6244628550766941,-0.9253206907322992,-0.08262396279845792,-0.5053302283645156,,,,,,
135,135,135,135,6.8,-11.8,-57.0,3.21,2.19,1.01,6.17,-13.7,-47.4,3.89,,,,,160,6800000000.0,-5.354328247865375,-33.52127548360753,2.428547249462948,2.041860879565496,0.4445254602108419,4.1062669410613655,-8.425865012868574,-24.573867964162865,3.932549048047969,,,,,,,,,,-1.281115737706111,2.889900151430362,-0.5550587551516616,-1.7650531916899654,1.5813990475308266,-0.0671593182734237,,,,,,
136,136,136,136,6.85,-1.39,-26.3,-6.25,1.93,0.7390000000000001,3.21,-0.479,-16.5,-6.66,,,,,160,6850000000.0,-3.7929735674968175,-29.368241473128123,-1.0409109998105226,1.9658433163213445,0.5390666239343532,3.5839242042000867,-5.005078778161206,-19.875638605490238,-0.7834638813931671,,,,,,,,,,-0.202149588469116,2.604580352766463,0.10228705621932092,-1.7917716592699349,0.6948813757423116,-0.3174436624271276,,,,,,
137,137,137,137,6.9,2.18,-7.39,-2.32,-0.0174,-2.12,1.79,4.41,2.11,-3.22,,,,,160,6900000000.0,-1.4405118834952733,-16.728317203984428,-1.5522576024260273,0.6180865836858891,-0.3146276318518394,2.538428386578825,-0.9522892419615252,-7.08207141673989,-1.8682581161642933,,,,,,,,,,0.3531556127891259,0.8433871690005507,0.9883583752023832,-0.6842236159384417,0.3502607550926021,0.3403904729716084,,,,,,
138,138,138,138,6.95,9.86,-0.268,-10.3,-0.129,-2.23,-0.848,4.67,2.01,-3.59,,,,,160,6950000000.0,3.0102059725853483,-7.26181089543679,-5.049378354681779,0.1103874247092962,-0.9295586231695816,0.5648240276005694,1.4678663642403826,-1.7913437251211681,-2.6348117248081,,,,,,,,,,1.3551845999684493,-0.2528337232814965,1.8080383867532348,0.11382138020633185,0.1203429848931573,0.10480995153677408,,,,,,
139,139,139,139,7.0,2.95,7.28,3.19,-0.774,0.726,-3.38,4.2,17.0,2.32,,,,,160,7000000000.0,2.986493808401544,1.1013418260684116,-1.755488423757113,-0.490617545872383,-0.3980409303875759,-1.7342123778385932,2.643933211671861,9.143445296713763,-0.4288312688360079,,,,,,,,,,1.0347135055894343,-1.9916393532039025,0.911110593073414,0.2688221598935461,-0.1708650794453878,-0.10375019279343188,,,,,,
140,140,140,140,7.05,-10.3,6.77,15.9,2.07,-6.28,-0.11,-10.2,16.5,14.8,,,,,160,7050000000.0,-2.246405240145568,4.36144839271089,5.302718079301762,1.2495065318719352,-2.2864460649272185,-0.7876243288581083,-2.884831806765072,13.424266018463602,6.351346644187138,,,,,,,,,,-1.935416935274357,-2.3576413627448267,2.1157648688233,1.5144342980496908,1.5456124203982833,0.0120148620320337,,,,,,
141,141,141,141,7.1,-3.33,-6.77,-3.69,-2.09,6.4,2.72,-2.45,2.86,-5.34,,,,,160,7100000000.0,-2.673180098056386,-2.0403678656987587,1.70766245244222,-1.0199287203418277,0.5023405877437126,1.2566128295191406,-2.6976552920171755,7.276859908536793,1.1461270884102914,,,,,,,,,,-0.27127366904297984,-1.2577809560639854,-0.3177521968410477,-0.3870921352443763,-0.737424520323331,0.8007109856135095,,,,,,
142,142,142,142,7.15,9.41,-8.15,-21.6,2.23,-0.1,-0.0396,11.5,1.35,-22.8,,,,,160,7150000000.0,2.085792498038223,-5.5540831141836975,-7.610137032420252,1.1886320258591256,0.30895892571309624,0.5011823270515986,3.413829390624381,3.827986674714972,-9.515163454166544,,,,,,,,,,2.0371735752215807,-0.09702689459833463,1.8964706275837595,-1.0172063722627924,-1.5300322397732866,-0.8631936289384768,,,,,,
143,143,143,143,7.2,5.15,-34.2,5.23,-2.44,2.52,-4.9,6.08,-24.5,4.47,,,,,160,7200000000.0,3.2926337476302576,-22.028659933421444,-2.476983045402016,-1.2772849291497876,1.0188144488465602,-2.6466170613219577,4.56150201959718,-12.656228729596796,-3.288691305521956,,,,,,,,,,2.680541849972517,0.2474699975606092,-1.1848077641902857,-0.8433629261479444,0.4584398404383762,-0.32130344073337097,,,,,,
144,144,144,144,7.25,0.393,-25.9,-2.7,-1.87,-3.37,-4.21,-0.931,-16.2,-2.51,,,,,160,7250000000.0,2.1506100771900085,-24.25510922430179,-2.5661394624904137,-1.6800775300510131,-0.3902159660067954,-3.5577538445967845,2.197214308932062,-14.718369686247893,-2.942002482453668,,,,,,,,,,2.599678630103456,0.532692775085536,-0.4611178094281981,0.7024356065601405,1.3053674387013314,-0.08175352976882086,,,,,,
145,145,145,145,7.3,-8.02,-23.2,19.7,-4.31,0.6409999999999999,-2.38,-10.9,-13.9,21.2,,,,,160,7300000000.0,-1.8550951295380909,-23.648304945504442,6.3352862789409095,-3.4672993038279034,-0.05914371929584295,-2.8713610917708383,-3.4405773303656764,-14.242155522791665,7.806496351163343,,,,,,,,,,0.4140858300412213,-0.3278074570185293,-2.720346760133744,1.0198267778820518,2.2898738027973833,1.3075552041255316,,,,,,
146,146,146,146,7.35,-3.32,-4.71,6.38,-1.83,0.0287,-2.24,-7.34,3.74,9.31,,,,,160,7350000000.0,-2.432049362461893,-12.756681125034525,6.353161711426659,-2.3546364833853017,-0.030941461840190383,-2.5034049901124065,-5.119112437676911,-3.778237679547322,8.475886192670929,,,,,,,,,,-0.4653515642386663,-1.2446774132145175,-2.041940241827962,0.8757716358602357,1.5226327777044706,0.8302873729156052,,,,,,
147,147,147,147,7.4,-13.0,-0.316,4.54,0.76,0.0611,1.02,-17.4,7.76,7.88,,,,,160,7400000000.0,-6.594247368938277,-5.601910970644791,5.628306639661665,-0.2380165798777445,-0.001391517964539856,-0.4499709185667644,-10.405510251352156,2.935928111786862,8.210585887981173,,,,,,,,,,-1.9900654102646784,-1.0335969919944388,-1.0400629422884855,0.5048885816104207,0.5082022925209363,0.17432130586835878,,,,,,
148,148,148,148,7.45,-0.175,0.486,4.33,1.21,1.59,3.08,-3.81,9.16,7.11,,,,,160,7450000000.0,-4.0660203237084165,-2.100687577911506,5.109277265703012,0.7460150463022805,0.5095253098913869,1.6072897309090024,-7.566424543467,6.557750599917058,7.720583273950419,,,,,,,,,,-2.129411023789188,-1.3007363427714975,-0.5384360754093096,-0.7778207022082587,0.03670713757460964,0.12692397282933654,,,,,,
149,149,149,149,7.5,4.79,-2.77,0.591,3.22,-0.647,0.935,2.12,6.47,2.51,,,,,160,7500000000.0,-0.5780678112366857,-2.4856163742148185,3.3029871332352303,2.427266100317391,0.13822243994813765,1.2154804879039414,-3.396832219244069,6.506687908239519,5.400728215704026,,,,,,,,,,-1.6535078441511484,-1.2744600129683326,0.7127586731053006,-1.2261805602729172,0.3929067864177492,-0.7465489822498291,,,,,,
150,150,150,150,7.55,-11.2,-23.2,1.56,2.28,0.805,2.65,-13.4,-13.7,2.11,,,,,160,7550000000.0,-4.761526430931845,-14.398682698696339,2.6061860313366725,2.327188154715105,0.3522916168480961,2.0515159315950013,-7.702768874362787,-5.251697774718979,3.935630677762255,,,,,,,,,,-1.6615547013405425,0.5837733409612431,0.08802781771129274,-1.1980666503558297,0.4908439161628931,-0.6701236105501129,,,,,,
151,151,151,151,7.6,-0.395,-45.3,-1.74,2.25,0.621,5.72,0.0963,-35.5,-2.23,,,,,160,7600000000.0,-3.0417656007819707,-32.170363793680394,0.8686935018907331,2.274733241932575,0.4385605369518783,4.189501717525362,-4.345602569449318,-22.85335564125963,1.1905695625004813,,,,,,,,,,-0.5798697193535868,2.7099229478421347,0.039441004039577884,-2.090441788069364,1.3785940666900984,-0.17339419014369606,,,,,,
152,152,152,152,7.65,-1.09,-15.9,-3.41,0.442,-0.0544,2.91,1.33,-6.48,-4.79,,,,,160,7650000000.0,-2.273060765532284,-22.81310152101841,-0.8418172941358968,1.0292589508771417,0.2802953796726926,3.4438104709283595,-1.902497865412032,-13.325607550061006,-1.4720986470709727,,,,,,,,,,0.15543977256112398,1.6286166221352651,0.397552036574026,-1.4476725434129536,0.4655567704314734,0.24586038357933945,,,,,,
153,153,153,153,7.7,4.95,-3.79,-3.73,-0.644,-2.61,0.258,8.15,5.35,-5.26,,,,,160,7700000000.0,0.5717489195443313,-11.872710229687446,-1.9964378881603104,-0.10784106569456986,-0.6476349540690971,1.5871258581266434,2.4246732858659703,-2.4581661175103817,-3.1585475850529257,,,,,,,,,,0.9846741619036506,0.025085091214660918,1.3380921532240957,-0.23681464094951635,0.2888510933754723,0.5749462552855572,,,,,,
154,154,154,154,7.75,8.24,2.45,-4.21,-1.57,1.34,-3.4,10.7,11.8,-5.55,,,,,160,7750000000.0,3.5918972436868377,-3.6355647621382086,-2.881362661949609,-1.1014834504314677,-0.009504029052476937,-1.3193621658641588,5.986848183861108,5.838741368167124,-4.223269732653818,,,,,,,,,,2.0171588225346078,-1.4933487433663328,0.7205974625596069,-0.13562420307494102,-0.4322877092446451,0.19713846923420109,,,,,,
155,155,155,155,7.8,0.4,7.8,6.74,0.544,-2.78,-2.25,1.36,17.5,5.89,,,,,160,7800000000.0,2.334765300568951,2.94115222760966,0.9650086607072504,0.016741136577086202,-0.8989727441854715,-1.8617362195399967,3.995187509225018,12.6244936131052,0.2793585449373319,,,,,,,,,,0.4470333564768915,-2.4617581424866173,1.3668307376752329,0.4927523034228916,0.3617648544183097,-0.10011484196704397,,,,,,
156,156,156,156,7.85,-4.99,-11.7,4.44,1.49,1.57,2.3,-4.51,-1.99,2.93,,,,,160,7850000000.0,-0.5501008030814156,-5.479132537263633,2.354220152012223,1.017926693770668,-0.10630814303437364,0.5637161262213719,0.3340671682024472,4.120237251123759,1.4594767404335718,,,,,,,,,,-0.4519340829510586,-1.0752969709412867,0.6951635140741125,-0.6750441260941682,0.3981721618378333,-0.15707411332297008,,,,,,
157,157,157,157,7.9,4.23,-5.92,14.8,-0.29,5.24,2.51,6.35,3.61,13.9,,,,,160,7900000000.0,1.3325467219797098,-5.7326802234617285,7.3297204267455855,0.12909627071951146,1.6101259287278131,1.6980068570865672,2.9236694662077336,3.823327252518092,6.998244351622779,,,,,,,,,,-0.9726712392454536,-1.8973396280760413,-1.4308753347148517,-2.4062294126235755,0.4818168684499038,0.510002164773701,,,,,,
158,158,158,158,7.95,17.5,-21.3,-13.0,-0.6509999999999999,-0.975,-2.18,20.2,-11.9,-14.1,,,,,160,7950000000.0,7.7001144852648356,-14.685613625832719,-0.7975748696371863,-0.4010353692218521,0.7801703152396181,-0.5620885939233242,10.36039277865376,-5.326165437907019,-2.3951128027088577,,,,,,,,,,2.305509090105761,-0.8453950591992138,-0.05950003749134336,-1.7741613145116482,0.6967625121994506,0.04857442065940641,,,,,,
159,159,159,159,8.0,0.8190000000000001,-18.3,-8.86,-1.64,-1.36,-5.45,1.16,-8.5,-9.28,,,,,160,8000000000.0,4.989980614336684,-16.764285851894464,-4.02072332783957,-1.2430010974816494,0.09306786397959176,-3.4107544472025766,6.4000163229275655,-7.173037691129602,-5.460401063476162,,,,,,,,,,3.104650432364555,-0.3246750126636427,0.023032951051410608,-0.039756261067257666,0.4655693814165657,-0.3694853309613632,,,,,,
160,160,160,160,8.05,-3.95,-33.9,-8.21,-2.93,-1.26,-2.61,-5.39,-24.2,-7.53,,,,,160,8050000000.0,1.468960223001177,-26.61922112348053,-5.695487573890622,-2.3894384507799744,-0.3413350555798973,-2.9440761363763217,1.3249175219158138,-17.081123647958353,-6.381827665249616,,,,,,,,,,3.3578465713070513,1.2449099862408126,-0.3525380106585993,0.8996614786142578,0.6524116764560041,0.21823134753125975,,,,,,
161,161,161,161,8.1,-7.31,-12.7,9.67,-2.68,-1.22,-3.27,-9.99,-3.54,11.8,,,,,160,8100000000.0,-1.9886420836519456,-18.614126519189746,0.4472361273995267,-2.5868960047309795,-0.6234307600530526,-3.134023965998407,-3.545671480242471,-9.201467312994538,1.7130828323026843,,,,,,,,,,1.202058088281568,-0.0598597513562232,-1.0474141695896404,1.5484279767151472,1.1829931150005109,0.6050245091000532,,,,,,
162,162,162,162,8.15,-7.32,-2.73,3.88,-0.508,0.304,-1.16,-11.2,5.8,6.78,,,,,160,8150000000.0,-4.088402838296613,-9.47899370755082,1.8195661948986297,-1.1741363894224164,-0.3256787853186768,-1.983566334335843,-6.840533158215008,-0.472028664501293,3.96897497880656,,,,,,,,,,-0.26972647221672136,-0.7068917489526882,-0.7298425876163601,1.062508042111742,0.4941050270586339,0.16299414912698967,,,,,,
163,163,163,163,8.2,-9.61,-0.14400000000000002,1.57,0.8079999999999999,0.757,2.43,-13.5,8.45,4.32,,,,,160,8200000000.0,-6.263089308575591,-4.110337938516628,1.7197961197049854,0.17286812558018516,0.02191563603924085,0.5886522154839378,-9.707149424142523,4.7197500839772575,4.1252583591714505,,,,,,,,,,-1.4034054864926477,-0.6220151215059905,-0.1847912311857345,0.27831424329728194,-0.3831893557482845,0.025595099980255043,,,,,,
164,164,164,164,8.25,0.223,1.1,4.33,0.968,-0.192,3.45,-2.32,10.3,6.55,,,,,160,8250000000.0,-3.70853649732086,-1.1138162676950984,2.763287946132146,0.7132175224806112,-0.04676205610660002,2.2562405788646576,-6.527296833454452,7.966929130832398,5.204801530608768,,,,,,,,,,-1.7137556867859618,-1.1086525054633702,0.3926188815348386,-0.42409212762175696,-0.1912720279544364,0.3262060321205039,,,,,,
165,165,165,165,8.3,2.0,-3.21,-2.19,2.16,-0.0226,1.82,0.8,6.42,-0.765,,,,,160,8300000000.0,-1.4602236461376643,-2.3193542077599654,0.7830917876884063,1.6964105195916293,-0.03900481956727203,2.002000385731127,-3.3732082523027467,7.066762379025749,2.546927451863485,,,,,,,,,,-1.103355308996604,-0.917926792043838,1.0694425807414418,-0.8850913764195292,-0.20673484651255905,-0.284565643055042,,,,,,
166,166,166,166,8.35,-25.2,-48.3,0.464,2.53,0.897,5.64,1.93,6.59,-1.82,,,,,160,8350000000.0,-10.810158782924475,-28.76332008176705,0.6555271562390892,2.2628946148766733,0.2614998679308472,4.122219931156767,-1.0904034499865758,6.789331747350969,0.602684685034147,,,,,,,,,,-1.404733511670472,1.3506733854738606,0.7406720202932064,-1.3466002920920783,-0.09788900132123453,-0.14706732755208188,,,,,,
167,167,167,167,8.4,-7.0,-26.1,-8.79,2.11,-0.29100000000000004,3.21,-4.0,-16.8,-9.49,,,,,160,8400000000.0,-9.30952390729251,-27.231616139350557,-3.120549765002413,2.158991636231632,0.08411958458006878,3.590579820398877,-2.342860590432288,-6.937433153231492,-3.8907786784801672,,,,,,,,,,-0.2560490060055808,2.3714191079230043,1.1000344262440804,-1.0721946285739017,-0.2500871474986172,-0.3943372045771812,,,,,,
168,168,168,168,8.45,0.254,-8.92,-2.35,-0.4920000000000001,-1.59,2.15,4.52,-0.154,-3.4,,,,,160,8450000000.0,-5.5429203773544815,-16.700407845930172,-2.8125039028678134,0.3574517977441012,-0.4533571187095224,2.7510125511033525,0.6113079957388812,-2.9901150971911297,-3.67227431599906,,,,,,,,,,0.426412372913722,0.992271626589342,1.2702401043605889,-0.2744918245130574,-0.19702497851923026,0.5073113864553591,,,,,,
169,169,169,169,8.5,8.34,-2.56,-7.04,-0.86,-1.59,-1.29,12.9,6.04,-8.3,,,,,160,8500000000.0,-0.07511813871180006,-8.568106443956053,-4.502547253905048,-0.4698944298432942,-0.8182767337957669,0.3959177363281583,5.9010652885943005,2.2645598455879115,-5.732629691702559,,,,,,,,,,1.7571733580851403,-0.3513641119127652,1.7709470035822985,0.2445548912917293,-0.2357867139812213,0.4146132517405588,,,,,,
170,170,170,170,8.55,6.98,2.67,-2.15,-1.11,1.56,-4.59,10.2,11.9,-2.94,,,,,160,8550000000.0,2.703547256211926,-2.1049499327637173,-3.562059876078272,-0.9048922961413512,-0.054730154492865994,-2.509866229802268,7.751573131923271,7.871476657442592,-4.489295571337753,,,,,,,,,,2.1938778664502085,-1.7479823089466853,0.8241458406700427,0.09013375643378714,-0.5098190712053715,-0.19690181463953568,,,,,,
171,171,171,171,8.6,-7.81,9.07,8.46,1.35,-7.64,-1.43,-6.45,18.7,7.64,,,,,160,8600000000.0,-1.4372239011779433,4.321884366915498,1.2440480753706091,0.6274695074964929,-2.4899837138146275,-1.8805221053201544,1.6384020685090093,14.172655979343295,0.910907408542074,,,,,,,,,,-0.3943496621392209,-2.238348798969236,2.715581507585858,1.9442684015931448,0.9992732642730242,-0.06292200829003435,,,,,,
172,172,172,172,8.65,-7.68,-7.78,-4.81,-0.7909999999999999,8.08,3.13,-5.95,1.77,-6.22,,,,,160,8650000000.0,-3.895947490083736,-2.638040239495054,-1.1762034061626103,-0.3364827339485277,0.9035133209114724,1.039601220514886,-1.6280810857778034,6.955480420376794,-2.2639139569072326,,,,,,,,,,0.2393142440096608,-0.7822650521338258,-0.06587658023560095,-0.7307844522681245,-1.4679788746677884,0.16884821498200195,,,,,,
173,173,173,173,8.7,7.31,-5.66,-9.71,1.44,0.8170000000000001,1.22,10.7,3.54,-10.1,,,,,160,8700000000.0,0.5175261970537917,-4.376001868642779,-4.587794110389346,0.8707653239221784,0.8757381791973612,1.1447373209785163,3.678631607745859,4.967993055530744,-5.752695104785028,,,,,,,,,,1.2807841925844432,-0.511066954114207,0.9881814700642372,-1.496225382077564,-1.44637699760667,-0.4894063211880144,,,,,,
174,174,174,174,8.75,18.3,-34.1,-7.45,-3.08,0.39,-4.38,21.4,-24.8,-7.88,,,,,160,8750000000.0,7.521171120832355,-21.470593546804093,-5.732029762698168,-1.814064327123151,0.7197917581023797,-2.07506970645178,11.30692423253288,-12.35416974903449,-6.6998135018218266,,,,,,,,,,4.072395729479392,0.11598212498548707,-0.2966823591087395,-1.0237487905571243,0.3519062830529165,0.106831654030799,,,,,,
175,175,175,175,8.8,-9.06,-28.4,-7.24,-1.58,-4.1,-4.31,-8.98,-18.7,-6.52,,,,,160,8800000000.0,0.9906600030422128,-25.45576986547245,-6.334877086677822,-1.6550007809230616,-0.8276040824577965,-3.377583023122776,2.5742693428814807,-16.046844648727976,-6.619756954733895,,,,,,,,,,3.270735249104416,1.2056554860666129,0.35125387898977145,1.1711837790032804,0.8725510480322987,-0.15196405872805274,,,,,,
176,176,176,176,8.85,-15.4,-25.0,17.2,-3.28,2.46,-0.866,-10.2,-18.9,-5.29,,,,,160,8850000000.0,-5.4648178035455235,-25.19365169028648,3.0737570722306344,-2.7593048172382613,0.2278823986208515,-1.913836958608008,-2.924508353121632,-17.707111636430408,-6.027722758495375,,,,,,,,,,1.6233234836749677,1.1888170616831104,-1.6769963293103218,0.7735693963255269,0.7408489657214221,0.9266766535270368,,,,,,
177,177,177,177,8.9,-6.0,-5.33,10.5,-1.38,0.865,-2.29,-7.94,3.71,13.7,,,,,160,8900000000.0,-5.675599850849202,-13.76985089075682,6.042576512425836,-1.8219678073573649,0.4324292359253217,-2.133064079437805,-5.083463483040187,-5.244373418007903,2.7554507360221883,,,,,,,,,,-0.2355700815487571,-0.5527516614782743,-1.9436947693900692,0.5306731669495613,0.7506689966270967,0.5188473171163989,,,,,,
178,178,178,178,8.95,-12.9,-0.208,3.73,0.745,0.6970000000000001,0.604,-15.5,8.58,7.22,,,,,160,8950000000.0,-8.520936978392363,-5.970283881604838,5.118068370532186,-0.07752822077055388,0.5173697831170656,-0.5379080794526134,-9.567337901752854,2.800107490966933,4.743156553704219,,,,,,,,,,-1.6767684422368545,-0.7363800044124627,-1.2055370702416632,0.18652722482490747,-0.12626170141617787,-0.07152345863816051,,,,,,
179,179,179,179,9.0,-3.93,2.74,5.51,0.7659999999999999,1.3,3.8,-5.76,11.9,8.51,,,,,160,9000000000.0,-6.712791850084102,-0.960905482857192,5.274752568937447,0.4957099656807845,0.7686334794048393,1.9902169089841344,-7.928441521272452,8.095386103924142,6.420230093854219,,,,,,,,,,-2.2346726090150866,-1.210933955156693,-0.7323257380652272,-0.7752742947230237,-0.4828322319382313,0.28849757006479226,,,,,,
180,180,180,180,9.05,4.69,0.606,3.74,2.0,-1.93,2.03,4.49,10.1,6.21,,,,,160,9050000000.0,-2.2217907683545546,-0.059761202388982186,4.661198275258185,1.517983432912689,-0.09776374941102006,2.0134024061057074,-2.5828325330473523,9.261882471388024,6.326631501989571,,,,,,,,,,-1.92126746194992,-1.6099014635232636,0.6547014422404892,-0.8722393351097436,0.37516634519561604,0.05867883578628556,,,,,,
181,181,181,181,9.1,-15.0,-15.3,3.27,2.15,-0.133,2.3,-14.4,-5.58,4.6,,,,,160,9100000000.0,-7.25450134909614,-8.824587347448851,4.105033255940823,1.9474842938742143,-0.10907636071100472,2.1804309398812745,-7.669618636084504,0.6253072987313146,5.557900857658327,,,,,,,,,,-2.2907535740478595,-0.06289284911569508,0.3208466760244992,-0.5631126647299326,0.4606032577812706,-0.24764183229018435,,,,,,
182,182,182,182,9.15,-7.68,-47.4,-1.85,2.84,-0.516,5.55,-4.43,-38.1,-1.71,,,,,160,9150000000.0,-7.422084353862556,-31.00972493001334,1.7243653004234276,2.554012966471994,-0.23971933220540256,4.144209830757696,-6.275100998213084,-21.90916679883389,2.3220871802529817,,,,,,,,,,-1.3597737688654767,2.8633058409009733,0.4386575338821287,-1.2689450758075382,1.5955705551549295,-0.1486833805562495,,,,,,
183,183,183,183,9.2,-7.02,-15.4,-4.94,0.6970000000000001,0.7979999999999999,2.98,-2.22,-6.91,-5.93,,,,,160,9200000000.0,-7.263723018456132,-22.03240320743981,-0.9398752344979852,1.2920388701725296,0.09344082423816027,3.4657104492247277,-4.529553092410133,-13.18106685471887,-1.3519056812830057,,,,,,,,,,-0.4472599422105938,2.0114235461588383,0.4662640388388284,-0.9295957923174448,0.1972858018120626,0.11516858350423477,,,,,,
184,184,184,184,9.25,2.19,-5.65,-3.74,-0.733,-1.92,1.04,8.0,2.16,-4.93,,,,,160,9250000000.0,-3.540364659873997,-12.610706131337281,-2.059292542545069,-0.08412093935631604,-0.5529750601499301,2.052010745836413,0.8638847837484427,-4.254013376339985,-2.9449441866331405,,,,,,,,,,0.5822949639193437,0.5076846331828404,1.133713414630903,-0.0874365389822832,0.03255063140154605,0.6330527277818258,,,,,,
185,185,185,185,9.3,16.2,-2.2,-8.0,-1.15,1.1,-3.86,21.8,5.78,-9.21,,,,,160,9300000000.0,4.234398151574006,-6.6233965530349055,-4.434233405609783,-0.8084625448594899,-0.022286817067843082,-1.3934984082961126,9.87598855467106,1.5848357880270465,-5.734271353399715,,,,,,,,,,2.6479049173334093,-1.0938329744726534,1.0053044678672154,-0.40621322299808577,-0.2399160372561377,0.02389073980761665,,,,,,
186,186,186,186,9.35,-1.39,7.97,8.78,0.84,-2.93,-4.17,2.15,17.1,8.03,,,,,160,9350000000.0,2.019223278272025,1.76942339632049,0.8484745007520464,0.3117865135529051,-0.9558091978999416,-3.0116385799860383,6.550280248888477,10.613197673693376,0.3938552239039961,,,,,,,,,,0.6882688611187506,-2.468994566056716,1.3652765225780978,0.5575485768975297,0.6982512309888983,-0.4834289664208019,,,,,,
187,187,187,187,9.4,-9.08,-8.45,2.85,0.584,3.66,2.54,-6.72,0.875,0.936,,,,,160,9400000000.0,-2.352216962999922,-4.107877331590877,1.648632479272405,0.4967751856139087,0.5260980267809865,0.22384636381731127,0.8379910345699404,4.9464854591535286,0.6352288299602868,,,,,,,,,,-0.18909931349985,-1.1244926454376802,0.07587346569073411,-0.8357614112334509,-0.27445219099506873,-0.15913556001117973,,,,,,
188,188,188,188,9.45,11.8,-6.87,27.5,2.02,4.63,2.09,15.9,1.99,26.6,,,,,160,9450000000.0,3.2216480222568675,-5.6964038629263065,11.983339167115686,1.531916187250958,1.8436572627143808,1.3114372920604371,7.321542920947001,3.226089881775738,12.19526027804598,,,,,,,,,,-1.873349218923403,-2.6487039979222318,-1.7028998455295137,-3.3830618758157494,1.719412584493585,0.014125080436052475,,,,,,
189,189,189,189,9.5,7.66,-21.5,-17.4,-2.21,-0.304,-2.1,11.9,-12.7,-18.5,,,,,160,9500000000.0,4.9696973605158385,-14.785222792479367,0.2366419134520505,-1.0109855049483325,1.154151132015512,-0.6767421622479357,9.292373132126349,-6.041391638534187,-1.4708786062285064,,,,,,,,,,2.0772838564998706,-0.8025018225704609,-0.8135439417542191,-1.6953927142575969,0.4803424255518504,0.2751108547954337,,,,,,
190,190,190,190,9.55,5.8,-25.2,-7.99,0.298,0.0757,-5.62,8.23,-15.7,-7.7,,,,,160,9550000000.0,5.296712966780482,-20.77487415688948,-3.0521562040111436,-0.12143553239368145,0.8079140095810633,-3.5576638606938564,8.835066641137916,-11.661790271885936,-4.2442069545326016,,,,,,,,,,2.9728672731990367,-0.05144578809276865,-0.4502839412415871,-1.1082431711624872,0.7935489433959465,-1.028522412121477,,,,,,
191,191,191,191,9.6,-8.73,-30.1,-5.87,-2.72,-0.91,-3.57,-8.82,-20.3,-5.28,,,,,160,9600000000.0,-0.2277218877002269,-26.137855026263324,-4.178657071620593,-1.887347342462424,0.256377092746895,-3.5648533015583808,1.2353140577715136,-16.688412845684788,-4.705362662409669,,,,,,,,,,2.8981015212218395,1.0693802837740352,-0.997684945280088,0.471981184319539,0.5841540390466762,-0.241816094134768,,,,,,
192,192,192,192,9.65,-10.1,-12.9,7.26,-2.39,0.905,-2.69,-11.5,-3.36,9.28,,,,,160,9650000000.0,-4.115928719419442,-18.524621318383392,0.3942216361949607,-2.228936112282049,0.4646177003781855,-3.054990406349935,-4.246695132609536,-8.932534088821539,1.5211981522214613,,,,,,,,,,1.0279821006441263,0.08964616820623819,-1.8666602329989044,0.7464583775483519,0.4243229272939587,0.17990920134514918,,,,,,
193,193,193,193,9.7,-12.2,-2.02,4.13,-0.746,0.436,-1.24,-14.8,7.05,6.82,,,,,160,9700000000.0,-7.2998482633706425,-9.03263522003705,1.887689043382356,-1.2211741681840649,0.4554299740482674,-1.9972172718454984,-8.789442571353211,0.3677928562685437,3.8803299420154844,,,,,,,,,,-0.5396247501914718,-0.5454937264279194,-1.4956291476397903,0.760673267244647,-0.2359237750394277,-0.03125945295480232,,,,,,
194,194,194,194,9.75,-10.5,3.79,4.57,0.579,1.08,3.5,-12.7,13.0,7.24,,,,,160,9750000000.0,-8.560231249198402,-1.6581991513679697,2.9600075090911844,0.0021738848155719017,0.6559484184813801,1.2065510538171254,-10.472770569429732,7.718545522889189,5.3761216073711475,,,,,,,,,,-1.9212187467506583,-0.8626475075836426,-0.8156285169307432,-0.1125296262505382,-0.909655875452876,0.18094910857055785,,,,,,
195,195,195,195,9.8,3.08,1.35,2.39,1.33,-2.0,3.46,2.7,10.9,4.63,,,,,160,9800000000.0,-3.975714473477184,0.07184870421938783,2.7321333230370657,0.9045274333692463,-0.1967447730679812,2.519857063471874,-4.802454999808547,9.569851625708274,5.043933515315137,,,,,,,,,,-1.7558930333074798,-1.2420522027943972,0.7199147818133567,-0.4455282530781465,-0.17414919288949915,0.3665954484674804,,,,,,
196,196,196,196,9.85,1.3,-3.34,-1.05,2.53,-0.188,1.52,2.24,6.35,0.188,,,,,160,9850000000.0,-1.8978690312608,-1.8903423084220328,1.2201344694457126,2.00915314345347,-0.1939372584739973,1.9371421564853315,-1.7709786727275687,7.696201727830738,2.8819755674121312,,,,,,,,,,-1.2260119145982304,-1.0279416623987525,1.294505789127626,-0.8859242191927429,-0.010716261567773628,-0.3637765907032928,,,,,,
197,197,197,197,9.9,-32.9,-60.9,1.75,3.01,1.69,6.76,-30.8,-51.3,1.8,,,,,160,9900000000.0,-14.108090150885227,-35.827435047961494,1.4319609748669968,2.68930069021552,0.4109014918647472,4.747895155215357,-14.266733139365392,-26.63402074468172,2.400258556663283,,,,,,,,,,-2.1608473435249627,4.141635603931221,-0.5228146177733431,-1.206803227208285,0.8598836490122801,-0.38417101200757625,,,,,,
198,198,198,198,9.95,-9.03,-20.4,-9.42,1.61,-0.541,2.69,-4.55,-11.7,-10.5,,,,,160,9950000000.0,-12.108079123290908,-26.95495020658186,-2.9063717791633086,1.955838113866008,0.1052931740188845,3.5485575983283137,-10.084094290944886,-17.943829635137032,-3.3431924999971687,,,,,,,,,,-0.7338481794492999,3.3290870353687745,0.4842438225783012,-0.5813655314749384,-0.2494764167551343,-0.4180639171669367,,,,,,
199,199,199,199,10.0,-0.16,-8.07,-3.37,-0.955,-1.75,2.04,5.41,-0.109,-4.72,,,,,160,10000000000.0,-7.4023161207250885,-16.094011075627954,-3.0917182792275213,-0.02228610836765688,-0.4903493643698925,2.669372924670061,-3.414548013735513,-7.565641561840381,-3.956174422099872,,,,,,,,,,0.2947475796675184,1.4537406085320341,0.9763189259857559,0.15660474319855355,-0.3569929084035926,0.6028113139517319,,,,,,
200,200,200,200,10.0,9.45,-2.63,-6.13,-1.36,-0.954,-1.38,15.2,5.22,-7.54,,,,,160,10000000000.0,-0.7650145119189489,-8.350712864869834,-4.306344607090307,-0.9313590940209197,-0.6392045658698577,0.30940567978405165,4.5982204015204715,-0.12560466301998385,-5.551764657192494,3.08834334363978,1.0627775113848397,2.5756878450406133,3.30944325688646,3.407516659765115,2.8690076705636973,3.0609355489554977,3.0486758401867915,3.17265699980062,1.7809909028547903,-0.2295362146635853,1.3475875759652445,0.3280176982757612,-0.33705641212785103,0.5719213021100049,3.2935255204306038,2.1833513706488277,2.767075942065771,2.638989048395798,3.0361372625880634,3.6768001076610513
201,201,201,201,10.1,5.7,3.04,3.46,-0.698,1.37,-4.82,10.1,11.8,2.71,,,,,160,10100000000.0,1.7812378923922698,-1.7997908175925854,-1.201561315418218,-0.7727747847613413,0.005851281559841493,-2.6800028124897923,6.9665018806200125,6.813972141125728,-1.8734630975064752,2.992809730715654,1.0860050702919706,2.567517490819786,3.5271288837074786,3.528506683420117,2.8508893991719857,2.4066432669076177,2.398351948818985,2.822136530729983,1.5855977806096282,-1.92715531280949,0.4154122657518536,0.04813855029228308,-0.09800966763118844,-0.19646688228405745,3.001819513464942,1.859079874757742,3.109517478396017,2.639594494547592,3.0414551793896485,3.662089758242728
202,202,202,202,10.1,-11.5,7.89,6.41,0.715,-6.58,-1.2,-8.94,17.3,5.11,,,,,160,10100000000.0,-3.449591033217802,3.772912523405607,1.8413435518526773,0.2382753625969072,-2.1085386080218016,-1.8174598666136519,0.11943185152892255,12.915850519200704,1.2357132881589856,2.68620387815848,1.1913410323275753,2.588289916161027,3.3833565906767853,3.4335689910645257,3.1384416185864197,2.2978078067567047,2.9093682875770437,2.8288427247074845,-0.5591935894065013,-2.0681487405757464,2.101148089450221,1.9053105601990985,0.7447114146530811,0.06311885913386643,2.6885593285046903,2.2560858357834093,3.4218844127022967,2.7813404566610243,2.879617261642186,3.64977083457449
203,203,203,203,10.2,-3.44,-5.69,-3.58,-0.541,6.34,3.67,-0.16899999999999998,3.43,-5.09,,,,,160,10200000000.0,-3.4458136176577305,-1.6693107684017994,-0.3259690527524435,-0.29129840140473284,0.6038677887228601,1.3806219053167008,-0.00472575089850015,7.395980577623212,-1.5806198408094132,2.712176835652073,1.1047041297849856,2.691236476336073,3.396639782992332,3.382504275285824,2.971533848062232,2.4239791064061604,3.14180466700962,3.0001721360042395,0.10287139020570628,-0.9849152502492492,0.22457880982472125,-0.6872101469932247,-1.1342019945384456,0.3854174336808789,2.8105564994072862,2.283552103872733,3.58937418103562,2.5961581124923097,3.1639511345573537,3.688992965274558
204,204,204,204,10.2,4.17,-5.2,-14.1,1.38,1.09,0.483,8.84,3.36,-15.1,,,,,160,10200000000.0,-0.4463177208784797,-3.6998481923293016,-5.832469766005652,0.8444692815087473,0.7599407200818109,0.8574894814705334,3.802551279676605,5.0474206286803485,-7.599716288418463,2.8116106316314102,1.1080764273738384,2.8834550923757414,3.212076530385433,3.4319642000264063,2.8408980554023,2.6233204545802096,2.8503074521384018,3.2811262248184523,1.5497184064217968,-0.3516920996172229,1.2332018409166488,-1.2370738623788715,-1.7160692929891197,-0.5907374435571392,2.8018645252145866,2.1481073133321122,3.4945958416119534,2.661310427601674,3.061889525246339,3.601131682536379
205,205,205,205,10.3,5.88,-39.0,4.01,-3.7,0.908,-3.47,10.2,-30.3,3.2,,,,,160,10300000000.0,2.045308932729406,-24.001346989365924,-1.8977053710659144,-2.243825071238918,0.8074752025092201,-1.6645636112899007,6.5563798444926125,-15.521442585788968,-2.7914683041034136,2.9199729440700635,1.1495644212284,2.7330942656508284,3.02116895188718,3.4135526455079432,2.5574796433508027,2.9998363664425063,2.4695644638064373,3.286819444052061,2.791367821922181,0.4630322852360044,-1.3228423629257535,-0.6513040148271496,0.7168932884640399,0.5318708734090288,2.8992737038273835,2.2152534315644887,3.1658765708202425,2.827819720910187,3.1588931070748743,3.706249069885268
206,206,206,206,10.3,-10.3,-24.1,-5.86,-1.56,-2.69,-5.58,-8.57,-14.4,-5.72,,,,,160,10300000000.0,-2.8169035042306474,-24.05808362132239,-3.4817281175550434,-1.779116624661436,-0.3153904829957105,-3.9464728425502615,0.045119009026651995,-14.868868590742464,-4.095308625160314,3.114999551886924,1.02676369237232,2.627060293667064,2.882249792579392,3.2797236518114747,2.685944323119793,3.326250480759733,2.7234105654556213,3.3493485785542254,2.4190630689529944,0.971749584067296,-0.645904034396732,1.1906845062236409,0.75006017349236,-0.23992934822102344,3.06952508912579,2.3760488120644507,2.748121326791724,2.7079842181170473,3.026736922093054,3.701129928161961
207,207,207,207,10.4,-17.8,-24.9,9.16,-2.52,2.05,-1.62,-17.8,-15.2,10.3,,,,,160,10400000000.0,-8.718010855027027,-24.54227860999118,1.5721070592760311,-2.2826002482608403,0.4440189639316405,-2.5906086626180365,-7.636442810706347,-15.061555716583712,2.313768469414753,2.900391198367672,1.0216057077096876,2.799848102870893,3.007721775555252,3.1978761056819685,2.8841033766839663,3.091552292545404,3.1765382673041205,3.3707418873585246,0.4558977025950812,1.0585355124139983,-2.3651586943415372,1.0189986673580091,0.6680278686725402,0.3260651180810388,3.0682873485401387,2.489040836149106,2.6809757902144655,2.7563172389028496,3.0730656693547433,3.5198073122900855
208,208,208,208,10.4,-10.1,-5.98,8.77,-1.7,0.745,-2.7,-11.3,3.5,11.0,,,,,160,10400000000.0,-9.262308822458778,-13.86691158786164,4.449638276303096,-1.8866814337594096,0.5406490349529991,-2.6543617648228053,-9.213447911302898,-4.260481634449741,6.181051085775057,2.9825718995423385,1.002683561634416,2.8592973945223235,3.33899784149302,3.3781789266093045,2.9042663686161454,2.7889866237835803,2.638260290866968,3.125257992606666,-0.7809584241164227,-0.34714773216477723,-2.4159583802881968,0.9977280165216966,0.4052400671757429,0.24015220694786066,3.154493605702891,2.2043966238197528,2.738811366292045,2.9019047113421803,3.117422202540369,3.7593285917092616
209,209,209,209,10.5,-11.3,0.836,7.13,-0.304,0.221,-0.454,-13.4,10.0,9.89,,,,,160,10500000000.0,-10.064855620957893,-5.411108223239451,5.521177466337528,-0.8111353556137173,0.4380255979985836,-1.3719948888646325,-11.015579749663072,4.037773152620003,7.832348882543576,2.865755100754218,1.0625996964610782,2.8484689259071065,3.4926697663040507,3.564693041367603,2.8228583189710013,2.3849531407509827,2.4151483643883283,2.9298162620654487,-1.9339212728210624,-1.0209692454760186,-1.7492480559600123,0.7517675961510861,-0.011813500044230063,0.10055223188787654,3.0116488779806785,2.0193864607155247,3.145607788521026,2.829337660568071,3.239131915405682,3.63843161884433
210,210,210,210,10.5,-7.22,4.56,3.97,0.653,0.431,2.94,-8.84,13.9,6.48,,,,,160,10500000000.0,-8.944406285637529,0.3233838418504513,4.9010569320231125,0.18385011222039926,0.43577002540635307,1.1410279999044977,-10.079085581441623,9.776658421698343,7.230256337285332,2.5892377610025537,1.073661159025174,2.8103556690586653,3.3963583149669887,3.4190755205969667,2.9557054520841963,2.2418450432401857,3.0298541203067315,2.9199953017521603,-2.4369634884468434,-1.2778254504621838,-0.7521295723916229,-0.0036082107802672928,-0.5512443989710761,0.2450925545648823,2.6866753824924885,2.497056630581715,3.4457174630335685,2.769221520030985,3.2407903643578253,3.646299892570944
211,211,211,211,10.6,1.92,-0.481,4.05,1.86,-1.22,2.01,1.75,9.11,6.07,,,,,160,10600000000.0,-4.665448940361529,-0.13922600222338374,4.560826505571838,1.3229147426525327,-0.09581554380381048,1.6474633110024577,-4.987169074545978,9.388725921942225,6.7136872723182055,2.6581735678323377,0.9446942383741608,2.7865215472239586,3.4480726198173723,3.3753341110098245,2.9074844729511824,2.5362791492475254,3.1981194153081076,3.15345948308589,-2.158302695553647,-1.4469203761227547,0.4008898267715441,-0.4872213993660103,0.17959140214741448,0.010916309502133813,2.6154847866272912,2.6194273270044035,3.5728635695282875,2.624642948460348,3.230075918477879,3.742809578166939
212,212,212,212,10.6,-8.17,-10.2,7.02,2.09,-0.28800000000000003,2.08,-7.39,-0.475,8.06,,,,,160,10600000000.0,-6.0457199363065435,-5.925285746491469,5.5439403211925065,1.8442043876401253,-0.15751642835725246,1.8995448698970672,-6.021485183641486,3.6489681144004114,7.313092596985391,2.751872499352408,1.0932186290274963,2.8912496719788114,3.0889583522620683,3.489168918940185,2.6710588858916307,2.8208974455760223,2.617432744022726,3.3253182090400557,-2.4697092428000222,-0.7365120887235809,0.27063006656026684,-0.6032876851410479,0.7089359097372842,-0.14019352509134442,2.74537897305178,2.3821626183926194,3.4748658507280856,2.892782896038699,3.2599784501043905,3.7199410821525336
213,213,213,213,10.7,-7.79,-59.3,0.7879999999999999,2.67,0.5,6.94,-4.61,-50.0,0.546,,,,,160,10700000000.0,-6.732706381841023,-36.62166030104793,3.642638646024663,2.405392059303021,0.05357945659696548,4.837113075318802,-5.413901108228736,-27.569669368445982,4.300248712186671,2.9244991426475333,1.031092620939198,2.8379246915904117,2.878962343912112,3.4253487769379927,2.5580668719006496,3.1687279129051316,2.3513518456840905,3.1710727356837265,-1.4970075003189784,3.2058206051753615,-0.18406595470895096,-1.812537273334824,2.2170343960923016,0.1537523584821247,2.869727792009258,2.342071988257071,2.9402307705892596,2.8795546015006805,3.2563899027708216,3.679578248728139
214,214,214,214,10.7,-7.55,-16.7,-6.04,1.0,0.643,3.2,-2.59,-8.4,-7.41,,,,,160,10700000000.0,-7.054598371949325,-25.16449860521641,-0.2282293030913487,1.45032689201028,0.2428131354267703,3.883006551218087,-4.198332161256833,-16.414730296507535,-0.9133862834192286,2.8692081888663044,0.9373259581866504,3.0460414776796623,3.0159892529839194,3.3090411511121762,2.6664408956019208,3.1634238296007124,3.102123078725713,3.446377018442158,-0.5113622869574332,2.3068735434797363,0.26801783151870057,-1.2627092263069228,0.4675679050330473,0.1515827056926604,3.181210431683004,2.7579581280082723,2.636751436126059,2.83639491989249,3.3219978659484855,3.7030182926372355
215,215,215,215,10.8,1.7,-6.11,-4.02,-1.11,-2.87,1.02,7.65,1.51,-5.68,,,,,160,10800000000.0,-3.606590963562472,-14.206050610175906,-1.7440809404011026,-0.2895997205798833,-0.756556600480412,2.21445147826482,0.901869217904772,-5.984228527797191,-3.0355772054855583,2.6711255859240555,0.8944746130925244,3.067538520344764,3.132768742493918,3.2692841827871306,2.8613289230303627,2.846087221276,3.1581977738782987,3.29346428494685,0.6212378468942291,0.6738019579807063,1.1789858631650505,0.07254972529840846,0.267573124121736,0.8392600439693692,3.1964473255792996,2.765779391750023,2.409322501189475,2.6338218712718904,3.2452446231026872,3.640454097852737
216,216,216,216,10.8,15.2,-2.23,-7.28,-1.31,1.42,-3.96,20.7,5.71,-8.97,,,,,160,10800000000.0,3.800403761151295,-7.318494488797325,-3.957197977673152,-0.9830351946667204,-0.05777233767494816,-1.3840077454468729,9.424119913090596,0.8207091079700026,-5.6777000942462275,2.8421496684059955,1.0150157640491941,2.886182530023483,3.340553106340689,3.4577484101776887,3.1135605660051406,2.5056869656663356,2.584316967085452,2.8517320953317036,2.5978071807099368,-1.0249676181630705,0.8942435238502656,-0.3062756306409604,-0.16165865015811393,0.13711230530445848,3.0381224365984036,2.1404599469191914,2.641950082021252,2.9169477699918525,3.2473111772696863,3.6524192219190486
217,217,217,217,10.9,0.7090000000000001,7.93,12.3,0.451,-0.584,-4.57,4.17,17.1,11.5,,,,,160,10900000000.0,2.5828512716556182,1.4510793850659158,2.542008476373308,-0.0085049496622851,-0.2267179144897825,-3.2407983935415112,7.162445556100082,10.293720623519311,1.9701528014102727,2.7384841609508186,0.9499843688534774,2.906943118805136,3.507020637477265,3.63757801975044,3.0017473767604823,2.2042057250149987,2.3190428803703282,2.736048101105763,0.6201449997372421,-2.7719492433708424,0.4373093226153735,-0.011087217509208772,0.6683929181084501,-0.446413345784586,2.7456835688056764,2.113228307179711,3.094593851583568,2.8286929636051767,3.27626927566035,3.739303925471902
218,218,218,218,10.9,-15.6,-9.88,6.86,0.5660000000000001,-1.19,2.18,-13.6,-0.458,4.98,,,,,160,10900000000.0,-4.578483172306601,-5.06554689126577,4.268229621979131,0.3819125481843251,-0.5359799916189684,-0.08156681361973339,-1.774901330535246,4.037233678966645,3.3101964995069446,2.585852680509144,0.9764600171960748,2.9889870773119487,3.3987626142539757,3.4119462730343457,2.8077428874703343,2.1518516754246564,3.2243222666605047,2.9219108197182515,-1.0340955115915105,-1.1161056228255977,0.3712913846998149,0.255051944927994,0.6945703128229859,0.1630821239608599,2.6135045339983245,2.7838587511171866,3.4733256501468994,2.833026717179308,3.201965776513923,3.6524311511399237
219,219,219,219,11.0,2.76,-5.21,12.9,-0.563,5.06,3.05,6.57,3.75,11.7,,,,,160,11000000000.0,-1.6882141846614482,-5.148623457157467,7.7189875379677595,-0.26022362815877004,1.2606113717166156,1.7435046576840354,1.8172226265453628,3.8700907792672004,7.045503390678878,2.732765084676602,0.9264754511530284,3.1302312670884542,3.162525185251338,3.4270518013194904,2.6804408570529206,2.5387725767276788,3.1840367225440147,3.2301281561220665,-1.2394905870945432,-1.7581871746332798,-1.3786770166782407,-1.792173777098424,0.47077332921184795,0.7991036145435957,2.6331488384650275,2.800761498355728,3.575191533224751,2.7730021601795243,3.177497033302602,3.623718415856052
220,220,220,220,11.0,5.15,-10.2,-11.9,-0.246,0.111,-0.872,7.25,3.45,11.8,,,,,160,11000000000.0,1.005023399463473,-8.053724588008949,-0.1241750186127284,-0.2505576525845933,0.8915282293070994,0.21919326588046428,4.155801428408379,3.625637610452416,9.162299697530068,2.7919901237552094,1.0013229471893634,3.0177058860217136,2.9282140469307167,3.539387962424706,2.623997265616989,2.7281634736911795,2.338185032296618,3.1542520223861987,-0.026991365424741204,-1.53486826772224,-0.8131019147742462,-1.331968964229617,0.35720053902975063,0.1166020024952348,2.726313730309407,2.2658243770994857,3.375373978859946,3.052207282845598,3.1677704944525478,3.7060658267549185
221,221,221,221,11.1,11.8,-35.2,13.3,-1.53,2.49,-6.21,15.2,-26.0,13.4,,,,,160,11100000000.0,5.256635885330993,-23.665841388867,5.242462286109624,-1.120030896127099,1.4047181671843358,-3.5277290128691967,8.909857492483379,-13.613688200748793,11.049007780331003,2.9924152745530934,0.8795507363181632,3.0425149352395664,2.8187908708950866,3.320395346000782,2.5435526177478973,3.1762177884883545,2.266971350602358,3.1658988135838904,1.0409564727177134,-1.2336920571626204,-2.8651553690861533,-1.6634334110530606,2.6440807927279986,-0.1719093148633638,2.8933086894805142,2.437748720815574,2.8288286197991286,2.953554749818976,3.042160832347261,3.731604211216166
222,222,222,222,11.1,-7.67,-28.7,-10.5,-2.49,-2.24,-2.73,-7.09,-18.9,-10.0,,,,,160,11100000000.0,0.16546728743761907,-26.561040849584746,-1.0509661037397755,-2.0510236193486557,0.23458009041277705,-3.062813991977652,2.022601610360488,-16.68982266471911,1.6775718942532285,2.9396837912390623,0.8743133065928097,3.0855562155854868,2.9554547200794685,3.3510558935019286,2.8449472780389646,3.08049266466007,3.3413258479032484,3.4561401072906763,2.023188402591444,0.5518188296831861,-1.5534969129086642,0.2533638621984233,1.4475008865840642,0.17716153607218213,3.169066418488974,2.914964465653875,2.550657076290032,2.896305560456498,3.0779069617695485,3.59084337084497
223,223,223,223,11.2,-8.28,-14.8,9.15,-2.53,1.01,-1.07,-8.47,-5.18,11.0,,,,,160,11200000000.0,-3.1607884078952355,-19.7971392638795,3.0271155910825764,-2.3765225623398947,0.4835289272064482,-1.9014056170367832,-2.494015699736912,-9.992191764260083,5.828101848316531,2.941948148011018,0.8792686953619319,3.276892349002376,3.2875000708491497,3.3713169036567705,2.9007378230643286,2.8784021116344807,3.1750317287344494,3.407736797198674,0.4421147314131869,-0.18933268162361164,-2.1970549295943638,0.3046893137550964,1.14384193206617,0.7330070446468662,3.2888975242792493,2.7285592267555296,2.6621346048019667,2.8069831212826175,3.00872498861072,3.55285669531772
224,224,224,224,11.2,-8.34,-2.69,6.05,-1.01,0.767,-1.62,-9.59,6.62,8.86,,,,,160,11200000000.0,-5.200626171927478,-9.95863862748115,4.235586503252165,-1.4478720124243658,0.5745374229892428,-1.73740293301215,-5.548534167743743,-0.3254636399577695,7.177962906885885,2.785763572862888,0.9632327109653446,3.0106552744222723,3.5986538616597747,3.4979250226525087,3.1345692227097004,2.378275684699096,2.3099497434633505,2.9742773725362888,-0.7053615590903393,-1.0300182508791549,-1.886308132890236,0.3070428144240049,0.469503174667795,0.3173306041692246,3.0436841755053483,2.1416129023806922,2.8878375109559595,3.0573313342934303,2.9578919376921218,3.7937696584855454
225,225,225,225,11.3,-10.6,2.74,2.7,1.11,0.364,1.43,-12.2,12.0,5.53,,,,,160,11300000000.0,-7.327175144568411,-2.655514311811736,3.621698839498965,0.2903863326052369,0.5069443055166684,0.10855376135444783,-8.411706258429081,6.846793249743012,6.444257217787269,2.5728313473226803,0.8792935583220423,2.977505163352277,3.535482149419157,3.501702576929824,3.120486539843608,2.12785726053279,2.366033181061795,2.910682573958564,-1.810753988317408,-1.1050098438587768,-0.8033676580197648,-0.07815500231379413,-0.35218861233871035,-0.13278830242925535,2.6519282014893713,2.330811888326936,3.306181387677642,3.045040397288556,3.0696771718310614,3.7587480535185427
226,226,226,226,11.3,2.0,2.53,3.64,1.13,-0.451,2.66,1.53,12.0,5.98,,,,,160,11300000000.0,-3.6536578161583178,0.32673099285450924,3.6290152110536833,0.8609643132117495,0.19939594133049598,1.5955320841597762,-4.1322260137564015,9.845473356085034,6.237560701837388,2.5041003225752787,0.7735418836120063,3.1084481560025155,3.212348000590441,3.4006386591794246,2.7381041016253813,2.1055600447436853,3.302063532040353,2.975339305810737,-1.7491363885878717,-1.5589979687236972,0.15964120858653155,-0.6533855457354028,-0.1162678475116713,0.1233912517565668,2.485599125401847,2.7548260691056834,3.595271464972214,2.7374164233839626,3.121919250548584,3.5522614321680908
227,227,227,227,11.4,-0.132,-3.84,-2.03,2.25,-0.415,1.8,0.505,5.82,-0.461,,,,,160,11400000000.0,-2.266649336688562,-2.069600982073085,1.3666876182981973,1.80491414685171,0.002143906868095069,1.7146955894791986,-2.136098122145163,7.503027779620923,3.2552285767822338,2.7876388147286053,0.938055647226409,3.2639476913159826,3.077760462014808,3.6217942599183854,2.47636019254935,2.6582508852804416,3.028422196502781,3.18056691358802,-1.217475944126445,-1.0524853361034658,0.9789815007256684,-0.9123095152131798,-0.0973664539487607,-0.3633037090309002,2.6165240155730727,2.65513303255844,3.7670821596793096,2.8088242792524865,2.9451504847450263,3.609959170624074
228,228,228,228,11.4,-32.7,-42.8,-1.68,2.77,0.114,6.42,-30.8,-33.2,-1.23,,,,,160,11400000000.0,-14.252855459453485,-25.494093196204812,0.14870089719832458,2.4607595086289904,0.038055345672409986,4.456938570243628,-14.474684248197565,-16.18229436515046,1.2583158168495878,2.8203607303203486,0.9414120573967959,3.055881451189727,2.779551347043576,3.4899741938502915,2.455700064934734,2.919847033565243,2.1937576823491285,3.0458441487079235,-2.2054999470212566,3.1670975049382286,0.21226893628165794,-0.5913578478154128,0.06464964253819695,-0.32316017267221353,2.7669799653619225,2.2401394171173132,3.150498202807037,3.008306291121806,3.062891905637913,3.7002190339686156
229,229,229,229,11.5,-11.4,-23.5,-6.68,1.68,-1.6,2.97,-6.91,-14.9,-7.34,,,,,160,11500000000.0,-13.12925531207228,-24.34726864869297,-2.581236658364332,1.9301771306489188,-0.4878429177299828,3.590353466123708,-11.21841045555153,-15.436119811419413,-2.569825047401395,3.0142277370900348,0.8174499210957227,3.2287118691247434,2.7705455776185364,3.2518016851046787,2.6556781881552247,3.2581772857956053,2.4526683629478665,3.237106470851811,-1.113023866541282,3.1268568935365266,0.9408727889762626,0.025631930646792467,-0.10794926392260544,-0.25485848093179336,2.9150677490426244,2.5629517871762957,2.5154527462881,3.0427538552205875,3.0923619056841365,3.7383475877188137
230,230,230,230,11.5,-1.84,-9.76,-1.98,-0.833,-0.8690000000000001,3.08,4.04,-1.98,-2.95,,,,,160,11500000000.0,-8.6829707459165,-15.9579729343189,-2.340877833552706,0.05239917169976027,-0.6102135412499766,3.2929203407383465,-4.650315961817888,-7.605927722221638,-2.7390865003789826,2.8255401186270626,0.7288088383844579,3.169319094727656,2.793545624507725,3.08730047619798,2.979769647196709,2.9602157649078658,3.2217993390812927,3.274397500442693,-0.17123265371025428,1.5415573141685337,0.991318847380308,0.22537475299902215,-0.2683150277373688,0.7759157581659767,3.2250772289616036,2.9622928391720165,2.2890655419059884,2.7516985459441665,3.0814362463094036,3.5308927361178246
231,231,231,231,11.6,3.96,-4.02,-6.03,-1.22,-2.4,-0.264,10.4,3.28,-7.22,,,,,160,11600000000.0,-3.7035239640164064,-9.092315673896387,-3.815693340453535,-0.8122877653460341,-1.1848251558441951,1.2199535729260318,1.828202585532409,-1.2713449282589693,-4.734078000443548,2.9796332245156187,0.8112216845046477,3.2363516737793985,3.213765798554141,3.3418235813772394,3.1068156586544697,2.765002871951681,2.712981231974172,3.0373211763324885,1.121261287335316,0.20970336386948002,1.6891841286729352,0.8391974001419528,-0.15817394324470707,0.8511205807980763,3.4910831316103033,2.371788290592242,2.320012736361966,2.876699569529214,2.7941564419360523,3.5248629839283034
232,232,232,232,11.6,12.6,-0.381,-3.83,-1.27,2.78,-5.67,18.1,7.69,-4.73,,,,,160,11600000000.0,2.7176355262903904,-4.082343892728839,-3.8214127416226007,-1.123336195463176,0.08808337210428707,-2.7954990051824664,8.8325170968747,3.943312320392052,-4.732262402228517,2.8907170143656704,0.9260089988457302,2.9092946547140386,3.4736457697989427,3.6897403055989577,3.3302992889351235,2.267980235328086,2.066219662718632,2.7243855653322013,2.5116438228665783,-1.5065236365682526,0.5534312345295509,0.009652591223032391,-0.3764830591158688,-0.18631679100571416,2.758220394399332,1.962085260287744,2.6963909023077184,3.083669489429557,3.075600072020908,3.641345020138098
233,233,233,233,11.7,-4.37,7.76,11.8,0.828,-6.68,-4.35,-1.37,17.1,11.1,,,,,160,11700000000.0,-0.07383682190971541,2.7283161930651922,2.42362325409993,0.2027373555297516,-2.0848121648342963,-3.701459329759623,4.440768902640211,11.599263394377914,2.3165751086591406,2.4775224348555662,0.8881872493396569,3.0605668161663013,3.281800949772113,3.223148947035124,3.053535899370885,1.8211359566474628,2.6165119154675387,2.876253270037268,0.04687391385367744,-2.6182875471304654,1.8736327329311544,1.7986768811830331,1.4428941173884382,-0.29330030135602825,2.4380125925473295,2.650172342271363,3.496576780118767,2.9782433115749978,3.0101872985377764,3.636593890516769
234,234,234,234,11.7,-8.27,-10.2,-3.09,0.716,6.15,3.82,-5.97,-0.7829999999999999,-4.78,,,,,160,11700000000.0,-3.3019041280466346,-4.706898057542795,0.21941962016559646,0.5515363185976461,0.5589772623625362,0.6820335827333861,-0.04062271394174388,4.3939544112911655,-0.8429610225348889,2.581060997034336,0.6595739063878401,3.3362513713407846,3.0250316107658333,3.323333396751377,2.572798552303168,2.0814419444326004,3.1848410977506405,2.955656725114721,-0.060910913430070615,-0.7451719889656723,0.2460829678239521,-0.8230008759041109,-0.6405643291459046,-0.17433356752313414,2.325869751591952,2.8765827447829437,3.573563384246221,2.8727445652506725,2.9757304564315206,3.4606702239546236
235,235,235,235,11.8,10.0,-8.25,-6.16,2.83,5.35,2.41,14.4,0.5,-6.67,,,,,160,11800000000.0,1.937064215298455,-6.744574275324461,-2.33090693347884,2.099916508864605,2.097136798592674,1.6890893487083454,6.17544891038739,2.1280403515536523,-3.437274420480508,2.685055228512764,0.8848886706456554,3.4068490300726086,2.922317470467072,3.4982500787648623,2.3929542117995566,2.5890159606488963,2.5248442326945777,3.2420114491595773,0.8646243220459662,-0.5555424939409878,0.1557644464342874,-3.216757652697866,-1.2727181068928946,-1.066806182573704,2.5931187501826236,2.2469471428463796,3.4453464583050297,2.9284866818098356,2.961289539612443,3.7135913903238484
236,236,236,236,11.8,11.1,-31.0,-5.48,-2.56,-0.0727,-2.78,15.8,-22.4,-5.78,,,,,160,11800000000.0,5.5458958565856245,-20.694131740516685,-3.589832727104324,-1.0668324819236816,1.4005099163962489,-0.9154878583120184,10.318407484696085,-12.144964608354964,-4.480302422677463,3.0010825149017966,0.9106851874815782,3.05476077072667,2.7469084656754394,3.1174461260386783,2.4208473148645298,3.2692466646140246,2.0681387496320727,3.0318184174758818,3.140937161126609,0.13526334436379414,-0.8042440736344079,-1.8772536282718204,0.18768267104160866,-0.01624368697950481,2.7127773068640058,2.1890248153291854,2.6065237293214185,3.0690307749967833,3.0285088002802416,3.6905389449401076
237,237,237,237,11.9,-8.1,-22.0,-2.96,-2.17,-1.86,-5.05,-5.61,-12.5,-2.54,,,,,160,11900000000.0,0.17144587411968534,-21.445150689200865,-3.3380419428229566,-1.8165143490545368,0.353722034695668,-3.3250741994811244,3.461907789827544,-12.351561707514673,-3.6164412705994815,3.012717120791375,0.7270307603264937,3.314753251152472,2.661153132809338,3.007299379787556,2.770851936057356,3.2043452064816718,2.575525248402652,3.2246627308228244,2.6779814965253146,0.402355106074747,-0.9054785923793705,0.2393731444965003,0.47561346187537795,-0.1389237705581095,2.8640339163871036,2.7302124698798407,2.045386997866803,2.8818588837569648,2.920685949139601,3.5589283939312115
238,238,238,238,11.9,-22.1,-25.3,3.66,-2.58,1.55,-1.73,-21.3,-15.6,5.07,,,,,160,11900000000.0,-8.600185673541954,-23.662115748827766,-0.5404061234665183,-2.3353578086097087,0.7377874888505331,-2.3954678398335143,-7.197036408719759,-14.241846514693284,0.2509348026035503,2.5991874573827203,0.672233634627904,3.08634758662552,2.842822214945692,3.025928694266463,3.216494558810739,2.7760806275304715,3.2393056417952595,3.008038430035444,0.9047479120651488,1.2013254682955394,-2.280820003312636,0.8176815763388826,0.04383454513993675,0.22469417061564548,2.6790986607073544,3.0603646536074116,2.191107015788136,2.7667473917759042,2.961615432864262,3.5484095256922212
239,239,239,239,12.0,-10.5,-5.58,9.06,-2.27,-0.0202,-2.77,-10.6,3.86,11.7,,,,,160,12000000000.0,-9.34842946020115,-13.262895522476905,3.2975875775345647,-2.2909424554582922,0.4944353341723473,-2.6137444971382613,-8.661867168960569,-3.7082798740017764,5.348285698436532,2.9491805288759063,0.8035418923685477,3.033955722894558,3.3290667296369447,3.4166717834506315,3.221227722912124,2.66459058355996,2.3057527601588785,2.9127731500163017,-0.4704908135667075,-0.3334535989583517,-2.3371013215827525,1.162846645801446,0.17105300532361403,0.4093558471789739,3.060066520894137,2.2528111878917496,2.342751882952046,2.941240836277008,2.9640632462951757,3.668489488851199
240,240,240,240,12.0,-11.1,-0.0814,5.64,-0.203,0.0489,-0.691,-12.2,9.08,8.93,,,,,160,12000000000.0,-10.038287432361816,-5.68207499344131,4.234023297188407,-0.8720351100676977,0.35139605571367005,-1.4931724581343742,-10.184882271921511,3.7332923512557534,6.942936104269452,2.4705563259947123,0.8789838632239152,2.76296271793518,3.5064344313135374,3.705484377199725,3.3409074212067438,2.0770880360144783,1.9484992486460075,2.7827748878411547,-1.6256483910925406,-0.9050727292881944,-1.5576073455855948,0.856375120457697,-0.12227306864945706,0.06443610861363153,2.6740663768048822,1.932770368461711,2.6024868525352645,3.1380879019071806,3.0021800634996514,3.733808458673051
241,241,241,241,12.1,-6.53,4.63,6.05,0.6459999999999999,0.00122,2.73,-7.31,13.9,9.12,,,,,160,12100000000.0,-8.65654497493676,0.2485108447796636,4.960003790547437,0.15957914530662576,0.23897190752879624,0.9680848557404432,-8.94736812204446,9.649356717945214,7.912208093675168,2.093527543091352,0.7722105296432762,3.0392403407112965,3.0206354812429552,3.3725613449570178,3.055875495007682,1.732344683527667,2.819711342210936,2.9091765303247863,-2.4069132118979524,-1.37845853025752,-0.6316947268206299,0.11473299384814868,-0.3067984850238306,0.2861614914919369,2.2339330699246416,2.914935703601429,3.6279913123616114,2.88963036417423,3.105832138604024,3.575357359677638
242,242,242,242,12.1,4.14,-1.3,2.96,1.77,-1.58,2.17,4.74,8.16,5.46,,,,,160,12100000000.0,-3.6166128958102446,-0.6420544495489106,4.160454128848806,1.2539761390862805,-0.34500968901509543,1.6685588816558117,-3.0555403868143602,8.78269154510139,6.820436414385848,2.3150392417864682,0.599773819181135,3.3706169117272164,2.881002971408895,3.373168596122532,2.5124067350809622,2.083599719578676,3.1301201702869212,3.0817559325118085,-1.9275752618347728,-1.4952670937666352,0.6658538546869627,-0.4262353648112944,0.4422083120588479,0.12447780780509632,2.007187559155332,3.0032261972042096,3.709338326980748,2.7872631022735366,3.035338552663472,3.565019146194204
243,243,243,243,12.2,-7.57,-9.21,6.86,2.32,-0.512,1.9,-6.02,0.382,8.22,,,,,160,12200000000.0,-5.173658457693183,-5.569572552238807,5.239662651422661,1.9784161176421984,-0.3986219960076165,1.8034423347113848,-4.331613726326477,3.8942816988052567,7.443550009591582,2.3711482157097934,0.8733621157099309,2.9719452260650376,2.7271956137668445,3.3146088748382523,2.1786825015944458,2.4201294863773564,2.231860138548736,3.1441524555497296,-2.3439505979991244,-0.8577942538958493,0.5919186051879968,-0.5517184755889877,0.9256061245034846,-0.157657053039462,2.391273113058079,2.2336057274131087,2.932387532536287,3.082971112265846,2.985015373562836,3.5126698831127596
244,244,244,244,12.2,-12.6,-48.3,1.2,2.65,-0.0525,5.45,-3.78,-0.165,7.1,,,,,160,12200000000.0,-8.098530706884107,-30.14430273088537,3.624710247298694,2.4348058202817366,-0.2874994046255158,3.928649463510488,-4.0941675463276175,1.5321627531022912,7.290594686667184,2.8276575618347244,0.8378597944085068,2.7854149161423227,2.651929957129629,3.130154094146635,1.8160775771283508,3.0260046331533554,1.9682185956452158,2.9145728179175423,-2.2980586740108144,1.1358275716607702,0.4583548766609155,-1.1319638638416087,1.350918151267677,-0.0255937010530946,2.447631109690227,2.0988251465376586,2.246562657288654,2.896630378287115,2.949709472704785,3.6327806828616995
245,245,245,245,12.3,-9.26,-19.0,-5.83,0.926,0.841,3.19,-4.01,-10.8,-6.74,,,,,160,12300000000.0,-8.555976648377284,-23.735093792704028,-0.15503782047983086,1.4094635504633761,0.07480574022571895,3.498165919816199,-4.057937108218717,-5.643992499354546,1.0438956604280545,2.86192861681623,0.6931621740760663,3.197859772844811,2.6524363971837897,2.9273210185020977,2.02668009503905,2.918502815595622,2.92423119953048,3.3817066096203083,-0.9530156367236567,1.6093648520464463,0.4067620083299365,-0.8895371555948562,0.21031736380562427,0.1060052848564302,2.86707063542304,3.0218360962122905,2.001158513181519,2.5209189313101517,2.9687533805147823,3.5558017808536815
246,246,246,246,12.3,1.48,-6.54,-4.22,-1.53,-2.69,1.28,7.87,0.826,-5.25,,,,,160,12300000000.0,-4.6032971260173845,-13.846009501398028,-1.7801042553802515,-0.5881137103914031,-0.8128361518508407,2.2054227999419806,1.07653071295554,-1.8790673446098525,-1.7582715614625877,2.25633786390516,0.6743262115978359,3.1106693567013632,2.8570350882158464,3.0969758326967893,2.5165393601971195,2.3000247761573243,3.1789401576421166,3.0795741954443163,0.4504313574255051,0.4061631322817382,1.1138421278458763,0.27985191352498257,0.15109999709657265,0.9964405277722926,2.93247220354606,2.8266856128954294,2.0634684620368633,2.196362927870358,2.841567851055647,3.491983923991536
247,247,247,247,12.4,15.9,-2.36,-6.19,-1.49,-0.112,-2.95,22.1,5.17,-7.27,,,,,160,12400000000.0,3.4719469551974376,-7.240281246302402,-3.5430662959542376,-1.2010104344553283,-0.5878324552546765,-0.7991483508496784,10.126237175919607,2.2228247912478314,-4.212202409107831,2.5340023466881125,0.9106632418607212,2.778950794697076,3.5399695720613584,3.4640098330372613,3.0824265589627102,2.06647760259496,2.200703649795272,2.5968432510176838,2.3466457519235915,-1.1444767513101908,1.2579510984253464,0.044113874518014816,0.18581570063451106,0.5571839495168854,2.7967779953658014,1.9874304895576156,2.2049883238162455,2.6516911783753696,3.047501916518233,3.6791959580436076
248,248,248,248,12.4,3.46,4.05,8.87,1.0,-2.11,-5.53,7.75,12.8,8.33,,,,,160,12400000000.0,3.467241649879833,-0.7471183766059086,1.419355826584071,0.2947347456040001,-1.076524857305469,-3.5562802940893263,9.103368483571408,8.37774288184263,1.3718349126899616,2.101041096455345,0.8558478425332384,2.7866074270859613,3.399783363263297,3.716962218935924,2.9640883949036234,1.7290975434163691,1.9763778126880127,2.5789481688197613,0.9210692297896532,-2.547242706082641,1.3053210229058156,0.4981870360240279,1.290060105431455,-0.5079660192518933,2.3624147277936545,1.9382682550559347,2.930663119848787,2.5820339622718236,3.1262444578465476,3.582104571265294
249,249,249,249,12.5,-14.1,-7.54,7.57,1.16,-2.87,1.17,-12.0,1.85,5.73,,,,,160,12500000000.0,-3.4516343242801706,-4.6537779876657055,3.878224015922583,0.8827448084140913,-1.6523206578429166,-0.8018126756332284,0.01926899060766196,4.579212452876834,3.3121764861098306,1.9648258086071524,0.6734812819183148,2.964515309652852,2.94423552868618,3.3077425232386486,2.115613626645416,1.6812660438511668,3.150886360158163,2.6836245649813253,-0.9694582765673584,-1.2661217290251827,1.4795554840755545,0.9991127064760812,1.466723436985686,0.0027145311443319497,2.030809527985687,3.046911595941521,3.606602884716945,2.601980226094307,2.884378889995737,3.4182545620155635
250,250,250,250,12.5,2.07,-3.63,8.31,-0.684,5.36,3.24,5.98,5.27,7.03,,,,,160,12500000000.0,-1.2769331085572615,-4.064992268699212,5.649933353989916,-0.18197118825111025,0.5989874451846631,1.5537484780669546,2.585109309205748,4.981185616086025,4.967425371282303,2.1740659684955634,0.6895878989894304,3.2907353062465288,2.7328740180913402,3.3438140619096464,1.6070577700147235,2.157007838744317,3.054057086560684,3.208061724285837,-0.8380228881523709,-1.6694470812742612,-0.4910134141526663,-1.232463451812799,0.43857468891611406,0.7638768113194491,2.031814890168678,2.6982070683329393,3.7578184912587376,2.2128888438632925,3.054005583047077,3.511787762355895
251,251,251,251,12.6,4.31,-9.67,-11.5,-0.131,-1.35,-0.153,9.11,-1.22,-12.8,,,,,160,12600000000.0,0.9234861029019116,-7.288492832754544,-1.2061654882641992,-0.14733259133395568,-0.026735680192964455,0.5590585405338788,5.393796137720949,1.3726806734972128,-2.942985003058148,2.3428136295026665,0.9216714218686768,2.7715187505748675,2.5450231301931527,3.4905607653295667,1.7123760388916218,2.6071072605638053,2.008797908808244,2.9371202627097963,1.1356394938933547,-0.7625877774176618,0.8642480534209134,-0.6444348633844941,-0.051177974693536986,0.2939462680631493,2.318427494839836,2.0034327586032057,2.7900922952909917,2.773647830506151,3.1418163025236394,3.653338752835492
252,252,252,252,12.6,9.32,-35.1,8.75,-1.4,3.79,-5.14,13.3,-26.2,8.36,,,,,160,12600000000.0,4.230461441101666,-23.283190288964626,2.7740514180305307,-0.9986103380166822,1.198628665466,-2.762342435196637,8.797079565443056,-14.672018347714234,2.089328024020088,2.708322074655475,0.8121959702231946,2.9386453291767456,2.5884751058941062,3.155108285767737,1.7864224212142994,3.1835220741037946,1.9370032228623248,3.1371508624350444,1.9225771966505858,-0.4234367971900774,-1.8656706601184123,-1.484149204617548,1.736948478321046,-0.14989935044718086,2.4663350349880586,2.1724072728301596,2.097377924232618,2.8557604749342205,3.025767102352158,3.802733605438043
253,253,253,253,12.7,-7.13,-27.3,-8.96,-1.97,-1.27,-3.47,-5.74,-17.6,-8.85,,,,,160,12700000000.0,-0.24386778893590666,-25.59330052509044,-1.9169182168416776,-1.658739624511489,0.40607455387440494,-3.1747640061621203,2.539487317398252,-16.375827626453454,-2.781078023555855,2.6014124397274743,0.6782324739364687,3.2317387679787184,2.7252597851495057,2.9786348236006783,2.0835543835363617,2.826333608046744,3.2011132634827186,3.3123576483962247,2.4348364556088526,0.7814392384772705,-1.2155126145680906,0.09540085113227274,0.9180151371044104,-0.13557584162136002,2.8749266193913265,3.1049905438409957,1.8676644128426316,2.5796375889688923,3.069998523320428,3.6788264628057843
254,254,254,254,12.7,-9.47,-18.5,5.42,-2.17,0.203,-1.86,-9.32,-8.76,6.68,,,,,160,12700000000.0,-3.877589361347712,-21.51386673506774,1.0161915496506402,-2.006177939449693,0.3408773937031101,-2.408521919569256,-2.5655157079911906,-11.944134659876163,1.4311815483689774,2.515534825764983,0.7110936878269589,3.1984267385662206,3.2486155119969493,3.124442058757895,2.3444742064784005,2.341132103257011,2.830817198194201,3.027838338246408,1.0259468540972527,0.3865733196051288,-1.7034040364901482,0.5158145274908424,0.8283652663463125,0.3265604114687178,2.9638764844751084,2.563936149079792,1.969254907008534,2.5968182400259168,2.965031114480053,3.8415028169175396
255,255,255,255,12.8,-9.2,-1.68,6.55,-1.52,1.68,-2.41,-10.4,7.8,8.74,,,,,160,12800000000.0,-5.973826078926827,-10.107195598885225,3.2284648124249573,-1.6757849859550926,0.7708031695081048,-2.4093833922042736,-5.93792667521496,-0.454911102038345,4.6852124315488695,2.4386573502580067,0.9320555168616004,2.8471003889601043,3.5915254273034214,3.4038852833087683,3.3783392800253123,1.9654791139492696,2.0311721665226377,2.669006468088029,-0.2746851756424097,-0.8681159739759415,-2.019283497477176,0.4478984978053768,0.042717776500596064,0.1414479845342594,2.503179064749805,1.9600686702982963,2.316344578898346,2.8195470928500925,3.0974145683817182,3.7507275847176462
256,256,256,256,12.8,-15.2,4.17,7.0,0.336,-0.229,0.952,-17.1,13.4,9.61,,,,,160,12800000000.0,-9.607563898577052,-1.8962260709376848,4.736226825216575,-0.3086321355293529,0.4498160029553103,-0.4503751922227262,-10.742723036248458,7.607339680125983,6.8778254142848985,2.0890051803430802,0.7782746482879216,2.636345889087266,3.123488470158497,3.712877655497708,2.758695673678506,1.727527960141021,1.996548921365056,2.4928524257192968,-2.0710562310201537,-1.179525373743627,-1.2134596728120208,0.4660915846001243,-0.42960210240677615,0.05041106146362701,2.151014078806289,2.1083765395124776,3.0955966269473736,2.824286661980694,3.023886489001417,3.5260927060854095
257,257,257,257,12.9,2.33,4.71,5.72,1.08,-1.03,2.96,1.48,14.2,8.13,,,,,160,12900000000.0,-4.905942359316507,1.9030859585757611,5.129513757998581,0.6350434851170954,-0.02527944592073528,1.5371853500250021,-5.481362396314454,11.443645835732472,7.435318434532919,2.022385934941312,0.5277331425583522,3.1049629750604715,2.9163779821259923,3.40613092349332,1.8274644053940456,1.716756912518292,3.108379859880164,2.8425035881072067,-2.196992822541296,-1.7854068137544208,0.08180377837660899,-0.2863506911283058,0.028239021527427636,0.33242642303679915,1.903401410651988,3.027574799966783,3.7880098899768675,2.5490259166088167,3.121210275602124,3.631389923893179
258,258,258,258,12.9,1.87,-4.51,-2.28,2.28,-0.28,1.64,2.26,5.15,-0.63,,,,,160,12900000000.0,-2.237230632029044,-1.7851492147265602,2.1673822177085538,1.7529099419194925,-0.1070575714732448,1.5971055345264835,-2.1490362708752166,7.781337841383968,3.8444786498677184,2.2568555425085566,0.8115112095421949,3.123192376408189,2.680300790282684,3.3627524423156028,1.5116571649965735,2.3072004596708267,2.7241338931274792,3.0569057746310735,-1.350603194477504,-1.183180580186432,0.9573968263362724,-0.8116235435413793,0.08687286915487066,-0.2979379359863657,1.9135043812575019,2.6176719465112455,3.3269340865238335,2.5167611762167716,2.735287654357407,3.8594207708901744
