,Unnamed: 0,Unnamed: 0.1,Unnamed: 0.1.1,Time (s),Acceleration x (m/s^2),Acceleration y (m/s^2),Acceleration z (m/s^2),Time (s).1,Linear Acceleration x (m/s^2),Linear Acceleration y (m/s^2),Linear Acceleration z (m/s^2),Time (s).2,Gyroscope x (rad/s),Gyroscope y (rad/s),Gyroscope z (rad/s),Sitting,Walking,Running,Bikking,Unnamed: 16,Unnamed: 17,Unnamed: 18,Acceleration x (m/s^2)_kalman,Acceleration y (m/s^2)_kalman,Acceleration z (m/s^2)_kalman,Gyroscope x (rad/s)_kalman,Gyroscope y (rad/s)_kalman,Gyroscope z (rad/s)_kalman,Linear Acceleration x (m/s^2)_kalman,Linear Acceleration y (m/s^2)_kalman,Linear Acceleration z (m/s^2)_kalman,Acceleration x (m/s^2)_kalman_max_freq,Acceleration y (m/s^2)_kalman_max_freq,Acceleration z (m/s^2)_kalman_max_freq,Gyroscope x (rad/s)_kalman_max_freq,Gyroscope y (rad/s)_kalman_max_freq,Gyroscope z (rad/s)_kalman_max_freq,Linear Acceleration x (m/s^2)_kalman_max_freq,Linear Acceleration y (m/s^2)_kalman_max_freq,Linear Acceleration z (m/s^2)_kalman_max_freq,0,1,2,3,4,5,0_max_freq,1_max_freq,2_max_freq,3_max_freq,4_max_freq,5_max_freq,RPM
0,0,0,0,0.031360282,3.141177893,4.686941147,11.73709393,0.154233876,0.178243637,-0.258830547,-1.467961311,0.14130372,0.396745294,0.417361379,0.102087848,0,0,0,1,,COUNT,TIME,2.115437012,3.973934071,9.694242901,0.340031605,0.453447093,0.115499694,0.009809712,-0.17135405,-1.301710237,,,,,,,,,,-2.235530945,-0.966591845,-2.549504532,4.234946045,1.065326934,0.560994385,,,,,,,64
1,1,1,1,0.050985282,0.991525888,4.358825684,10.15693378,0.193499709,-0.743572772,0.058695793,-1.653717995,0.19130372,0.179130957,0.372998595,0.191500619,0,0,0,1,ACC,3401,2.83199375,1.655596699,4.220845548,9.849631833,0.215169361,0.398411314,0.170569548,-0.480265145,-0.019809728,-1.534625582,,,,,,,,,,-2.102480697,-0.929844694,-2.752855645,4.10349748,1.226810035,0.806066874,,,,,,,64
2,2,2,2,0.100985282,1.350449324,3.568894863,8.466703415,0.243499709,0,0,0,0.24130372,0.078112096,1.062568784,0.184323162,0,0,0,1,LA,3398,2.83065443,1.501578033,3.764527197,9.252061134,0.105954954,0.874059029,0.18089578,-0.142718057,-0.00573979,-0.442482957,,,,,,,,,,-2.429458328,-0.300257662,-2.343216795,3.693149712,0.875880866,-0.155932092,,,,,,,64
3,3,3,3,0.150985282,1.202094316,5.100899696,8.143373489,0.293499709,1.278730869,-0.498548269,-0.715090752,0.29130372,-0.429654688,1.325233102,0.236856028,0,0,0,1,GYR,3398,2.830833355,1.343713274,4.706799836,8.740354384,-0.321305382,1.198329652,0.223001292,0.862794562,-0.357858657,-0.637605829,,,,,,,,,,-3.205192954,-0.40752708,-2.03090171,3.250551702,1.179216688,-0.798129124,,,,,,,64
4,4,4,4,0.200985282,1.041775107,4.040280819,7.305586815,0.343499709,-0.512619674,0.01370573,-0.872382164,0.34130372,-0.254417896,1.924550653,-0.182490617,0,0,0,1,,,,1.183059,4.236539876,8.066093165,-0.267946327,1.720430634,-0.082138395,-0.110689001,-0.092241597,-0.80572792,,,,,,,,,,-3.633904966,0.267030039,-1.502684833,2.9164739,1.412186826,-1.539681094,,,,,,,64
5,5,5,5,0.250985282,2.013560295,3.698107481,8.322834969,0.393499709,-0.512619674,0.01370573,-0.872382164,0.39130372,0.409802169,1.177178979,-0.408733159,0,0,0,1,,,,1.62584812,3.856629992,8.187350948,0.272724084,1.329862848,-0.327908595,-0.395178766,-0.016500949,-0.853460447,,,,,,,,,,-3.198075263,0.130165991,-1.380135505,3.305189503,1.253765634,-0.8352095,,,,,,,64
6,6,6,6,0.300985282,-0.471386075,4.349254131,9.093922615,0.443499709,-0.512619674,0.01370573,-0.872382164,0.44130372,0.975981236,-0.349633694,-0.332377255,0,0,0,1,,,,0.507194779,4.204219914,8.616112464,0.833743936,0.122395938,-0.331271368,-0.478304719,0.005093563,-0.867010733,,,,,,,,,,-1.793128258,-0.532684923,-1.50996976,3.160969146,1.097898135,1.341829355,,,,,,,64
7,7,7,7,0.350985282,3.553042412,3.559024572,10.07557774,0.493499709,-0.298672557,-1.084598541,-0.658866882,0.49130372,0.868930221,-1.997394204,-0.713851392,0,0,0,1,,,,2.13198968,3.748977319,9.306628963,0.861813617,-1.401618399,-0.619171937,-0.351159076,-0.77391875,-0.717953994,,,,,,,,,,-0.583082483,-0.915593743,-1.423600964,4.572939219,0.915253299,3.80066355,,,,,,,64
8,8,8,8,0.400985282,1.752742529,2.48195529,10.72672462,0.543499709,0.609892726,-0.915748119,0.083271027,0.54130372,-0.055587102,-0.754243672,-0.729809761,0,0,0,1,,,,1.92967761,2.854980756,9.97859007,0.12996181,-0.936191017,-0.702429531,0.329084101,-0.875311453,-0.144177779,,,,,,,,,,-1.130552198,-0.461076032,-2.386825302,4.472856607,0.57524685,2.883107201,,,,,,,64
9,9,9,9,0.450985282,1.752742529,2.48195529,10.72672462,0.593499709,0.609892726,-0.915748119,0.083271027,0.59130372,-2.045192957,-0.345434129,-1.485046029,0,0,0,1,,,,1.835289912,2.591778161,10.33260297,-1.60525696,-0.511468796,-1.291367063,0.527843576,-0.904219308,0.018703698,,,,,,,,,,-2.419835729,0.661199666,-3.063807918,4.264564496,0.657995615,2.396768685,,,,,,,64
10,10,10,10,0.500985282,0.766301453,3.185744286,9.115457535,0.643499709,0.055760384,-0.487931252,-7.418509483,0.64130372,-4.825082302,-0.300460488,-1.843078852,0,0,0,1,,,,1.265027307,3.010874012,9.756652143,-4.173856425,-0.359765245,-1.706543308,0.19369783,-0.606618244,-5.307260827,,,,,,,,,,-4.684610796,-0.279606021,-2.610829703,3.513122818,2.732864993,2.529432989,,,,,,,64
11,11,11,11,0.550985282,-0.763609529,5.819344521,8.916853905,0.693499709,-2.636665344,-2.69180727,-7.130287647,0.69130372,-3.737316132,0.100026235,-1.608971715,0,0,0,1,,,,0.182830427,4.992499376,9.359260365,-3.825608603,-0.029200062,-1.633118363,-1.809664778,-2.09730351,-6.612773515,,,,,,,,,,-4.260310136,0.021058271,-2.458235532,3.179373211,4.722701893,2.181916281,,,,,,,64
12,12,12,12,0.600985282,-0.100199446,1.758724689,0.86530447,0.743499709,-2.636665344,-2.69180727,-7.130287647,0.74130372,-2.30319953,0.378878027,-1.161831498,0,0,0,1,,,,0.031845265,2.710784143,5.339925462,-2.611114425,0.264185992,-1.278463786,-2.395024998,-2.522309581,-6.983377643,,,,,,,,,,-3.766899061,-0.035588336,1.912170934,1.977125366,5.155984698,0.821008211,,,,,,,64
13,13,13,13,0.650985282,-2.688336134,-3.958326817,3.249752283,0.793499709,-2.636665344,-2.69180727,-7.130287647,0.79130372,-1.869574428,0.617032111,-1.346078277,0,0,0,1,,,,-1.419263155,-1.994865923,4.350856577,-2.019554624,0.51786325,-1.329345299,-2.566060729,-2.643482148,-7.088583377,,,,,,,,,,-2.996535426,0.039336986,2.909277708,0.96624998,4.724409996,-0.39735255,,,,,,,64
14,14,14,14,0.700985282,-5.980261803,-3.30239439,13.51825142,0.843499709,-4.1209445,2.024466038,1.209766388,0.84130372,-1.788942575,1.499706388,-1.247044683,0,0,0,1,,,,-3.852374255,-2.917443378,8.688863362,-1.835585023,1.223755313,-1.267412127,-3.666624796,0.693597367,-1.145938547,,,,,,,,,,-2.072372646,2.44302183,-2.405327548,0.868933091,1.134145949,-0.495612898,,,,,,,64
15,15,15,15,0.750985282,-4.785645485,0.030209387,9.958030701,0.893499709,-4.785246372,1.239790201,0.4211483,0.89130372,-2.444458008,2.297243834,-1.033095479,0,0,0,1,,,,-4.350237281,-0.837612571,9.289432738,-2.321310383,1.995535445,-1.091083275,-4.458397618,1.084066337,-0.023710536,,,,,,,,,,-2.643859346,3.47033606,-3.53311582,0.693449421,1.21480167,-1.267979746,,,,,,,64
16,16,16,16,0.800985282,-5.843871117,-0.774078131,10.37707329,0.943499709,-4.785246372,1.239790201,0.4211483,0.94130372,-2.052752256,1.680822611,-0.738896132,0,0,0,1,,,,-5.147031437,-0.792783381,9.804103727,-2.107069489,1.769273954,-0.826054072,-4.68974481,1.195392105,0.294863414,,,,,,,,,,-1.962747964,3.316067398,-4.083436767,0.561242585,1.0492264,-0.846283261,,,,,,,64
17,17,17,17,0.850985282,-6.748657227,-2.593520641,8.500203133,0.993499709,-4.785246372,1.239790201,0.4211483,0.99130372,-1.060507178,1.304769754,-0.173786044,0,0,0,1,,,,-6.001434998,-2.063363442,9.187098588,-1.272179672,1.435320581,-0.335206864,-4.75734188,1.227131955,0.385299012,,,,,,,,,,-0.827119234,2.724179039,-3.284062773,0.109771885,0.793036409,-0.676679826,,,,,,,64
18,18,18,18,0.900985282,-4.754538536,-2.792423964,7.156932354,1.043499709,-1.842512608,1.2787714,2.729658127,1.04130372,-1.192450166,2.129260778,-0.36207971,0,0,0,1,,,,-5.336265403,-2.577780388,8.226424895,-1.20857586,1.934226016,-0.35542932,-2.694193226,1.264048589,2.064150105,,,,,,,,,,-1.634934273,2.982413005,-2.43241816,-0.219492748,-0.16654635,-1.965591668,,,,,,,64
19,19,19,19,0.950985282,-6.169294834,-5.088337421,9.974780083,1.093499709,-0.0087924,1.545269966,2.092156887,1.09130372,-0.670328498,1.168703556,0.249454752,0,0,0,1,,,,-5.780653423,-4.349201338,9.053745736,-0.779191735,1.38385681,0.099760333,-0.793436585,1.465091544,2.084206425,,,,,,,,,,-0.888212775,1.586905492,-3.084693608,-0.244912027,-1.153327586,-1.595324602,,,,,,,64
20,20,20,20,1.000985282,-6.169294834,-5.088337421,9.974780083,1.143499709,-0.0087924,1.545269966,2.092156887,1.14130372,-1.02446723,0.916805387,0.867479444,0,0,0,1,,,,-5.987978135,-4.870727487,9.489578749,-0.974859027,1.048072121,0.677487227,-0.238056684,1.522410469,2.089899939,,,,,,,,,,-0.350670578,0.942813092,-3.409370668,-0.168846837,-1.467295489,-1.288242583,,,,,,,64
21,21,21,21,1.050985282,-4.584349155,-4.690829754,8.538488388,1.193499709,0.166196346,0.711351872,0.217888832,1.19130372,-2.7860744,2.103757858,0.833653808,0,0,0,1,,,,-5.239197985,-4.74379366,9.039523244,-2.419746977,1.807053015,0.795006294,0.048078118,0.942591044,0.749308443,,,,,,,,,,-1.798748679,1.091051645,-3.161541532,-0.158372884,-0.555389012,-2.745506187,,,,,,,64
22,22,22,22,1.100985282,-7.016952515,-6.840780735,7.784450054,1.243499709,0.695290566,0.569734573,-1.626234293,1.24130372,-2.779355049,0.34176904,0.868395746,0,0,0,1,,,,-6.187559214,-6.223404275,8.445623209,-2.706622507,0.753593162,0.850233602,0.506182303,0.67603888,-0.95187398,,,,,,,,,,-1.057827384,-0.035445152,-2.159290906,-0.668968998,-0.241452223,-1.310635549,,,,,,,64
23,23,23,23,1.150985282,-7.016952515,-6.840780735,7.784450054,1.293499709,0.695290566,0.569734573,-1.626234293,1.29130372,-0.345357776,-0.369333535,0.538461864,0,0,0,1,,,,-6.630007503,-6.659018197,8.132756388,-0.822935449,-0.053730343,0.615617953,0.640035239,0.600042766,-1.434799374,,,,,,,,,,0.190206862,-1.095485302,-1.470846945,-0.745324447,-0.380171581,-0.079209354,,,,,,,64
24,24,24,24,1.200985282,-5.688038349,-7.200003147,0.446261436,1.343499709,0.695290566,0.569734573,-1.626234293,1.34130372,1.593013287,1.564227104,-0.024128467,0,0,0,1,,,,-6.127504481,-7.040731124,4.495510643,1.104375498,1.109493472,0.134193553,0.679145575,0.578375677,-1.571890454,,,,,,,,,,-0.796695388,-0.797402951,2.108506023,-1.84148233,-0.031091045,-2.412184155,,,,,,,64
25,25,25,25,1.250985282,-6.870691299,-8.435297966,3.750151396,1.393499709,2.001726151,-0.832991123,0.683505297,1.39130372,0.631005228,0.788298368,-0.121787675,0,0,0,1,,,,-6.523965045,-8.024721883,4.142807003,0.726746747,0.878571581,-0.05843841,1.615282851,-0.430599369,0.043251867,,,,,,,,,,-0.427612237,-0.099905407,2.464244062,-2.152135665,-0.379723073,-2.426564816,,,,,,,64
26,26,26,26,1.300985282,-3.83270359,-5.131408215,13.63789272,1.443499709,-1.15610218,-0.926768303,-3.105736017,1.44130372,-0.120031484,-0.024892027,0.202801287,0,0,0,1,,,,-5.08828426,-5.983232135,8.635877036,0.051233675,0.229030157,0.138150677,-0.34633437,-0.785306645,-2.211812947,,,,,,,,,,0.221191689,-0.923462111,-1.88255315,0.419255841,0.684130114,-0.529584812,,,,,,,64
27,27,27,27,1.350985282,-5.015356064,-7.698009491,1.241276741,1.493499709,-1.15610218,-0.926768303,-3.105736017,1.49130372,-0.531437099,-0.069483876,-0.195852906,0,0,0,1,,,,-5.049379972,-7.193159849,5.136755704,-0.413589003,0.014414728,-0.113194964,-0.919497054,-0.886436474,-2.851972432,,,,,,,,,,-0.094991721,-0.405326272,1.999178949,-0.625798845,1.235959107,-0.468563967,,,,,,,64
28,28,28,28,1.400985282,-9.662218094,-7.30768013,0.379262388,1.543499709,-1.15610218,-0.926768303,-3.105736017,1.54130372,-0.012293302,-0.479744166,-0.117511742,0,0,0,1,,,,-7.510145368,-7.273964078,2.885512136,-0.093457376,-0.340858765,-0.116443442,-1.0869688,-0.915269382,-3.033698546,,,,,,,,,,0.46089974,-0.424216941,4.223363523,-2.505188568,1.611784953,0.024309217,,,,,,,64
29,29,29,29,1.450985282,-8.52981472,-7.223931789,0.489631325,1.593499709,2.473069668,0.997085571,0.170533419,1.59130372,0.068185829,-0.172640711,-1.543840051,0,0,0,1,,,,-8.054098351,-7.238661855,1.751782479,0.035492677,-0.219919091,-1.190593346,1.432866115,0.451858162,-0.739072137,,,,,,,,,,-0.88853751,0.29716934,5.120338421,-3.730333555,-0.139634369,0.029658917,,,,,,,64
30,30,30,30,1.500985282,-6.404090881,-6.967600346,3.889234066,1.643499709,3.971856594,2.474145889,0.92689991,1.64130372,-0.207840785,0.408733159,-1.83246541,0,0,0,1,,,,-7.17388509,-7.047403887,2.76322355,-0.158625368,0.232047844,-1.673617343,3.229991881,1.897575784,0.453969908,,,,,,,,,,-2.296466155,0.444007257,3.861555995,-3.478195915,-1.616873488,-0.439587796,,,,,,,64
31,31,31,31,1.550985282,-3.478266716,-5.231906891,3.166003466,1.693499709,3.971856594,2.474145889,0.92689991,1.69130372,0.417361379,-0.677735031,-0.052303795,0,0,0,1,,,,-5.202419894,-5.766409522,2.953818814,0.300865161,-0.422036791,-0.453540329,3.755091995,2.309761226,0.792646285,,,,,,,,,,-1.481016005,-0.843420809,4.220853762,-2.241685279,-2.143174364,0.448314368,,,,,,,64
32,32,32,32,1.600985282,-2.07786727,-4.755435944,3.968197346,1.743499709,-2.678601742,-1.377543926,-2.290574789,1.74130372,0.442253411,-0.851292014,-0.194707558,0,0,0,1,,,,-3.535595529,-5.053077878,3.433822251,0.413656926,-0.730648058,-0.258762511,-0.798748155,-0.326264282,-1.415321359,,,,,,,,,,0.126561381,-0.239462028,4.223851741,-0.297520947,0.708532508,1.062946738,,,,,,,64
33,33,33,33,1.650985282,-9.600004196,-9.160622597,2.337787628,1.793499709,0.686822891,1.604552746,1.315002203,1.79130372,0.126369029,-0.156224191,-0.287861764,0,0,0,1,,,,-6.77071599,-7.951315468,2.915179191,0.184474452,-0.317668395,-0.280660392,0.252755593,1.054061654,0.539928017,,,,,,,,,,0.190261349,0.44411585,4.202434837,-2.463966059,-0.929267065,0.139503812,,,,,,,64
34,34,34,34,1.700985282,-9.600004196,-9.160622597,2.337787628,1.843499709,0.686822891,1.604552746,1.315002203,1.84130372,-0.102164201,-0.129499614,-0.018478129,0,0,0,1,,,,-8.28002855,-8.804589046,2.641957779,-0.044190091,-0.182385228,-0.083362002,0.559993266,1.447603414,1.094977001,,,,,,,,,,0.324054221,0.596881401,4.247098869,-3.417705714,-1.343171444,-0.203916673,,,,,,,64
35,35,35,35,1.750985282,-4.517350197,-5.923731327,5.529214859,1.893499709,0.686822891,1.604552746,1.315002203,1.89130372,0.29381752,0.213414758,-0.708430111,0,0,0,1,,,,-6.272789526,-6.771888076,4.008206452,0.22545378,0.102173535,-0.553740624,0.649764689,1.559805259,1.25254226,,,,,,,,,,-0.525070432,0.750185775,2.8413275,-2.070486266,-1.367687615,-0.190735809,,,,,,,64
36,36,36,36,1.800985282,-6.413661957,-7.975576878,2.921935558,1.943499709,0.351956844,-0.056947231,-0.111446858,1.94130372,0.466305524,-0.747600675,-0.703696013,0,0,0,1,,,,-6.347939357,-7.621197425,3.494183583,0.417592047,-0.508768118,-0.666585621,0.438972976,0.404001595,0.275757344,,,,,,,,,,0.243866575,0.349847011,3.686849677,-2.004552993,-0.651754005,0.495869964,,,,,,,64
37,37,37,37,1.850985282,-5.290830135,-9.629914284,3.652045488,1.993499709,0.216159344,-1.067935467,-1.427191257,1.99130372,-0.27220881,-0.489288658,-0.752487481,0,0,0,1,,,,-5.784013695,-9.038525563,3.568883761,-0.132693116,-0.494763441,-0.731228814,0.281263003,-0.648274656,-0.943764487,,,,,,,,,,0.202347858,0.227142321,3.747637595,-1.604152205,0.063993823,0.091019398,,,,,,,64
38,38,38,38,1.900985282,-4.414458752,-8.502297401,3.470191002,2.043499709,0.216159344,-1.067935467,-1.427191257,2.04130372,-0.666816115,-0.066658705,-0.814717531,0,0,0,1,,,,-5.053410686,-8.660168973,3.522182395,-0.558787051,-0.186979312,-0.79405606,0.235181907,-0.948286875,-1.289957848,,,,,,,,,,-0.388340032,0.427792693,3.748007953,-1.31093857,0.437324214,-0.41774046,,,,,,,64
39,39,39,39,1.950985282,-4.27567482,-8.830412865,2.914757013,2.093499709,0.216159344,-1.067935467,-1.427191257,2.09130372,0.235099837,0.024052111,-0.055205323,0,0,0,1,,,,-4.638519581,-8.780291158,3.234748994,0.074532219,-0.035259143,-0.238053304,0.221717525,-1.033822714,-1.388233943,,,,,,,,,,-0.017931871,-0.090035883,4.129665361,-1.117040624,0.453060791,-0.95714418,,,,,,,64
40,40,40,40,2.000985282,-4.493422031,-8.835198402,3.362514019,2.143499709,-0.563131094,-1.468317032,-0.53508091,2.14130372,0.926960707,-0.273659587,-0.277859151,0,0,0,1,,,,-4.561115818,-8.819033095,3.295207343,0.754552756,-0.206656156,-0.268008151,-0.333807077,-1.344439291,-0.777270847,,,,,,,,,,0.692519524,0.109573391,4.173562686,-0.871886604,0.419196699,-0.683737159,,,,,,,64
41,41,41,41,2.050985282,-4.337888241,-7.997112274,5.028815746,2.193499709,0.877345085,2.56481123,-0.317008019,2.19130372,0.128125206,-0.499367625,-0.779593825,0,0,0,1,,,,-4.442032797,-8.239094961,4.115550012,0.25482333,-0.417099856,-0.652988541,0.523459925,1.450253219,-0.447665733,,,,,,,,,,-0.420741349,-0.106904278,3.300003407,-0.973246933,-1.164393263,0.438855915,,,,,,,64
42,42,42,42,2.100985282,-4.254139423,-9.553344727,3.640081406,2.243499709,0.877345085,2.56481123,-0.317008019,2.24130372,-0.465236545,-0.563735664,-0.334744304,0,0,0,1,,,,-4.341799167,-9.166414889,3.890558495,-0.319600812,-0.522523063,-0.413502182,0.773943787,2.247041992,-0.354098649,,,,,,,,,,-0.576836372,-0.19397174,3.622950449,-1.093304513,-1.722656493,0.546604565,,,,,,,64
43,43,43,43,2.150985282,-1.668395638,-3.477070332,4.537988186,2.293499709,0.877345085,2.56481123,-0.317008019,2.29130372,-0.009544488,-0.315655321,-0.553122222,0,0,0,1,,,,-2.915644873,-5.152077033,4.196921916,-0.07225494,-0.373796356,-0.518569584,0.847132378,2.474212726,-0.32753717,,,,,,,,,,-1.452759021,-0.271422581,3.258666682,-0.355619294,-1.337468838,0.947627812,,,,,,,64
44,44,44,44,2.200985282,-3.557528973,-7.705187798,3.723830223,2.293499709,-0.806614637,-0.325620651,-0.098658085,2.34130372,0.269536346,-0.150726557,-0.749127805,0,0,0,1,,,,-3.258064472,-6.953523419,3.973055152,0.200407339,-0.213421246,-0.69207013,-0.323408195,0.472633823,-0.163631436,,,,,,,,,,-0.48325348,0.540509383,3.489482945,-0.259659,-0.427561633,0.169514561,,,,,,,64
45,45,45,45,2.250985282,-3.557528973,-7.705187798,3.723830223,2.393499709,-0.806614637,-0.325620651,-0.098658085,2.39130372,0.042301174,-0.230136707,-0.79394871,0,0,0,1,,,,-3.417816855,-7.483889393,3.855122035,0.074278942,-0.225438758,-0.768736185,-0.665427102,-0.098032035,-0.11710248,,,,,,,,,,-0.244475613,0.850154368,3.61686121,-0.284500784,-0.150498977,0.063303531,,,,,,,64
46,46,46,46,2.300985282,-2.53280282,-8.619544983,5.064708233,2.443499709,-0.806614637,-0.325620651,-0.098658085,2.44130372,0.245407879,-0.429196566,-0.789825499,0,0,0,1,,,,-2.94569712,-8.285195269,4.427497647,0.210796191,-0.371929592,-0.784606396,-0.765361213,-0.26073335,-0.103894012,,,,,,,,,,0.092902915,0.758235576,3.173468284,0.218552803,-0.300172548,0.198027731,,,,,,,64
47,47,47,47,2.350985282,-2.28365016,-8.521439552,3.901198149,2.493499709,-0.507527471,0.331404686,-0.582823277,2.49130372,0.39514181,-0.237772301,-0.779135704,0,0,0,1,,,,-2.592521438,-8.451886592,4.178452975,0.357856981,-0.275477762,-0.78048957,-0.582863616,0.162581484,-0.446866603,,,,,,,,,,-0.198960118,0.496467117,3.472179718,0.238903633,-0.446394943,0.027116387,,,,,,,64
48,48,48,48,2.400985282,-1.989332914,-8.78973484,4.94955349,2.543499709,-0.457288504,-1.03440094,-0.098098278,2.54130372,0.104225814,0.025961008,-0.691860855,0,0,0,1,,,,-2.270744387,-8.690268535,4.543337371,0.155523994,-0.058759605,-0.713794353,-0.493980152,-0.693131855,-0.197105344,,,,,,,,,,-0.158347732,0.745817525,3.036185258,0.553377688,-0.186119708,-0.558116072,,,,,,,64
49,49,49,49,2.450985282,-1.989332914,-8.78973484,4.94955349,2.593499709,-0.457288504,-1.03440094,-0.098098278,2.59130372,0.187682822,0.051234815,-0.298093468,0,0,0,1,,,,-2.120622576,-8.760450847,4.735558645,0.181178538,0.020320428,-0.400969548,-0.468009394,-0.937102445,-0.126204039,,,,,,,,,,0.043963255,0.604854595,2.842914849,0.732699821,-0.136347694,-0.845357623,,,,,,,64
50,50,50,50,2.500985282,-1.553540111,-9.71605587,4.456632137,2.643499709,-0.457288504,-1.03440094,-0.098098278,2.64130372,0.225555345,-0.203641206,-0.052456509,0,0,0,1,,,,-1.818106669,-9.434715058,4.603570754,0.216579913,-0.140695862,-0.138705196,-0.460421028,-1.006660375,-0.106076838,,,,,,,,,,0.395976663,0.398498199,3.140101887,0.917874874,-0.256214389,-0.791321594,,,,,,,64
51,51,51,51,2.550985282,-0.995713294,-9.536594391,5.215456009,2.693499709,0.205029547,0.665810585,-0.862014771,2.69130372,0.287709057,-0.3735331,-0.172029853,0,0,0,1,,,,-1.379392561,-9.506599975,4.893114565,0.27332283,-0.308093231,-0.163782793,0.010592308,0.188975986,-0.647421897,,,,,,,,,,0.006924309,-0.239848319,2.968628166,1.083461512,-0.841052354,-0.321402393,,,,,,,64
52,52,52,52,2.600985282,-0.964606643,-8.741579056,4.401597023,2.743499709,-0.27941972,-0.46737957,-0.116401196,2.74130372,0.231511116,-0.41804859,-0.353298783,0,0,0,1,,,,-1.158120796,-8.966809775,4.660528699,0.239967746,-0.387145182,-0.306398084,-0.194681439,-0.280247449,-0.267145394,,,,,,,,,,0.081344638,0.138034392,3.238492158,1.194370899,-0.610933914,-0.148567244,,,,,,,64
53,53,53,53,2.650985282,-0.964606643,-8.741579056,4.401597023,2.793499709,-0.27941972,-0.46737957,-0.116401196,2.79130372,-0.122551233,-0.402242929,-0.089794546,0,0,0,1,,,,-1.054888703,-8.8078895,4.538002353,-0.049229945,-0.397999645,-0.143398769,-0.254660139,-0.414026733,-0.159193903,,,,,,,,,,0.093033524,0.233526746,3.37747821,1.228258835,-0.519253561,-0.170288595,,,,,,,64
54,54,54,54,2.700985282,-1.165603757,-8.746364594,5.780461311,2.843499709,-0.27941972,-0.46737957,-0.116401196,2.84130372,-0.021608721,-0.161569104,0.164623335,0,0,0,1,,,,-1.113950774,-8.764478214,5.12593334,-0.027195253,-0.228018885,0.088395192,-0.272185247,-0.452168257,-0.128549032,,,,,,,,,,0.183129431,0.116274957,2.687430624,1.386149318,-0.536427224,-0.485037388,,,,,,,64
55,55,55,55,2.750985282,-1.0651052,-9.507881165,4.803591251,2.893499709,-0.049500048,-0.787773132,-0.041667938,2.89130372,0.171189949,-0.158209443,0.240215689,0,0,0,1,,,,-1.087893606,-9.289015017,4.973401217,0.131065544,-0.177829675,0.202643727,-0.114566181,-0.692089548,-0.066331423,,,,,,,,,,0.347187812,0.022522271,2.866623657,1.370041074,-0.555081537,-0.779881813,,,,,,,64
56,56,56,56,2.800985282,-1.0651052,-9.507881165,4.803591251,2.943499709,-0.049500048,-0.787773132,-0.041667938,2.94130372,0.248385772,-0.159965619,-0.010689827,0,0,0,1,,,,-1.075736899,-9.443444522,4.893047222,0.224657166,-0.164986386,0.042105153,-0.068511647,-0.760492991,-0.048669317,,,,,,,,,,0.296020569,0.098043979,2.947720186,1.339911553,-0.557663316,-0.808745203,,,,,,,64
57,57,57,57,2.850985282,-0.33499518,-8.847162247,5.232205868,2.993499709,-0.049500048,-0.787773132,-0.041667938,2.99130372,0.160423756,-0.195394769,-0.055205323,0,0,0,1,,,,-0.680580698,-9.022714421,5.053536932,0.173415286,-0.186848367,-0.031123295,-0.055055025,-0.77999535,-0.043655464,,,,,,,,,,0.15810601,0.130340919,2.813890598,1.585298238,-0.523392304,-0.685877937,,,,,,,64
58,58,58,58,2.900985282,0.469591439,-8.490332603,5.48345232,3.043499709,-0.281151354,-0.785504341,0.196092606,3.04130372,0.164317906,-0.264191449,0.001221695,0,0,0,1,,,,-0.067009678,-8.647071768,5.256972688,0.166157897,-0.242453856,-0.006782921,-0.215088528,-0.783933685,0.128033808,,,,,,,,,,0.170234244,0.201280725,2.690064421,1.998811657,-0.547879985,-0.520715346,,,,,,,64
59,59,59,59,2.950985282,-0.157627195,-9.019445419,5.114957333,3.093499709,-0.171706304,0.003341675,-0.166391373,3.09130372,0.118580721,-0.409496725,0.146068856,0,0,0,1,,,,-0.115350514,-8.909814449,5.18977109,0.128203444,-0.362548635,0.108241677,-0.184382106,-0.22111671,-0.082811038,,,,,,,,,,0.173432348,-0.057084941,2.827285532,1.923954082,-0.800442238,-0.28169131,,,,,,,64
60,60,60,60,3.000985282,-0.157627195,-9.019445419,5.114957333,3.143499709,-0.171706304,0.003341675,-0.166391373,3.14130372,0.002061609,-0.164241552,-0.05635066,0,0,0,1,,,,-0.137903439,-8.987168835,5.154369256,0.02757443,-0.219976578,-0.015617972,-0.175410032,-0.060653173,-0.142664895,,,,,,,,,,-0.100194703,0.065173819,2.798152656,1.835304272,-0.83061634,-0.464723038,,,,,,,64
61,61,61,61,3.050985282,-0.13369897,-8.047361374,5.406881809,3.193499709,-0.171706304,0.003341675,-0.166391373,3.19130372,-0.112243183,-0.127285302,-0.166684941,0,0,0,1,,,,-0.135660522,-8.324051207,5.273858076,-0.083964367,-0.153336568,-0.129299459,-0.172788492,-0.014903759,-0.159655988,,,,,,,,,,-0.355720589,0.171589452,2.60168966,1.832523437,-0.732802117,-0.416506855,,,,,,,64
62,62,62,62,3.100985282,-0.413958311,-8.495118141,6.180361748,3.243499709,0.3410905,-0.103691101,-0.178881168,3.24130372,0.148512244,-0.18233791,-0.100560732,0,0,0,1,,,,-0.284121307,-8.444754121,5.702815181,0.10149268,-0.174186963,-0.107672883,0.190940788,-0.078377133,-0.173423595,,,,,,,,,,-0.24932219,-0.084392825,2.135314815,1.875061083,-0.851526391,-0.44050304,,,,,,,64
63,63,63,63,3.150985282,0.873978496,-8.751151085,5.114957333,3.293499709,0.574706137,-0.312497139,-0.288597584,3.29130372,0.331919134,-0.370249808,0.06024481,0,0,0,1,,,,0.333678807,-8.66094439,5.424641127,0.285314224,-0.315145534,0.018689175,0.46257418,-0.245747687,-0.255902416,,,,,,,,,,-0.122464292,-0.375147313,2.597356194,2.136468831,-0.888825267,-0.39426296,,,,,,,64
64,64,64,64,3.200985282,0.873978496,-8.751151085,5.114957333,3.343499709,0.574706137,-0.312497139,-0.288597584,3.34130372,0.817466319,-0.701787174,0.095521241,0,0,0,1,,,,0.621907169,-8.724593225,5.278098903,0.70983588,-0.593119942,0.076507133,0.541942429,-0.293466346,-0.2793162,,,,,,,,,,0.24329993,-0.691595769,2.929383903,2.32077795,-0.97149547,-0.011146109,,,,,,,64
65,65,65,65,3.250985282,0.950548768,-8.63390255,5.402096272,3.393499709,0.090655565,3.161253452,-0.90975523,3.39130372,0.000305424,0.107814543,-0.136906147,0,0,0,1,,,,0.797224372,-8.660602899,5.336774399,0.143811529,-0.089185993,-0.084091437,0.222516556,2.176285719,-0.730788523,,,,,,,,,,-1.132019854,-0.564405546,2.683685879,2.056429648,-1.784716912,-0.234562662,,,,,,,64
66,66,66,66,3.300985282,0.412163705,-10.80538845,5.574678421,3.443499709,-0.092548072,-0.634788513,0.207309246,3.44130372,0.062000997,0.043064732,-0.091703445,0,0,0,1,,,,0.591809844,-10.17393958,5.449350469,0.078547589,0.005895119,-0.089819654,-0.0004897,0.166670817,-0.05899449,,,,,,,,,,-0.317574332,0.094459057,2.543418669,2.219607607,-1.22430254,-0.991354335,,,,,,,64
67,67,67,67,3.350985282,0.412163705,-10.80538845,5.574678421,3.493499709,-0.092548072,-0.634788513,0.207309246,3.49130372,0.003512372,0.023746688,-0.024968382,0,0,0,1,,,,0.495975784,-10.61948284,5.508655596,0.018688622,0.018729431,-0.041017529,-0.065649642,-0.406286167,0.131711923,,,,,,,,,,-0.048837697,0.259457608,2.476867542,2.261570782,-1.066592898,-1.194414858,,,,,,,64
68,68,68,68,3.400985282,0.670588553,-9.09601593,6.534499645,3.543499709,-0.092548072,-0.634788513,0.207309246,3.54130372,0.017561859,-0.011911522,0.012598725,0,0,0,1,,,,0.589124741,-9.544541636,5.994084511,0.017789752,-0.003299755,-0.000670022,-0.084688651,-0.569640701,0.185848957,,,,,,,,,,-0.054464984,0.222448887,1.931512235,2.487074223,-0.894553635,-0.998066832,,,,,,,64
69,69,69,69,3.450985282,0.258723944,-7.72911644,6.010172367,3.593499709,-0.039691508,-0.159386158,0.038862228,3.59130372,0.064673454,-0.055587102,-0.001450762,0,0,0,1,,,,0.412869077,-8.263597932,6.001697277,0.055190989,-0.040891527,-0.001257548,-0.052839171,-0.276352949,0.080588279,,,,,,,,,,-0.253511156,0.099905457,1.858965555,2.362896237,-0.806094487,-0.675820102,,,,,,,64
70,70,70,70,3.500985282,0.131904349,-7.824829102,6.290431499,3.643499709,0.2281425,-0.120328903,-0.324328423,3.64130372,0.05581617,-0.022906773,-0.054747187,0,0,0,1,,,,0.262985586,-7.954007555,6.138326173,0.055689724,-0.027961462,-0.041509773,0.146042788,-0.164812583,-0.209382162,,,,,,,,,,-0.42002557,-0.094140217,1.671577252,2.281632299,-0.762012661,-0.627623039,,,,,,,64
71,71,71,71,3.550985282,0.131904349,-7.824829102,6.290431499,3.693499709,0.2281425,-0.120328903,-0.324328423,3.69130372,0.095368527,-0.041384902,-0.106134713,0,0,0,1,,,,0.193058967,-7.862860684,6.210302341,0.087343289,-0.037612189,-0.090141578,0.204153879,-0.13301155,-0.291697902,,,,,,,,,,-0.459046232,-0.146558919,1.582951774,2.256191851,-0.755161415,-0.577708638,,,,,,,64
72,72,72,72,3.600985282,0.95802635,-7.980362415,5.766104221,3.743499709,0.2281425,-0.120328903,-0.324328423,3.74130372,0.130339533,-0.056885149,-0.085136838,0,0,0,1,,,,0.601138595,-7.945768591,6.000108003,0.121643326,-0.051468404,-0.086375392,0.221133292,-0.123944825,-0.315065391,,,,,,,,,,-0.515356519,-0.168180473,1.87729438,2.399105846,-0.77607118,-0.599657539,,,,,,,64
73,73,73,73,3.650985282,0.759122968,-7.910970688,5.91206646,3.793499709,-0.311993182,-0.185805798,-0.430243015,3.79130372,0.080631837,-0.050547611,-0.060779303,0,0,0,1,,,,0.685416965,-7.92121558,5.958446787,0.088926617,-0.050806404,-0.067113726,-0.156219569,-0.168168749,-0.397546816,,,,,,,,,,-0.442117436,-0.061530846,1.944711409,2.481352202,-0.64034037,-0.565875274,,,,,,,64
74,74,74,74,3.700985282,0.646660328,-8.085646629,6.094220161,3.843499709,-0.115267456,0.057584286,-0.349373817,3.84130372,0.04703524,0.140723944,-0.015118469,0,0,0,1,,,,0.664741843,-8.037236288,6.022694683,0.055507982,0.086893547,-0.027986059,-0.127233207,-0.006779677,-0.363048991,,,,,,,,,,-0.564110892,-0.039985825,1.824182911,2.446155461,-0.732724398,-0.794880553,,,,,,,64
75,75,75,75,3.750985282,0.646660328,-8.085646629,6.094220161,3.893499709,-0.115267456,0.057584286,-0.349373817,3.89130372,0.096437514,0.1828724,0.017027367,0,0,0,1,,,,0.655096075,-8.071394083,6.056540505,0.08815931,0.155897146,0.005887615,-0.118763715,0.039233615,-0.353255875,,,,,,,,,,-0.59212098,-0.053430877,1.764468267,2.438129725,-0.760119855,-0.919543002,,,,,,,64
76,76,76,76,3.800985282,0.230010077,-7.776972771,6.326323986,3.943499709,0.591577232,-0.212808132,-0.097159386,3.94130372,0.097353779,0.149199441,0.009239065,0,0,0,1,,,,0.428329628,-7.8636537,6.18420192,0.095494151,0.151081859,0.00840966,0.384023526,-0.140949052,-0.169859113,,,,,,,,,,-0.618299185,-0.149001744,1.569053203,2.318095542,-0.814084199,-0.966777524,,,,,,,64
77,77,77,77,3.850985282,0.553340256,-8.052146912,6.594320297,3.993499709,0.342799842,0.047219753,-0.215273857,3.99130372,0.032680329,0.123696573,-0.07513421,0,0,0,1,,,,0.495017818,-7.996652401,6.37826974,0.045384741,0.131393321,-0.05445909,0.354844943,-0.00642865,-0.202381687,,,,,,,,,,-0.659489117,-0.137328215,1.380468613,2.401092201,-0.901219519,-0.886550454,,,,,,,64
78,78,78,78,3.900985282,1.312164068,-7.987541199,6.290431499,4.043499709,0.342799842,0.047219753,-0.215273857,4.04130372,0.037872531,0.091245309,-0.080708191,0,0,0,1,,,,0.930932793,-7.990223639,6.336704727,0.039391913,0.102529073,-0.074212163,0.346319287,0.031924172,-0.211614075,,,,,,,,,,-0.727666843,-0.14048151,1.497264035,2.611235865,-0.937640619,-0.837328834,,,,,,,64
79,79,79,79,3.950985282,0.95802635,-7.491927624,6.127719879,4.093499709,0.342799842,0.047219753,-0.215273857,4.09130372,0.05314371,0.003206948,-0.120107845,0,0,0,1,,,,0.945386126,-7.638631546,6.237813196,0.05036234,0.031121842,-0.108749755,0.343828185,0.042858863,-0.214234932,,,,,,,,,,-0.746677387,-0.144207603,1.61549332,2.59429414,-0.889296989,-0.656110736,,,,,,,64
80,80,80,80,4.000985282,0.186939269,-7.915756226,6.627819538,4.143499709,-0.68780005,0.326665402,0.070215702,4.14130372,0.055892523,-0.062535487,-0.069178455,0,0,0,1,,,,0.540784939,-7.834167619,6.422364011,0.054774016,-0.036212707,-0.07897141,-0.38636978,0.24574993,-0.010533095,,,,,,,,,,-0.392067214,0.126168641,1.41420865,2.542453158,-0.928253764,-0.412433356,,,,,,,64
81,81,81,81,4.050985282,0.61076796,-8.231907845,6.402894497,4.193499709,-0.931736052,0.156468868,0.358553886,4.19130372,0.083075225,-0.06123744,-0.017409148,0,0,0,1,,,,0.578118093,-8.114808671,6.413151046,0.077351163,-0.054204135,-0.032644343,-0.772386107,0.1819236,0.253778835,,,,,,,,,,-0.14964822,0.345406576,1.457439784,2.629980172,-0.950246076,-0.402407413,,,,,,,64
82,82,82,82,4.100985282,-0.150448725,-7.432106972,6.484250069,4.243499709,-0.931736052,0.156468868,0.358553886,4.24130372,0.09575031,-0.211887643,0.015576605,0,0,0,1,,,,0.189456717,-7.633101992,6.44679507,0.09202899,-0.167570041,0.003643067,-0.885175775,0.163726212,0.328810731,,,,,,,,,,0.015191092,0.34960186,1.392922963,2.482844685,-0.868122093,-0.119012874,,,,,,,64
83,83,83,83,4.150985282,-0.140877441,-7.609176159,6.999006271,4.293499709,-0.742790759,0.575248241,0.383476257,4.29130372,0.088572852,-0.224104583,0.096742935,0,0,0,1,,,,0.013236602,-7.616220192,6.708101147,0.089271873,-0.208215316,0.073702933,-0.784394073,0.45792008,0.367958009,,,,,,,,,,0.048653126,0.218397691,1.105581259,2.44978344,-1.062263231,0.005272811,,,,,,,64
84,84,84,84,4.200985282,0.163011044,-7.046563625,7.097112179,4.343499709,-0.485304534,0.507088184,0.618664265,4.34130372,0.057572354,-0.202190444,0.150421143,0,0,0,1,,,,0.093135301,-7.214276893,6.892180982,0.063983741,-0.203883759,0.131435211,-0.572695163,0.493069972,0.547494697,,,,,,,,,,-0.009254738,0.172737198,0.892462195,2.520817988,-1.14221041,0.035655696,,,,,,,64
85,85,85,85,4.250985282,-0.00209372,-7.015456676,6.848258495,4.393499709,-0.138519168,0.569901466,0.490252972,4.39130372,0.046042614,-0.18363595,0.201350525,0,0,0,1,,,,0.042334412,-7.073991573,6.871396882,0.049671297,-0.189326681,0.184048148,-0.265380554,0.547996204,0.506502542,,,,,,,,,,-0.110274003,0.019673496,0.890861129,2.441911998,-1.192925699,-0.013159232,,,,,,,64
86,86,86,86,4.300985282,0.448056042,-7.101897717,7.109076023,4.443499709,-0.138519168,0.569901466,0.490252972,4.44130372,0.087351158,-0.177985624,0.258999229,0,0,0,1,,,,0.258770741,-7.093681836,6.983866538,0.079730217,-0.181173074,0.240450619,-0.175586651,0.563656104,0.49486584,,,,,,,,,,-0.118289513,-0.074652419,0.802198692,2.582081122,-1.245511133,-0.056023132,,,,,,,64
87,87,87,87,4.350985282,0.617946446,-6.819245338,6.66640377,4.493499709,-0.027543366,0.438241005,0.104179382,4.49130372,0.08880192,-0.167524859,0.266558468,0,0,0,1,,,,0.450376672,-6.900042514,6.833643308,0.086967123,-0.171360747,0.260097397,-0.070799963,0.473997834,0.215086013,,,,,,,,,,-0.234731512,-0.224452882,0.982844659,2.623022908,-1.101217285,-0.101216178,,,,,,,64
88,88,88,88,4.400985282,0.495912492,-7.24307394,7.154539585,4.543499709,0.05177021,0.270954609,0.40160799,4.54130372,0.095368527,-0.154544354,0.334744304,0,0,0,1,,,,0.474668218,-7.14208165,6.985491273,0.093669301,-0.15927067,0.31627097,0.015956572,0.328843826,0.348658819,,,,,,,,,,-0.127013385,-0.226454314,0.827963236,2.695539663,-1.149550585,-0.206665551,,,,,,,64
89,89,89,89,4.450985282,0.495912492,-7.24307394,7.154539585,4.593499709,0.05177021,0.270954609,0.40160799,4.59130372,0.085289545,-0.2443389,0.396134436,0,0,0,1,,,,0.486001192,-7.21334068,7.065484854,0.086984393,-0.220430122,0.376370128,0.041305864,0.287459279,0.386576975,,,,,,,,,,-0.015910399,-0.278733062,0.77333923,2.747470655,-1.178381248,-0.136641818,,,,,,,64
90,90,90,90,4.500985282,0.701695263,-7.393822193,7.231409073,4.643499709,0.05177021,0.270954609,0.40160799,4.64130372,0.078952007,-0.299849659,0.464167565,0,0,0,1,,,,0.601065388,-7.340686416,7.144000115,0.080576597,-0.27752847,0.442439788,0.048712645,0.27566022,0.397341041,,,,,,,,,,0.080147232,-0.342812199,0.737795916,2.851350945,-1.222360345,-0.079085778,,,,,,,64
91,91,91,91,4.550985282,0.371186614,-7.429714203,6.93679285,4.693499709,-0.028567821,-0.07083416,0.079211235,4.69130372,0.07177455,-0.256555855,0.478217036,0,0,0,1,,,,0.478434219,-7.403503426,7.045949736,0.073554808,-0.262450295,0.469363018,-0.00598733,0.027954108,0.169520751,,,,,,,,,,0.134427046,-0.392622267,0.829778439,2.787083542,-1.011071044,-0.17147535,,,,,,,64
92,92,92,92,4.600985282,0.20129621,-7.525427341,6.996613503,4.743499709,0.294631094,0.167524338,0.119708538,4.74130372,0.095292173,-0.237772301,0.483943731,0,0,0,1,,,,0.33059213,-7.489531576,7.022603854,0.090895682,-0.244708153,0.480335351,0.206793742,0.12773177,0.133849046,,,,,,,,,,0.076749465,-0.497075085,0.827505305,2.664620983,-1.094466565,-0.225073465,,,,,,,64
93,93,93,93,4.650985282,0.510269404,-7.350750923,6.862615108,4.793499709,0.294631094,0.167524338,0.119708538,4.791303697,0.080555484,-0.303667456,0.52563405,0,0,0,1,,,,0.426442799,-7.3916095,6.946897256,0.082646841,-0.2870967,0.5144237,0.268965999,0.156179164,0.123722693,,,,,,,,,,0.06840995,-0.554825746,0.93496893,2.688451199,-1.107765103,-0.158679183,,,,,,,64
94,94,94,94,4.700985282,0.653838813,-7.250252724,6.95114994,4.843499709,-0.2889193,0.506017685,0.047245979,4.841303697,0.046958882,-0.377121836,0.557474494,0,0,0,1,,,,0.547749515,-7.291869741,6.948909624,0.054176952,-0.351819899,0.546820447,-0.125911435,0.406275976,0.068955907,,,,,,,,,,0.130261173,-0.501438709,0.985416009,2.790321289,-1.121193523,0.060051303,,,,,,,64
95,95,95,95,4.750985282,-0.028414769,-7.60678339,7.006184578,4.893499709,0.08166761,0.604772568,-0.442361832,4.891303697,0.037338037,-0.427669436,0.602829874,0,0,0,1,,,,0.240388819,-7.514069288,6.976012105,0.040743792,-0.40635161,0.588968873,0.021015327,0.548179631,-0.297210837,,,,,,,,,,0.138287846,-0.768854331,0.952113482,2.621338082,-1.129667795,0.126150614,,,,,,,64
96,96,96,96,4.800985282,-0.071485579,-6.733103752,6.967899323,4.943499709,-0.221655473,0.1505723,0.331274986,4.941303697,-0.019623468,-0.436603069,0.560605049,0,0,0,1,,,,0.074016251,-6.963028745,6.97217314,-0.007413886,-0.428100771,0.567624421,-0.150749771,0.263933271,0.152862748,,,,,,,,,,0.267616195,-0.4570367,0.904487798,2.584967282,-1.007753019,0.229935011,,,,,,,64
97,97,97,97,4.850985282,0.148654103,-6.615855694,6.620641232,4.993499709,-0.221655473,0.1505723,0.331274986,4.991303697,-0.120031484,-0.541668832,0.479438752,0,0,0,1,,,,0.113832572,-6.718067325,6.805828409,-0.097254008,-0.509750059,0.501262607,-0.200937617,0.182892403,0.280627978,,,,,,,,,,0.260544144,-0.317458803,1.098316813,2.569178541,-0.951270229,0.410048913,,,,,,,64
98,98,98,98,4.900985282,-0.179461703,-6.835995197,7.396513939,5.043499709,-0.298342884,0.601014614,0.020151615,5.041303697,-0.214407384,-0.440649927,0.428814769,0,0,0,1,,,,-0.042628241,-6.801275912,7.08534052,-0.190712524,-0.460070805,0.446743885,-0.269882151,0.481804689,0.094094685,,,,,,,,,,0.128386551,-0.346337079,0.761061866,2.536246556,-1.030257896,0.430922817,,,,,,,64
99,99,99,99,4.950985282,-0.646062136,-6.780960083,6.800402164,5.093499709,-0.040697366,0.917006016,-0.496941567,5.091303697,-0.173862398,-0.222653821,0.187148333,0,0,0,1,,,,-0.364536187,-6.78694129,6.950507826,-0.177270421,-0.289380846,0.251392057,-0.107662605,0.792926701,-0.329160375,,,,,,,,,,-0.285507433,-0.429563774,0.786079185,2.21683035,-1.009546833,0.238996046,,,,,,,64
100,100,100,100,5.000985282,-0.51206404,-6.991528511,6.946363926,5.143499709,-0.040697366,0.917006016,-0.496941567,5.141303697,-0.304507345,0.199899763,0.179054603,0,0,0,1,,,,-0.44323642,-6.931295744,6.948546934,-0.278773037,0.062385424,0.196956402,-0.060263862,0.881630029,-0.44931246,,,,,,,,,,-0.67538584,-0.305207079,0.638538758,2.076886527,-0.973582275,-0.350527568,,,,,,,64
101,101,101,101,5.050985282,0.165403858,-5.991029739,5.890531063,5.193499709,1.669426203,-0.602853775,-1.669387341,5.191303697,0.02687728,0.559688807,0.490357637,0,0,0,1,,,,-0.118551076,-6.267854573,6.447894329,-0.034942034,0.419919634,0.417747811,1.164030048,-0.179615789,-1.323036982,,,,,,,,,,-1.143073626,-1.055530428,1.05838162,1.980386781,-0.296137937,-1.380796667,,,,,,,64
102,102,102,102,5.100985282,-0.354137749,-7.738687515,6.326323986,5.243499709,1.669426203,-0.602853775,-1.669387341,5.241303697,0.410107583,0.096132085,0.769056678,0,0,0,1,,,,-0.244227182,-7.305657838,6.390367301,0.320094058,0.187133915,0.68211609,1.521755081,-0.482185303,-1.571066678,,,,,,,,,,-0.565167997,-1.623232715,1.270521453,1.985297008,-0.375850606,-1.356738609,,,,,,,64
103,103,103,103,5.150985282,1.295414329,-7.726723194,3.510869026,5.293499709,-2.51848793,-4.173413277,0.734112263,5.291303697,0.328254044,-0.769667566,0.66086036,0,0,0,1,,,,0.577110236,-7.602756842,5.027790091,0.326603646,-0.500754552,0.666120647,-1.337973963,-3.121015206,0.079726564,,,,,,,,,,1.454694075,0.283978471,3.156881967,2.762818422,0.885578797,-0.502003266,,,,,,,64
104,104,104,104,5.200985282,-1.888834357,-11.94497108,7.707581043,5.343499709,-2.51848793,-4.173413277,0.734112263,5.341303697,-0.035505496,-1.204896212,0.299773306,0,0,0,1,,,,-0.738372979,-10.66657462,6.295865891,0.0377329,-1.006994286,0.390435558,-2.17355491,-3.873366325,0.548347663,,,,,,,,,,2.839808928,0.864102198,1.92919023,2.779501259,0.69341219,0.094703415,,,,,,,64
105,105,105,105,5.250985282,-3.701098442,-10.66181946,7.140182972,5.393499709,-2.51848793,-4.173413277,0.734112263,5.391303697,-0.108119965,-0.877634823,0.06024481,0,0,0,1,,,,-2.318869,-10.66321943,6.695396331,-0.078620489,-0.913991835,0.141959165,-2.417702347,-4.087867536,0.681378093,,,,,,,,,,2.988484235,1.242228786,1.219743266,2.105114102,0.886486684,0.088645956,,,,,,,64
106,106,106,106,5.300985282,-2.583052158,-7.822436333,4.511667252,5.443499709,0.426093936,0.505228043,-1.28374958,5.441303697,0.129270554,-0.702550709,0.067956761,0,0,0,1,,,,-2.459800192,-8.658794665,5.662056772,0.087223544,-0.761977112,0.086270595,-0.404831635,-0.804299562,-0.725896382,,,,,,,,,,0.940856061,-0.335189912,2.149765751,1.036898685,-0.204956245,0.466972521,,,,,,,64
107,107,107,107,5.350985282,0.751944542,-6.220740795,3.17557478,5.493499709,-0.167723209,-0.952069759,-0.026281357,5.491303697,0.211734936,-0.268620074,0.176763922,0,0,0,1,,,,-0.746462309,-6.938531136,4.485454679,0.18655188,-0.40728011,0.154368976,-0.237003648,-0.909939316,-0.224885491,,,,,,,,,,0.173019655,-0.02541082,3.425781781,1.447809353,-0.02101827,-0.08937437,,,,,,,64
108,108,108,108,5.400985282,-0.004486543,-7.13061142,5.504987717,5.543499709,-0.167723209,-0.952069759,-0.026281357,5.541303697,0.141258434,-0.240750179,0.015882028,0,0,0,1,,,,-0.350647793,-7.074060835,4.967897226,0.150419261,-0.287554105,0.050154254,-0.187966181,-0.940058039,-0.082660366,,,,,,,,,,0.031001243,0.093843961,2.91145401,1.770164526,-0.130356779,-0.267625347,,,,,,,64
109,109,109,109,5.450985282,-0.90478605,-10.42702389,6.584748745,5.593499709,-2.409569502,-0.590446949,0.274494171,5.591303697,-0.130721316,-1.490390897,0.09101624,0,0,0,1,,,,-0.64625848,-9.439874045,5.732990594,-0.073859219,-1.152328641,0.080903871,-1.760441778,-0.690123815,0.173106458,,,,,,,,,,1.524086275,0.420630009,2.530637798,2.237267195,-0.532808786,1.186859299,,,,,,,64
110,110,110,110,5.500985282,2.28903389,-10.08963585,8.916853905,5.643499709,-2.074761391,1.424402237,-2.018949986,5.641303697,-0.278928131,-0.945362508,-0.048944138,0,0,0,1,,,,0.919603078,-9.898338703,7.239593194,-0.237451912,-1.003531196,-0.016809845,-1.982920704,0.821534261,-1.396677085,,,,,,,,,,0.695376557,-0.341143016,1.142551372,3.344973242,-0.954590427,1.303493287,,,,,,,64
111,111,111,111,5.550985282,2.28903389,-10.08963585,8.916853905,5.693499709,-2.074761391,1.424402237,-2.018949986,5.691303697,0.241131961,-0.193485871,-0.226777047,0,0,0,1,,,,1.650139868,-10.03331583,8.033272162,0.144335965,-0.42115246,-0.174815159,-2.047926566,1.252519845,-1.842301449,,,,,,,,,,0.093389954,-0.47013997,0.195969022,3.829576824,-1.07623504,0.444768533,,,,,,,64
112,112,112,112,5.600985282,0.639481843,-4.928018093,5.069493771,5.743499709,-2.074761391,1.424402237,-2.018949986,5.741303697,-0.118428014,0.065360658,0.142174706,0,0,0,1,,,,1.110994069,-6.431074875,6.630813641,-0.065282677,-0.071375866,0.063727255,-2.066920554,1.375397218,-1.96880365,,,,,,,,,,-0.748803411,-0.347741266,1.326892244,2.990973446,-0.290053822,0.2740183,,,,,,,64
113,113,113,113,5.650985282,2.626421928,-7.288537979,7.868198872,5.793499709,0.758072496,-0.559490681,-2.766461134,5.791303697,-0.991786897,-0.001603474,0.412932754,0,0,0,1,,,,1.919414468,-7.036091246,7.216343742,-0.804396757,-0.021213293,0.3265127,-0.06735898,-0.007838952,-2.540025068,,,,,,,,,,-1.155714452,-1.091750045,0.760423514,3.447100168,-0.025584675,-0.477904461,,,,,,,64
114,114,114,114,5.700985282,3.105285645,-10.53978539,8.610273361,5.843499709,1.485262871,1.512766838,-3.621630192,5.841303697,-0.373151332,-1.358066201,-0.19951798,0,0,0,1,,,,2.552029504,-9.508258624,7.875950573,-0.460372889,-0.982338162,-0.0693379,1.031604075,1.079230191,-3.314588117,,,,,,,,,,-0.826661713,-2.246115703,0.619681388,3.924956869,-1.1856579,0.995024208,,,,,,,64
115,115,115,115,5.750985282,1.498804331,-8.200502396,4.640879631,5.893499709,1.485262871,1.512766838,-3.621630192,5.891303697,0.749967694,0.119344287,-0.719349027,0,0,0,1,,,,1.990175827,-8.585520463,6.345116546,0.505170221,-0.190288122,-0.558486736,1.352708828,1.389162137,-3.53446822,,,,,,,,,,-1.823106581,-2.10082148,1.831350358,2.903617542,-0.94818507,-0.211151523,,,,,,,64
116,116,116,116,5.800985282,2.169392824,-5.389832973,0.441475779,5.943499709,1.485262871,1.512766838,-3.621630192,5.941303697,1.62722075,0.990488827,-0.140036732,0,0,0,1,,,,2.085780956,-6.33067913,3.551516551,1.400280384,0.658626582,-0.243593154,1.446532057,1.477526167,-3.596886973,,,,,,,,,,-2.699464695,-2.116622457,4.456946511,1.911889846,-0.317429192,-1.686595417,,,,,,,64
117,117,117,117,5.850985282,0.320937336,-3.752544165,10.09950638,5.993499709,-3.748734951,0.413078785,-2.381569386,5.991303697,1.454045534,0.123772927,0.868777514,0,0,0,1,,,,1.144307183,-4.511575948,6.650022214,1.443171262,0.274095759,0.593492235,-2.230735848,0.716561089,-2.726569261,,,,,,,,,,-0.332556304,-1.303304437,1.212835155,3.159449659,0.503360832,-0.391445946,,,,,,,64
118,118,118,118,5.900985282,6.277570248,-17.09223175,9.46750164,6.043499709,-2.502681255,-1.954570293,0.683790207,6.041303697,0.416216046,-1.352492213,0.77493608,0,0,0,1,,,,3.882698556,-13.3883459,7.983252135,0.623922906,-0.895332936,0.730033045,-2.423221839,-1.193009768,-0.284330065,,,,,,,,,,2.294042026,-0.290219621,0.953683121,5.517757473,-1.135909278,-0.085560064,,,,,,,64
119,119,119,119,5.950985282,-3.763311863,-4.298406601,7.003791809,6.093499709,-2.502681255,-1.954570293,0.683790207,6.091303697,0.069407523,-1.558729529,0.378190815,0,0,0,1,,,,-0.196143441,-6.974586448,7.519771976,0.181561049,-1.372279173,0.465263397,-2.4794641,-1.73744341,0.408963794,,,,,,,,,,2.327326561,0.297900159,0.704917391,3.33485681,0.151048026,1.821126964,,,,,,,64
120,120,120,120,6.000985282,-5.010570526,-12.36879921,7.796414375,6.143499709,3.177932262,2.64352417,-0.638758183,6.141303697,-0.212727562,-0.910467863,0.91451472,0,0,0,1,,,,-2.764448519,-10.78068261,7.650679027,-0.132980706,-1.040261842,0.803335705,1.524904114,1.394475923,-0.341334731,,,,,,,,,,1.072999209,-1.734271689,0.170424251,1.187326627,-2.336711561,0.770903265,,,,,,,64
121,121,121,121,6.050985282,-2.333899498,-4.372584343,3.115754128,6.193499709,0.867346168,-0.898393154,-1.017697811,6.191303697,-0.565949976,-0.633983076,0.977355599,0,0,0,1,,,,-2.534767766,-6.25920018,5.504754728,-0.478379763,-0.748169403,0.934289815,1.059477269,-0.244678182,-0.825694354,,,,,,,,,,0.344942168,-1.263585304,2.187418942,0.721306229,-0.331978068,0.494968464,,,,,,,64
122,122,122,122,6.100985282,5.121238708,-5.018945694,6.68076086,6.243499709,0.867346168,-0.898393154,-1.017697811,6.241303697,-0.211582214,-0.472719431,0.619322777,0,0,0,1,,,,1.549406728,-5.384090493,6.061240269,-0.26554336,-0.550135785,0.697269626,0.923484734,-0.712013884,-0.963192578,,,,,,,,,,-0.402751871,-1.189765503,2.055972857,3.001219978,-0.171747299,0.190218414,,,,,,,64
123,123,123,123,6.150985282,2.186142683,-7.113861561,6.05324316,6.293499709,0.867346168,-0.898393154,-1.017697811,6.291303697,-0.076050483,-0.518532991,0.382848531,0,0,0,1,,,,1.889079997,-6.604597602,6.057456041,-0.114376371,-0.527415087,0.460660272,0.883749231,-0.845254961,-1.002225066,,,,,,,,,,-0.352526504,-1.078124886,2.147913924,3.18460479,-0.300245106,-0.006718616,,,,,,,64
124,124,124,124,6.200985282,3.481257915,-5.042873859,7.621439457,6.343499709,0.543483257,0.690142632,0.224338055,6.341303697,-0.018554486,-0.549991608,0.421331883,0,0,0,1,,,,2.738443496,-5.502662805,6.797532247,-0.037934945,-0.543646383,0.431064723,0.642905181,0.252388725,-0.123854162,,,,,,,,,,-0.582762587,-0.83187083,1.424340606,3.782468249,-1.006384995,0.491720051,,,,,,,64
125,125,125,125,6.250985282,3.090928555,-7.769794464,8.782556534,6.393499709,0.346072912,1.163904667,0.832575798,6.391303697,0.020539738,-0.407740533,0.47982052,0,0,0,1,,,,2.926480234,-7.102325534,7.736844793,0.008712939,-0.445937435,0.46775462,0.432803992,0.904024317,0.561067987,,,,,,,,,,-0.328005227,-0.615875327,0.477362534,4.152229071,-1.829968824,0.297081851,,,,,,,64
126,126,126,126,6.300985282,2.111965179,-5.732305527,7.039684296,6.443499709,0.346072912,1.163904667,0.832575798,6.441303697,-0.019547112,-0.26571855,0.395676315,0,0,0,1,,,,2.491968897,-6.135654748,7.406948778,-0.013831375,-0.316369813,0.413513981,0.371414767,1.089810739,0.755501162,,,,,,,,,,-0.57828848,-0.407849802,0.665738119,3.770537348,-1.734716504,0.277360097,,,,,,,64
127,127,127,127,6.350985282,1.944168448,-5.950052738,8.105088234,6.493499709,0.346072912,1.163904667,0.832575798,6.491303697,0.020387027,-0.046500746,0.234488994,0,0,0,1,,,,2.199739178,-6.004696047,7.737308036,0.013466183,-0.122348563,0.278793419,0.35347752,1.142779906,0.810696134,,,,,,,,,,-0.746376334,-0.267353022,0.179587592,3.673851582,-1.737372876,0.053368518,,,,,,,64
128,128,128,128,6.400985282,3.011965513,-7.367500782,8.255836487,6.543499709,1.09922719,1.439273357,1.658168793,6.541303697,0.0787993,-0.209367901,0.244415253,0,0,0,1,,,,2.633029575,-6.966275818,7.982675451,0.065585348,-0.184910756,0.252923032,0.88132745,1.354740747,1.417591379,,,,,,,,,,-0.685313152,-0.263681709,0.019380939,3.911857698,-2.361321538,-0.000885246,,,,,,,64
129,129,129,129,6.450985282,3.067000389,-5.866303921,6.898507595,6.593499709,-1.021370769,1.437184811,1.066321373,6.591303697,0.076584972,-0.495931625,0.249683812,0,0,0,1,,,,2.864535718,-6.190147956,7.469647739,0.074360243,-0.408517924,0.250485442,-0.46542356,1.413679361,1.166038607,,,,,,,,,,-0.398829404,0.056735165,0.698157143,4.069886953,-1.890813909,0.646679261,,,,,,,64
130,130,130,130,6.500985282,2.497209549,-5.768198013,8.717949867,6.643499709,-1.021370769,1.437184811,1.066321373,6.641303697,-0.161416382,-0.375060231,0.361392498,0,0,0,1,,,,2.668581838,-5.892424798,8.060343711,-0.113729373,-0.384463654,0.33394564,-0.858929192,1.430483222,1.094628734,,,,,,,,,,-0.299962998,0.13500954,0.025049747,4.200746182,-1.772535245,0.74531569,,,,,,,64
131,131,131,131,6.550985282,0.414556533,-4.904089928,7.348657608,6.693499709,-1.623119116,1.193938732,0.508166313,6.691303697,-0.199747056,-0.402777404,0.362232417,0,0,0,1,,,,1.466149122,-5.195066773,7.723574186,-0.182349547,-0.397630248,0.355232112,-1.399831339,1.261379423,0.674649103,,,,,,,,,,-0.144618284,0.21292066,0.210007482,3.55416043,-1.225059722,0.919125262,,,,,,,64
132,132,132,132,6.600985282,2.085644007,-5.794518948,7.770093441,6.743499709,0.004747868,0.640322685,-1.155715942,6.741303697,-0.350702673,0.196998239,0.335126072,0,0,0,1,,,,1.796624967,-5.61803352,7.745587075,-0.316652406,0.029875443,0.340101839,-0.405654518,0.817390836,-0.636118662,,,,,,,,,,-0.918467768,-0.452166104,0.080351534,3.541733451,-0.81585579,-0.107623864,,,,,,,64
133,133,133,133,6.650985282,2.085644007,-5.794518948,7.770093441,6.793499709,0.004747868,0.640322685,-1.155715942,6.791303697,-0.165081471,1.031491995,0.333369881,0,0,0,1,,,,1.950805112,-5.742559663,7.757183476,-0.195737456,0.74998352,0.33503588,-0.115167134,0.690806205,-1.008214582,,,,,,,,,,-1.590333614,-0.478401065,-0.182437727,3.457420283,-0.623863745,-1.438783322,,,,,,,64
134,134,134,134,6.700985282,2.126322031,-6.29491806,4.494917393,6.843499709,0.004747868,0.640322685,-1.155715942,6.841303697,0.189133585,1.097539783,0.53838551,0,0,0,1,,,,2.044436397,-6.132297567,6.213480721,0.11129148,0.999857657,0.488061314,-0.030289959,0.654715933,-1.1138438,,,,,,,,,,-1.760452663,-0.513629082,1.426134401,2.979119735,-0.494132265,-2.137110952,,,,,,,64
135,135,135,135,6.750985282,3.493221998,-8.018648148,6.144469261,6.893499709,-2.26934576,-3.474582672,1.317184448,6.891303697,0.096361153,0.649025202,0.645283759,0,0,0,1,,,,2.817305806,-7.463285428,6.180824531,0.099380887,0.747628115,0.606374944,-1.615118616,-2.297287225,0.627073112,,,,,,,,,,0.024217573,0.979870357,1.727697506,3.965281003,0.383710855,-2.358509454,,,,,,,64
136,136,136,136,6.800985282,4.244867325,-10.61396313,5.268098354,6.943499709,-2.303568602,-2.47665453,-0.307596684,6.941303697,-0.041766681,0.146297917,0.560452342,0,0,0,1,,,,3.578853013,-9.686368357,5.74892294,-0.013218875,0.315304256,0.571817094,-2.102411191,-2.425515503,-0.042266068,,,,,,,,,,0.507607223,0.818528166,2.593045663,4.382436813,0.363111247,-1.965871424,,,,,,,64
137,137,137,137,6.850985282,-2.958725214,-11.14546871,7.990232944,6.993499709,-2.303568602,-2.47665453,-0.307596684,6.991303697,-0.191882402,-0.146221563,0.214483738,0,0,0,1,,,,0.091315439,-10.71589324,6.809509765,-0.155746804,-0.016507823,0.302915243,-2.244792649,-2.462074392,-0.232275607,,,,,,,,,,1.358455104,0.826934777,1.122473523,3.005832457,0.371979314,-1.262901405,,,,,,,64
138,138,138,138,6.900985282,-1.857727647,-9.088837624,6.369394779,7.043499709,-2.303568602,-2.47665453,-0.307596684,7.041303697,-0.322527349,0.39621079,-0.012827792,0,0,0,1,,,,-0.948421412,-9.567861004,6.601247564,-0.288795145,0.280214517,0.065311098,-2.286394923,-2.472497618,-0.286214814,,,,,,,,,,0.899553058,1.149916746,1.007411532,2.30869335,0.727027806,-1.494501835,,,,,,,64
139,139,139,139,6.950985282,0.14626129,-6.098706722,5.181956768,7.093499709,0.736133039,0.511100769,-0.146780014,7.091303697,-0.120642334,0.370020717,-0.046500746,0,0,0,1,,,,-0.364451795,-7.120064563,5.929639836,-0.154652086,0.344780313,-0.018829975,-0.147015936,-0.339546552,-0.186362251,,,,,,,,,,-0.718645788,0.265540676,1.618763228,1.854037534,-0.359474129,-1.126340085,,,,,,,64
140,140,140,140,7.000985282,0.285044998,-5.236692429,4.231407642,7.143499709,-1.03199172,-0.882356644,0.766187191,7.141303697,-0.049096849,-0.328864902,0.257472128,0,0,0,1,,,,-0.017971127,-5.79117826,5.126037172,-0.070445927,-0.139534128,0.18909393,-0.773411662,-0.727597226,0.495780968,,,,,,,,,,-0.103170106,0.558187199,2.674689745,2.009858799,-0.084823023,-0.225180399,,,,,,,64
141,141,141,141,7.050985282,0.134297177,-7.467999458,6.793223381,7.193499709,-1.03199172,-0.882356644,0.766187191,7.191303697,0.05803049,-0.700030983,0.16592139,0,0,0,1,,,,0.063257948,-6.974324534,5.914948891,0.032045488,-0.542501023,0.171656042,-0.95643751,-0.838233519,0.689425269,,,,,,,,,,0.607231107,0.472407171,2.058872889,2.444075248,-0.395898709,0.344969341,,,,,,,64
142,142,142,142,7.100985282,-3.966701746,-9.644271851,7.274479866,7.243499709,-1.03199172,-0.882356644,0.766187191,7.241303697,0.077883027,-0.783564329,0.076737687,0,0,0,1,,,,-2.086565024,-8.858209484,6.5582783,0.068612154,-0.71581249,0.100227722,-1.009915622,-0.869776794,0.7443963,,,,,,,,,,1.396206498,0.458143613,1.215320318,1.611689367,-0.65076731,0.488725864,,,,,,,64
143,143,143,143,7.150985282,-2.846262455,-9.644271851,7.717152119,7.293499709,-1.507760167,1.575330257,0.413142681,7.291303697,-0.027106347,-0.522350788,0.153246313,0,0,0,1,,,,-2.491833343,-9.412846294,7.106656838,-0.007746798,-0.576724,0.140125473,-1.362295541,0.878211043,0.507177737,,,,,,,,,,1.08054485,0.29704668,0.563767863,1.422340564,-1.406315343,0.618300987,,,,,,,64
144,144,144,144,7.200985282,-2.846262455,-9.644271851,7.717152119,7.343499709,-1.507760167,1.575330257,0.413142681,7.341303697,-0.106898271,-0.276255667,0.125834539,0,0,0,1,,,,-2.680907156,-9.576137577,7.395542914,-0.086844386,-0.360703535,0.129371206,-1.465257025,1.376576097,0.439837006,,,,,,,,,,0.834922535,0.340753347,0.152350664,1.332489046,-1.597183894,0.375142645,,,,,,,64
145,145,145,145,7.250985282,-2.846262455,-9.644271851,7.717152119,7.393499709,-1.507760167,1.575330257,0.413142681,7.391303697,-0.243498996,-0.173327908,-0.01343864,0,0,0,1,,,,-2.769117622,-9.624212358,7.547728236,-0.211814813,-0.225990603,0.021903399,-1.495341223,1.518663886,0.420720568,,,,,,,,,,0.616761504,0.475456233,-0.08506754,1.280373239,-1.633317315,0.225011139,,,,,,,64
146,146,146,146,7.300985282,1.316949725,-5.751448154,7.420442104,7.443499709,0.290492386,1.597586632,0.853170395,7.441303697,-0.38002336,-0.012369657,-0.219675943,0,0,0,1,,,,-0.589363452,-6.891633272,7.487496499,-0.346002335,-0.072408707,-0.159890803,-0.231308286,1.575085137,0.730408132,,,,,,,,,,-0.65264062,0.336621233,0.043459447,2.126225163,-1.689403215,0.220169253,,,,,,,64
147,147,147,147,7.350985282,-0.128913313,-5.629414558,6.869793892,7.493499709,-0.054189235,2.744148254,-0.088777542,7.491303697,-0.250371009,0.611229062,-0.187148333,0,0,0,1,,,,-0.343731644,-6.001025872,7.19519992,-0.269712926,0.419089839,-0.180402742,-0.105941447,2.410839183,0.143769867,,,,,,,,,,-1.577927411,0.131486181,0.17332986,1.943187969,-1.692746754,-0.361953278,,,,,,,64
148,148,148,148,7.400985282,0.380757898,-5.93091011,7.042077065,7.543499709,-0.054189235,2.744148254,-0.088777542,7.541303697,0.182108834,1.087002754,0.145534366,0,0,0,1,,,,0.042754668,-5.951552975,7.122742258,0.09072561,0.899283067,0.064872686,-0.069310654,2.649119222,-0.022762841,,,,,,,,,,-1.869269342,-0.079663416,0.15172653,2.035240249,-1.726627386,-1.249333739,,,,,,,64
149,149,149,149,7.450985282,0.601196706,-4.463511467,6.702296257,7.593499709,-0.054189235,2.744148254,-0.088777542,7.591303697,0.511355519,1.007134438,0.432479858,0,0,0,1,,,,0.340661251,-4.901607538,6.923787411,0.426281004,0.976822364,0.341505828,-0.058607545,2.717054731,-0.070037532,,,,,,,,,,-1.879247896,-0.363194892,0.363721992,2.137830533,-1.603712058,-1.337545602,,,,,,,64
150,150,150,150,7.500985282,1.934597135,-8.739186287,6.905686378,7.643499709,-1.437060833,-3.821380138,0.036784172,7.641303697,0.583053708,1.04088378,0.485241801,0,0,0,1,,,,1.190962554,-7.609360161,6.915222011,0.55134564,1.022879054,0.449670567,-1.034292149,-1.957221031,0.006460021,,,,,,,,,,-0.125815063,0.44665264,0.618945776,3.21495086,0.302885934,-2.734853861,,,,,,,64
151,151,151,151,7.550985282,1.934597135,-8.739186287,6.905686378,7.693499709,-1.437060833,-3.821380138,0.036784172,7.691303697,0.401708424,1.011257648,0.422859013,0,0,0,1,,,,1.587661982,-8.406552833,6.910709754,0.431973304,1.014523892,0.429494235,-1.319376314,-3.289893744,0.028175864,,,,,,,,,,0.28556573,0.757961191,0.71518996,3.590884308,0.847052707,-3.079401906,,,,,,,64
152,152,152,152,7.600985282,-2.542374134,-10.59960651,5.835496426,7.743499709,-1.437060833,-3.821380138,0.036784172,7.741303697,-0.017790927,0.8559497,0.351389885,0,0,0,1,,,,-0.615547775,-9.95394697,6.40191932,0.073176152,0.900517633,0.370718854,-1.402674728,-3.669849195,0.034340477,,,,,,,,,,0.801776261,1.039557149,1.040884448,2.35469033,0.992234721,-3.12320263,,,,,,,64
153,153,153,153,7.650985282,0.591625392,-6.967600346,5.888138294,7.793499709,0.216416597,1.418686867,-1.763540268,7.791303697,-0.233878151,0.607640326,0.306187183,0,0,0,1,,,,0.028431025,-7.846814209,6.158798384,-0.171774873,0.689954704,0.322157236,-0.256663838,-0.032094709,-1.253164511,,,,,,,,,,-0.977368424,-0.291469511,1.380255051,2.072342632,-0.243947239,-1.856948068,,,,,,,64
154,154,154,154,7.700985282,-0.799501836,-5.777769566,5.016851902,7.843499709,-0.879866123,-0.700173855,0.576803207,7.841303697,-0.096208446,0.336882263,0.352229804,0,0,0,1,,,,-0.413238178,-6.386919461,5.618429853,-0.111492136,0.436114733,0.344787559,-0.697773363,-0.509699246,0.057318719,,,,,,,,,,-0.465346227,0.411525225,1.91029617,1.832745208,-0.088597926,-1.267114022,,,,,,,64
155,155,155,155,7.750985282,-0.799501836,-5.777769566,5.016851902,7.893499709,-0.879866123,-0.700173855,0.576803207,7.891303697,0.13049224,0.474704683,0.350473613,0,0,0,1,,,,-0.619294454,-5.957110111,5.333763454,0.081549682,0.463858818,0.349066449,-0.826660649,-0.645868049,0.429333866,,,,,,,,,,-0.342067159,0.600433853,2.157636309,1.671495064,-0.022829202,-1.285732541,,,,,,,64
156,156,156,156,7.800985282,-3.918845177,-8.528617859,7.128218651,7.943499709,-0.879866123,-0.700173855,0.576803207,7.941303697,0.082388021,0.699725509,0.296948135,0,0,0,1,,,,-2.379473334,-7.771537203,6.182898797,0.082218463,0.6334342,0.309846178,-0.864320077,-0.684690843,0.534940155,,,,,,,,,,0.127300662,0.700672562,1.009968043,1.035148037,-0.268670789,-1.726397655,,,,,,,64
157,157,157,157,7.850985282,-2.451446772,-8.301300049,7.238587379,7.993499709,0.635016441,-0.601700306,-0.956756592,7.991303697,0.042988375,0.479438752,0.136982501,0,0,0,1,,,,-2.417868296,-8.145331939,6.682450131,0.050922858,0.522719809,0.179762149,0.196927025,-0.62536156,-0.533299219,,,,,,,,,,-0.225092495,-0.148663277,0.517949365,1.036161855,-0.300308,-1.647740631,,,,,,,64
158,158,158,158,7.900985282,-2.278864384,-8.770293236,6.867401123,8.043499709,0.497557163,-0.40575695,0.141955376,8.041303697,-0.070858285,0.266023994,0.082388021,0,0,0,1,,,,-2.343715246,-8.586297637,6.769968852,-0.046227436,0.338169414,0.106485801,0.409716388,-0.468367948,-0.049733409,,,,,,,,,,-0.105928112,-0.026241155,0.501124585,1.090753657,-0.6777307,-1.35991188,,,,,,,64
159,159,159,159,7.950985282,-2.087438583,-6.89342308,5.153242588,8.093499709,0.497557163,-0.40575695,0.141955376,8.091303697,0.023288552,0.14637427,-0.124612838,0,0,0,1,,,,-2.207001855,-7.391824293,6.004934755,0.009228593,0.200279089,-0.067421422,0.471891068,-0.423607837,0.08753947,,,,,,,,,,-0.341774631,0.106118834,1.324382523,0.902953486,-0.525458767,-0.951162766,,,,,,,64
160,160,160,160,8.000985282,-3.679563046,-8.066504478,6.321538448,8.143499709,0.497557163,-0.40575695,0.141955376,8.141303697,0.180887148,0.17737478,-0.210436881,0,0,0,1,,,,-2.992554594,-7.867871082,6.154751472,0.146168341,0.183812131,-0.175043957,0.490057816,-0.410846378,0.126507989,,,,,,,,,,-0.144357932,0.122152068,1.077857468,0.551983869,-0.604234044,-0.935022596,,,,,,,64
161,161,161,161,8.050985282,-2.889333248,-5.521737576,5.019244671,8.193499709,-0.619142294,0.321165562,0.201760292,8.191303697,0.18569757,0.030542362,-0.189820781,0,0,0,1,,,,-2.937490117,-6.212465533,5.617430195,0.177702585,0.073619465,-0.186163869,-0.295046387,0.112463211,0.180397946,,,,,,,,,,-0.255762758,0.363990648,1.651517321,0.462507191,-0.407924698,-0.319049209,,,,,,,64
162,162,162,162,8.100985282,-2.889333248,-5.521737576,5.019244671,8.243499709,-0.619142294,0.321165562,0.201760292,8.241303697,0.257701188,0.457600951,-0.214865521,0,0,0,1,,,,-2.911800346,-5.725095615,5.33436909,0.241521068,0.349681366,-0.207762545,-0.524445083,0.261662883,0.195696028,,,,,,,,,,-0.552323231,0.553480124,1.834884957,0.338957739,-0.29099061,-0.675913608,,,,,,,64
163,163,163,163,8.150985282,-4.395316124,-6.828816891,6.055635929,8.293499709,-0.619142294,0.321165562,0.201760292,8.291303697,0.284578472,0.3151972,-0.025655584,0,0,0,1,,,,-3.703196921,-6.503868997,5.675672214,0.275869896,0.324889117,-0.070722725,-0.591472825,0.304200881,0.200038791,,,,,,,,,,-0.17182469,0.450260354,1.415109193,0.077502608,-0.418031441,-0.729011509,,,,,,,64
164,164,164,164,8.200985282,-2.216650963,-7.717152119,6.173183441,8.343499709,-0.004087448,-1.665195465,-1.244102955,8.341303697,0.224257305,0.522961617,-0.014202199,0,0,0,1,,,,-2.910183866,-7.359947991,5.91109429,0.234696211,0.467292521,-0.028189685,-0.175714907,-1.103705107,-0.834145321,,,,,,,,,,-0.183478049,0.019845905,1.268853976,0.62314168,0.310002195,-1.47385793,,,,,,,64
165,165,165,165,8.250985282,-3.215056419,-7.295716286,6.479464531,8.393499709,0.732795239,0.899285317,1.534791946,8.391303697,0.380939633,0.048638713,0.154238939,0,0,0,1,,,,-3.072821229,-7.314626818,6.180046817,0.351361165,0.166303097,0.109092195,0.467338702,0.328217023,0.862306769,,,,,,,,,,-0.001854956,0.112191369,1.03497186,0.491878042,-1.124218894,-0.755177536,,,,,,,64
166,166,166,166,8.300985282,-3.215056419,-7.295716286,6.479464531,8.443499709,0.732795239,0.899285317,1.534791946,8.441303697,0.305423617,-0.3560476,0.170426384,0,0,0,1,,,,-3.148698037,-7.301283758,6.321731136,0.314714717,-0.209238776,0.155247631,0.655231798,0.736469263,1.343889334,,,,,,,,,,0.280721096,0.042847959,1.005963237,0.515524465,-1.578670899,-0.045784548,,,,,,,64
167,167,167,167,8.350985282,-3.432803154,-5.662913799,7.995018482,8.493499709,0.732795239,0.899285317,1.534791946,8.491303697,0.264038742,-0.140189439,0.31130302,0,0,0,1,,,,-3.3002568,-6.145268249,7.11352991,0.274288213,-0.159596041,0.272683023,0.710132066,0.852865182,1.480599217,,,,,,,,,,0.228858585,-0.047799354,0.066443992,0.667814798,-1.57171003,0.098629808,,,,,,,64
168,168,168,168,8.400985282,-5.269294739,-7.290930748,6.168397903,8.543499709,0.383574486,0.053222656,1.348669052,8.541303697,0.239299417,-0.196540102,0.37116608,0,0,0,1,,,,-4.350660108,-6.953634888,6.666293895,0.246376077,-0.186156821,0.346793866,0.47899097,0.281207017,1.386120901,,,,,,,,,,0.684061681,0.07138633,0.452560889,0.090350745,-1.247203624,-0.092260369,,,,,,,64
169,169,169,169,8.450985282,-3.760919094,-5.298905849,4.703093052,8.593499709,-2.123515368,-0.315174103,0.189390183,8.591303697,0.265794903,-0.297024488,0.587100565,0,0,0,1,,,,-4.036056768,-5.786076595,5.737308193,0.261867348,-0.265864672,0.527630374,-1.363092028,-0.145141164,0.529113686,,,,,,,,,,0.997664907,0.333834184,1.553090213,0.250651869,-0.129170122,0.23979045,,,,,,,64
170,170,170,170,8.500985282,-3.600599766,-6.342774391,8.243872643,8.643499709,-2.123515368,-0.315174103,0.189390183,8.641303697,0.223722816,-0.26205346,0.575570822,0,0,0,1,,,,-3.803757803,-6.17887633,6.923413295,0.231437739,-0.263124617,0.563706701,-1.901328145,-0.266696377,0.285829638,,,,,,,,,,1.287160692,0.308464797,0.35605498,0.843103738,-0.065831877,0.297163575,,,,,,,64
171,171,171,171,8.550985282,-6.368198395,-6.440880299,6.781259537,8.693499709,-2.123515368,-0.315174103,0.189390183,8.691303697,0.004046863,0.050013117,0.448743671,0,0,0,1,,,,-5.17178471,-6.363743399,6.856146204,0.050037812,-0.037995538,0.477194286,-2.058594738,-0.301352723,0.21676706,,,,,,,,,,1.234519862,0.565021989,0.14416868,0.079652353,0.117425526,-0.029857372,,,,,,,64
172,172,172,172,8.600985282,-5.384150028,-6.462415695,6.932007313,8.743499709,0.86184907,-0.492177486,1.005396366,8.741303697,-0.02275406,-0.176992998,0.493030101,0,0,0,1,,,,-5.285073148,-6.433365467,6.892043645,-0.008031538,-0.137927187,0.489111114,0.008527946,-0.437771848,0.781523186,,,,,,,,,,0.925491759,0.06522449,0.057973736,-0.199705091,-0.473070309,-0.165143912,,,,,,,64
173,173,173,173,8.650985282,-5.384150028,-6.462415695,6.932007313,8.793499709,0.86184907,-0.492177486,1.005396366,8.791303697,0.234794408,-0.328941256,0.471115947,0,0,0,1,,,,-5.337926717,-6.453862983,6.910954433,0.185681639,-0.275255962,0.475569322,0.61251815,-0.476666012,0.941844073,,,,,,,,,,0.998954234,-0.190527018,0.072251299,-0.254913459,-0.679824742,-0.024933878,,,,,,,64
174,174,174,174,8.700985282,-3.947559118,-6.177670002,8.708378792,8.843499709,0.86184907,-0.492177486,1.005396366,8.841303697,0.537240148,-0.09743014,0.19821994,0,0,0,1,,,,-4.596220985,-6.258984306,7.761494782,0.46613567,-0.147408823,0.266857314,0.788997354,-0.487755043,0.987355376,,,,,,,,,,0.801882623,-0.25120452,-0.798399631,0.350856711,-0.823811286,-0.147808167,,,,,,,64
175,175,175,175,8.750985282,-3.698705673,-4.197608948,5.380560875,8.893499709,1.469326735,0.892783642,-0.103873253,8.891303697,0.630852521,-0.031687703,0.078264803,0,0,0,1,,,,-4.117432317,-4.80450092,6.634837993,0.597537709,-0.064211602,0.124936963,1.270542074,0.499181226,0.205900707,,,,,,,,,,-0.198072919,-0.710392525,0.382269619,0.02051048,-0.822810894,0.001229537,,,,,,,64
176,176,176,176,8.800985282,-3.538087368,-4.482654095,8.53370285,8.943499709,-0.414211273,-0.411577225,1.045492649,8.941303697,0.624056816,-0.017027367,0.083686076,0,0,0,1,,,,-3.808374864,-4.577409402,7.533379938,0.618693193,-0.030288691,0.093894689,0.078054873,-0.151912841,0.807152384,,,,,,,,,,0.36363481,-0.016754086,-0.544152286,0.690366478,-0.518674994,0.076901201,,,,,,,64
177,177,177,177,8.850985282,-3.411267757,-4.046861172,7.346264839,8.993499709,-0.414211273,-0.411577225,1.045492649,8.991303697,0.865494192,0.080020994,0.016721943,0,0,0,1,,,,-3.59653404,-4.203060507,7.444837162,0.815577448,0.049018001,0.035820362,-0.270376593,-0.337544871,0.977833493,,,,,,,,,,0.412597623,0.200026834,-0.457842599,0.823380781,-0.358929956,0.00093051,,,,,,,64
178,178,178,178,8.900985282,-5.156532764,-5.46909523,8.638986588,9.043499709,-0.414211273,-0.411577225,1.045492649,9.041303697,0.937039673,-0.119115219,0.051692948,0,0,0,1,,,,-4.428731221,-5.096360441,8.009908101,0.912473327,-0.071860682,0.04776486,-0.372184383,-0.390470019,1.026285817,,,,,,,,,,0.911371774,0.136017102,-1.085809884,0.641264272,-0.503461355,0.133965355,,,,,,,64
179,179,179,179,8.950985282,-3.222234726,-4.250251293,7.717152119,9.093499709,-0.086167812,-0.40542531,-0.11721611,9.091303697,1.051191807,-0.464091212,0.060473878,0,0,0,1,,,,-3.785113399,-4.499355294,7.87137611,1.023135296,-0.353853199,0.057328698,-0.169738666,-0.401161439,0.207397001,,,,,,,,,,0.818755844,-0.442994605,-0.741430878,0.953903613,-0.26298466,0.635947762,,,,,,,64
180,180,180,180,9.000985282,-3.499802113,-5.895017624,10.34836006,9.143499709,-0.502252579,0.267167568,0.214859009,9.141303697,1.114948988,-0.583359122,0.031229567,0,0,0,1,,,,-3.632911192,-5.484119017,9.043483734,1.096379207,-0.518855533,0.037688481,-0.40509572,0.076621722,0.212740721,,,,,,,,,,1.157079797,-0.595272169,-1.852797654,1.441736483,-0.748216516,0.986184185,,,,,,,64
181,181,181,181,9.050985282,-4.871787071,-3.900899172,7.9782691,9.193499709,-0.502252579,0.267167568,0.214859009,9.191303697,0.889546335,-0.090787172,0.110868774,0,0,0,1,,,,-4.293802126,-4.36701681,8.539424678,0.931379324,-0.211097556,0.092758393,-0.473864428,0.212841452,0.214257677,,,,,,,,,,0.742603772,-0.392774412,-1.581919515,0.855656207,-0.47356286,0.641707707,,,,,,,64
182,182,182,182,9.100985282,-4.500600338,-2.907279491,8.64138031,9.243499709,0.710264444,0.128809214,-0.712304115,9.241303697,0.415070713,-0.024510246,0.28862533,0,0,0,1,,,,-4.404120735,-3.337042493,8.587670034,0.519496727,-0.076951381,0.240152922,0.364275189,0.152767464,-0.44927517,,,,,,,,,,0.129963686,-0.873386988,-1.765392387,0.65803006,-0.19830262,0.428603447,,,,,,,64
183,183,183,183,9.150985282,-3.456731319,-2.519343138,8.957531929,9.293499709,-0.562603712,-1.296911716,-2.536372185,9.291303697,0.171113595,0.267627448,0.273659587,0,0,0,1,,,,-3.898726219,-2.760082978,8.762688506,0.241575837,0.170782143,0.265367484,-0.29178003,-0.883596802,-1.943894779,,,,,,,,,,-0.119064213,-1.026299039,-1.964400984,1.083812658,1.022399515,-0.034177425,,,,,,,64
184,184,184,184,9.200985282,-3.456731319,-2.519343138,8.957531929,9.343499709,-0.562603712,-1.296911716,-2.536372185,9.341303697,0.632608712,0.424844265,0.734009326,0,0,0,1,,,,-3.662939546,-2.590219641,8.854888321,0.553520345,0.353439055,0.618031618,-0.483472051,-1.17907239,-2.368181883,,,,,,,,,,0.05912457,-1.383392301,-2.056225005,1.302981641,1.337014988,-0.485870949,,,,,,,64
185,185,185,185,9.250985282,-4.797609329,-3.807579041,6.005386829,9.393499709,-0.562603712,-1.296911716,-2.536372185,9.391303697,0.057801422,0.226395264,0.426142305,0,0,0,1,,,,-4.268240678,-3.449174811,7.506505574,0.158063068,0.262101447,0.473630345,-0.539482323,-1.263314799,-2.488626942,,,,,,,,,,-0.032245078,-1.068144944,-0.648658423,0.55347974,1.487184808,-0.492471827,,,,,,,64
186,186,186,186,9.300985282,-3.069094181,-1.904088616,7.985447407,9.443499709,2.223551035,1.405128837,-0.583392143,9.441303697,-0.340547353,0.107203692,0.048333291,0,0,0,1,,,,-3.628543787,-2.358979282,7.733140621,-0.239700886,0.150738347,0.153584195,1.41622349,0.644334609,-1.124243173,,,,,,,,,,-1.252011007,-1.116312057,-0.926406186,0.469278203,-0.141812834,0.125946651,,,,,,,64
187,187,187,187,9.350985282,-7.10548687,-6.172883987,7.726723194,9.493499709,2.450601101,2.623713017,-2.798242092,9.491303697,0.011300675,0.128125206,0.017256435,0,0,0,1,,,,-5.483354425,-5.050027764,7.730103898,-0.039465654,0.134480723,0.050994313,2.148367494,2.059376695,-2.323033451,,,,,,,,,,-1.337904409,-2.039611455,-1.040501601,-0.704083391,-0.907334586,0.000963255,,,,,,,64
188,188,188,188,9.400985282,-3.99302268,-0.199501589,6.206682682,9.543499709,2.450601101,2.623713017,-2.798242092,9.541303697,-0.650017858,0.028480753,-0.317564219,0,0,0,1,,,,-4.688321803,-1.627550772,7.009221705,-0.526530602,0.058272483,-0.22635475,2.36229181,2.462816301,-2.663341615,,,,,,,,,,-2.491961423,-1.950057107,-0.319687308,-0.678176166,-0.437278466,0.746554453,,,,,,,64
189,189,189,189,9.450985282,-1.673181176,0.99750793,5.256134033,9.593499709,2.450601101,2.623713017,-2.798242092,9.591303697,-0.771652818,0.589238524,-0.192722306,0,0,0,1,,,,-3.07986438,0.224661273,6.179661455,-0.722075616,0.440008322,-0.201045536,2.424798111,2.5778401,-2.759947042,,,,,,,,,,-3.51105466,-1.777923812,0.555755965,-0.25116496,-0.116932896,0.281684541,,,,,,,64
190,190,190,190,9.500985282,-9.942477226,-5.083551884,9.220742226,9.643499709,2.488909721,-0.29880929,-0.292821884,9.641303697,-0.831057668,0.745691776,-0.393996477,0,0,0,1,,,,-6.740794977,-3.520754531,7.618699425,-0.809015499,0.659778177,-0.346245709,2.470177023,0.521346032,-0.993180278,,,,,,,,,,-1.809838934,-0.664601545,-1.48904949,-1.465738507,-0.204572071,-0.818394776,,,,,,,64
191,191,191,191,9.550985282,-0.30388847,-1.013659477,9.97956562,9.693499709,0.797689438,0.184780598,-0.641646385,9.691303697,-0.813572168,0.695525944,-0.71056807,0,0,0,1,,,,-3.306961755,-1.751776316,8.735860183,-0.812650559,0.685478886,-0.620406953,1.286371665,0.280738045,-0.74143853,,,,,,,,,,-2.197608848,-0.085282161,-2.278082787,0.791481237,0.065003438,-0.411363747,,,,,,,64
192,192,192,192,9.600985282,-1.529611826,-2.94317174,8.619844437,9.743499709,0.797689438,0.184780598,-0.641646385,9.741303697,-0.85465169,0.276790172,-0.91558367,0,0,0,1,,,,-2.358816365,-2.592411595,8.680961587,-0.84615675,0.391653825,-0.842534454,0.940476937,0.212138819,-0.669975011,,,,,,,,,,-2.00767934,0.112416293,-1.938629952,1.355046984,-0.067967758,0.032130692,,,,,,,64
193,193,193,193,9.650985282,-4.740181446,-2.70149684,7.178467751,9.793499709,1.378453016,1.226859093,-2.228023529,9.791303697,-0.491426617,0.471955866,-1.001636744,0,0,0,1,,,,-3.629179779,-2.669380923,7.96998222,-0.563172571,0.449386645,-0.962262712,1.250481288,0.937554377,-1.78573046,,,,,,,,,,-2.35242476,-0.492294003,-1.351575684,0.342337467,0.003754547,0.026134033,,,,,,,64
194,194,194,194,9.700985282,-4.579563618,-2.088634968,7.681259632,9.843499709,3.250672817,1.768200874,2.023777485,9.841303697,-0.323901773,0.504483461,-0.811205149,0,0,0,1,,,,-4.136171701,-2.259613076,7.833358829,-0.372295496,0.488998273,-0.848588302,2.666239151,1.531377038,0.942348415,,,,,,,,,,-2.302957716,0.025219814,-1.400834311,-0.174258701,-1.375235259,-0.072094139,,,,,,,64
195,195,195,195,9.750985282,-3.475873947,-3.410071373,4.425525665,9.893499709,3.250672817,1.768200874,2.023777485,9.891303697,-1.05493319,0.202495873,-0.840983987,0,0,0,1,,,,-3.783929151,-3.071363577,6.220773802,-0.916866282,0.283018558,-0.842865874,3.079907815,1.700680539,1.716785388,,,,,,,,,,-2.479725388,0.470631193,0.438048302,-0.571859405,-1.766380548,0.03171034,,,,,,,64
196,196,196,196,9.800985282,-1.431506157,-1.78684032,12.17737389,9.943499709,3.250672817,1.768200874,2.023777485,9.941303697,-1.337221026,0.347266674,-0.762719154,0,0,0,1,,,,-2.529005187,-2.16501834,9.03943412,-1.252202164,0.329209475,-0.782553561,3.200777187,1.748950297,1.9366297,,,,,,,,,,-2.604235758,0.331663202,-2.477596417,0.941061238,-2.062833769,0.2725472,,,,,,,64
197,197,197,197,9.850985282,-9.346364975,-8.586046219,6.484250069,9.993499709,4.338402748,3.12176156,-1.777384281,9.991303697,-0.15500249,0.272666931,-0.35818556,0,0,0,1,,,,-6.165795079,-6.69562376,7.830322246,-0.376916645,0.288558447,-0.463206545,4.006001242,2.730362293,-0.723063686,,,,,,,,,,-1.948697561,-1.575034584,-1.369796613,-1.409886588,-2.30603523,-0.412504178,,,,,,,64
198,198,198,198,9.900985282,-3.873381615,-4.58554554,3.754936934,10.04349971,-3.732729912,0.561867237,5.370563507,10.0413037,-0.257930249,0.12331479,-0.301834911,0,0,0,1,,,,-4.942883809,-5.20677618,5.90185186,-0.281995846,0.169757204,-0.341770552,-1.47155894,1.1801222,3.640727087,,,,,,,,,,0.205218719,2.470860866,0.896261656,-0.472440303,-1.46964337,0.227909251,,,,,,,64
199,199,199,199,9.950985282,1.657029629,-2.378166676,8.586344719,10.09349971,-3.732729912,0.561867237,5.370563507,10.0913037,-0.325810671,0.549151659,-0.438511968,0,0,0,1,,,,-1.422092883,-3.210940966,7.1721526,-0.316948902,0.442521278,-0.414570769,-3.072040962,0.73813658,4.879503922,,,,,,,,,,0.014509514,3.618056105,-0.153624819,1.928334736,-1.281628712,0.215251404,,,,,,,64
200,200,200,200,10.00098528,-12.09960651,-9.426525116,9.170493126,10.14349971,-3.732729912,0.561867237,5.370563507,10.1413037,-0.537011087,-0.029549737,-0.221355781,0,0,0,1,,,,-7.11812109,-7.59658759,8.117766384,-0.492502403,0.103127775,-0.269171894,-3.539683966,0.61212301,5.231163323,1.581363899,0.500216684,0.149360965,3.137821352,2.787110769,2.411302985,3.46432934,3.546577394,3.279404929,2.059715515,3.801775856,-1.637899045,-0.490605111,-1.727684738,0.373511965,2.806374885,3.58234484,2.083056131,1.195162079,2.584354431,2.915002765,64
201,201,201,201,10.05098528,-0.959820986,-4.147359848,13.4345026,10.19349971,-2.436589718,0.331764221,-1.424479008,10.1913037,-0.275950253,0.00297788,-0.084525988,0,0,0,1,,,,-3.832913287,-5.162851092,10.63364343,-0.319749015,0.031125422,-0.130221457,-2.75890156,0.411696713,0.464900197,1.549801713,0.473764959,0.143147878,3.045911616,2.786262225,2.430575199,3.487283261,3.514229766,3.28174266,0.793646612,0.990338574,-3.829558323,1.91232903,-0.35144726,0.745236981,2.708757452,3.507031061,1.993621769,1.221934302,2.540418444,2.87929591,64
202,202,202,202,10.10098528,-3.997808456,-7.176074982,4.889732838,10.24349971,2.239904881,-0.540130615,-0.423728943,10.2413037,0.278088212,0.597103179,-0.159965619,0,0,0,1,,,,-3.920878292,-6.583359341,7.915627675,0.157172625,0.438032789,-0.152604647,0.779309366,-0.268757172,-0.171468179,1.530604353,0.443238644,0.12811896,3.069496069,2.746416701,2.473474851,3.548386826,3.497023587,3.306649256,-0.337689912,-0.21387679,-1.095385732,0.53765114,-0.521635012,-1.023582218,2.779211573,3.519535318,1.926422265,1.198207035,2.487299553,2.818478665,64
203,203,203,203,10.15098528,-3.997808456,-7.176074982,4.889732838,10.29349971,2.239904881,-0.540130615,-0.423728943,10.2913037,0.331995487,0.628332734,-0.394149184,0,0,0,1,,,,-3.96191747,-7.001572864,6.483775682,0.296636684,0.574848148,-0.334372657,1.813135154,-0.462759916,-0.352118087,1.506548113,0.413032777,0.127940095,2.989934304,2.877334689,2.360102822,3.306915405,3.284241538,3.45008354,-0.855632512,-0.389457455,0.364514665,-0.102002921,-0.504129671,-1.566475988,2.852225302,3.441721595,1.965651236,1.225225145,2.350353234,2.966010507,64
204,204,204,204,10.20098528,-1.706680775,-7.963613033,6.014957905,10.34349971,1.07494688,0.313801765,0.66292429,10.3413037,0.321229309,0.180352658,-0.392316639,0,0,0,1,,,,-2.758838525,-7.680377642,6.261931333,0.316255327,0.291227247,-0.377976882,1.290637264,0.092397934,0.374777802,1.465747755,0.381734998,0.117605358,3.001131956,2.930888634,2.232572112,3.541509268,3.230850399,3.494333479,-0.629151175,-0.022809445,0.913249475,0.51905915,-1.083485633,-1.038802646,2.855168974,3.41756498,1.895316652,1.226357632,2.454971328,2.976111455,64
205,205,205,205,10.25098528,-2.815155745,-8.507082939,7.284051418,10.39349971,-1.104176044,-0.535983086,1.007294178,10.3913037,0.491044849,0.233114585,-0.08880192,0,0,0,1,,,,-2.788881519,-8.263691649,6.74559807,0.455692789,0.249447389,-0.160365844,-0.404438293,-0.356826724,0.827737761,1.471604368,0.34828509,0.118591892,3.113786986,2.92377432,2.136637536,3.522475461,3.159073559,3.127129687,0.352773188,0.588036585,0.490083694,0.977991675,-0.810012295,-0.956382181,2.813001117,3.141893621,1.996354674,1.224370687,2.434008512,2.973933955,64
206,206,206,206,10.30098528,-3.708276987,-6.120242119,6.280860424,10.44349971,-1.104176044,-0.535983086,1.007294178,10.4413037,0.521129072,0.2948865,-0.05856498,0,0,0,1,,,,-3.279342379,-6.751297646,6.525684438,0.507894254,0.28211565,-0.083758272,-0.899720474,-0.484904201,0.956322364,1.437938877,0.32009363,0.104869108,3.0554275,2.782417412,1.998295898,3.478262528,3.310892794,3.157855061,0.417295436,0.800936998,0.590763039,0.725218683,-0.399706756,-0.766630636,2.914040509,3.179237199,1.845126322,1.228763684,2.427033133,2.775764894,64
207,207,207,207,10.35098528,-6.439982891,-7.879864216,6.900900364,10.49349971,-1.104176044,-0.535983086,1.007294178,10.4913037,0.644978344,-0.004734066,-0.140571222,0,0,0,1,,,,-4.965418195,-7.547601589,6.703236435,0.617252397,0.075886233,-0.126511368,-1.044436406,-0.521420095,0.992824488,1.449225836,0.293127624,0.105634223,2.848627598,2.818479275,1.886475256,3.471781069,3.339979807,3.329863113,1.033978608,0.78880067,0.283052883,-0.005020325,-0.449779393,-0.451219696,2.871421806,3.303182515,1.875891454,1.280154933,2.36487042,3.050535409,64
208,208,208,208,10.40098528,-5.25254488,-7.154539585,7.355835915,10.54349971,0.308471203,0.136033535,0.470074177,10.5413037,0.836249888,0.056961507,0.139654949,0,0,0,1,,,,-5.118588844,-7.270261437,7.012046197,0.791956543,0.062280379,0.073785117,-0.086833318,-0.051411656,0.618470608,1.374236964,0.264765686,0.111573331,2.6384619,2.756116694,1.917536786,3.505552491,3.451159756,3.334560598,0.819610927,0.011506038,-0.070276173,-0.127905335,-0.760227669,-0.461522107,2.9187834,3.25155022,2.002220445,1.25149517,2.42188454,2.954938382,64
209,209,209,209,10.45098528,-2.573480844,-5.899803162,5.928816319,10.59349971,-1.067510605,-0.45992136,1.810676098,10.5913037,0.904282987,0.092390649,0.431105465,0,0,0,1,,,,-3.760875105,-6.303281413,6.499462335,0.881564399,0.083928033,0.342677179,-0.780967634,-0.343452037,1.472237199,1.302954991,0.257834763,0.105457874,2.52840416,2.510796263,2.056923008,3.239411514,3.299711387,3.242743519,1.003155249,0.505111652,0.638186682,0.547149735,-0.634969382,-0.481881807,2.900107102,3.154632206,1.925588603,1.231391378,2.277411939,2.783842071,64
210,210,210,210,10.50098528,-4.742574692,-6.304489613,7.207480907,10.64349971,-1.067510605,-0.45992136,1.810676098,10.6413037,0.889928103,-0.140800297,0.29511559,0,0,0,1,,,,-4.284572731,-6.304133905,6.834496386,0.888236501,-0.077639471,0.306885952,-0.983785943,-0.426715042,1.714601311,1.236184915,0.234230541,0.086099751,3.022208339,2.370918819,2.286448144,3.192176333,3.44225379,3.390728218,1.349455091,0.625848064,0.265931693,0.455742707,-0.659338408,-0.140231156,3.064460989,3.218778395,1.701738459,1.19868113,2.345993076,2.632376697,64
211,211,211,211,10.55098528,-5.946762562,-6.326025009,8.521739006,10.69349971,0.920137882,1.273516655,0.388888836,10.6913037,0.962008059,-0.249225676,0.260526359,0,0,0,1,,,,-5.171284796,-6.319580023,7.632898789,0.94708739,-0.201000663,0.271999255,0.363832565,0.788767252,0.765227205,1.177722444,0.234888306,0.09444805,3.260638011,2.518277567,2.325046142,3.167951758,3.449256165,3.433211204,0.862131468,-0.517442168,-0.673797332,-0.021146308,-1.272604389,0.231114612,3.371979725,3.139496101,1.790600445,1.177380614,2.367089567,2.662281057,64
212,212,212,212,10.60098528,-5.084748268,-4.568795681,7.846663475,10.74349971,-0.328865528,-1.129671097,1.030832767,10.7413037,0.955136061,-0.222424761,0.454317659,0,0,0,1,,,,-5.125121005,-5.084246183,7.734052136,0.953508177,-0.216403429,0.409198191,-0.126466867,-0.582709264,0.95543364,1.175735509,0.208350572,0.075272685,3.231126979,2.419826335,2.254045516,3.121854896,3.11836911,3.572454912,1.302196502,-0.215448919,-0.813199486,0.249679845,-0.410956647,0.196800404,3.425874987,3.104682279,1.57775657,1.128681376,2.283270188,2.478764696,64
213,213,213,213,10.65098528,-3.607778311,-3.307179928,7.339086056,10.79349971,-0.233026028,-1.070309162,0.036235332,10.7913037,1.065470338,-0.313593715,0.341005474,0,0,0,1,,,,-4.315679118,-3.830368119,7.547154375,1.042825427,-0.286277984,0.35788155,-0.201890629,-0.931290604,0.297173959,1.115133383,0.171364159,0.088015572,3.327605095,2.383331498,2.278442208,3.360912868,3.364913348,3.629065035,1.05431476,-0.464087281,-0.50995518,0.647500123,0.131649658,0.41612666,3.539561753,2.999079451,1.786772119,1.1253498,2.063483936,2.524831093,64
214,214,214,214,10.70098528,-5.379364491,-6.127420425,8.701200485,10.84349971,-0.233026028,-1.070309162,0.036235332,10.8413037,1.400978208,-0.464014858,0.169204697,0,0,0,1,,,,-4.883112895,-5.451142522,8.093248444,1.328540006,-0.414061174,0.21589773,-0.223928611,-1.03067388,0.110309628,1.033651732,0.174299218,0.079770301,3.36034481,2.482512839,2.476282206,3.308522758,3.315678708,3.303449504,1.548465372,-0.629948432,-1.042073375,0.591643108,-0.072475177,0.453506909,3.450591859,2.987697557,1.651587263,1.078122818,1.704505788,2.573025043,64
215,215,215,215,10.75098528,-4.764110088,-4.690829754,7.288836956,10.89349971,1.812675953,-0.880127907,-0.884869099,10.8913037,1.369977713,-0.043141089,0.273125082,0,0,0,1,,,,-4.819629638,-4.914674341,7.712601312,1.361596728,-0.147389713,0.258962674,1.217602803,-0.923049745,-0.602361431,1.015500221,0.1624126,0.081276873,3.653181707,2.504619603,2.555529073,3.512308241,3.451301269,3.177564007,0.717538309,-1.373513845,-0.77313698,0.241218396,-0.051264658,-0.143217952,3.374584241,3.160731328,1.726452903,1.059444247,1.641120757,2.44983507,64
216,216,216,216,10.80098528,-3.650849104,-3.71874547,8.363812447,10.94349971,-0.536629677,-1.589200497,0.062067032,10.9413037,1.188021541,0.060626589,0.249912888,0,0,0,1,,,,-4.196131779,-4.070840312,8.02075411,1.223127996,0.002162747,0.252152495,-0.024062502,-1.399275688,-0.12654847,0.95844254,0.152771027,0.081729667,3.683921864,2.82543431,2.531629237,3.490298778,3.4188319,3.109382453,0.887924168,-0.600275896,-1.097456655,0.829395055,0.391039505,-0.182905852,3.323238055,3.313435189,1.673959987,1.019363537,1.455411957,2.453621448,64
217,217,217,217,10.85098528,-2.946761131,-3.323929787,7.152146816,10.99349971,-0.536629677,-1.589200497,0.062067032,10.9913037,0.817848146,0.186308414,0.030389652,0,0,0,1,,,,-3.529642304,-3.543828603,7.609729553,0.899818035,0.134553512,0.08527068,-0.386863263,-1.535051443,0.008523559,0.967752364,0.12673908,0.075194443,3.348282078,2.805446819,2.482135824,3.507410458,3.613732976,3.072964764,0.492334532,-0.099079446,-0.658998818,1.02982417,0.629262845,-0.289569615,3.35356164,3.383593327,1.541164968,0.972548154,1.422328279,2.345184978,64
218,218,218,218,10.90098528,-5.158925533,-4.439583302,8.887840271,11.04349971,-0.536629677,-1.589200497,0.062067032,11.0413037,0.622835159,0.424996972,0.042530239,0,0,0,1,,,,-4.398800008,-4.175863095,8.214530935,0.67885634,0.343366636,0.053107481,-0.4928696,-1.573762176,0.046867308,1.014552694,0.117882227,0.082992849,3.143099312,2.984633677,2.534733986,3.479454567,3.474972197,3.140144481,0.538444909,0.093905751,-1.493891877,0.74633344,0.603079092,-0.641663055,3.483000814,3.444990234,1.563184364,1.037790912,1.375161817,2.431008528,64
219,219,219,219,10.95098528,-3.969094515,-1.944766641,8.207980156,11.09349971,1.703689814,-0.647005916,-0.280696869,11.0913037,0.082617089,0.428738415,-0.192340538,0,0,0,1,,,,-4.169569244,-2.601626403,8.21143111,0.203209478,0.404744324,-0.131597992,1.06187964,-0.9112314,-0.187709158,1.02505478,0.123055777,0.07954138,3.1999935,3.178221751,2.508096493,3.441772877,3.279635814,3.302552023,-0.656785039,-0.33845645,-1.623343018,0.513873621,0.316249444,-0.498952305,3.45131872,3.419886522,1.514618866,0.997908922,1.633578977,2.515645146,64
220,220,220,220,11.00098528,-1.922333837,-1.319940805,8.459525108,11.14349971,1.810632706,0.618784785,-1.905959129,11.1413037,-0.151108339,0.438741058,-0.25686127,0,0,0,1,,,,-2.970758668,-1.697283387,8.328829071,-0.079445778,0.429186135,-0.225861588,1.591855407,0.18256516,-1.418188663,1.107400006,0.124897218,0.073985023,3.149700261,3.281164628,2.499628504,3.405743304,3.21309481,3.531121763,-1.743118395,-1.048380956,-1.627720618,0.933133971,0.177426356,-0.235511369,3.475652799,3.316320516,1.38185046,1.042078115,1.713940713,2.542157963,64
221,221,221,221,11.05098528,-3.229413271,-2.047657967,7.597510815,11.19349971,1.810632706,0.618784785,-1.905959129,11.1913037,-0.654293776,0.342608959,-0.496924251,0,0,0,1,,,,-3.108740596,-1.94450377,7.982769621,-0.538027875,0.366941832,-0.42984269,1.746708418,0.494415146,-1.767492648,1.110050651,0.120455958,0.074916792,3.20359286,3.377733445,2.517199385,3.226386631,3.087202,3.499151107,-2.147858245,-0.987105355,-1.270565262,0.659164581,0.149980519,-0.058566031,3.189175525,3.39990572,1.355026407,1.030667233,1.577531323,2.716652642,64
222,222,222,222,11.10098528,-3.157628536,-0.467796832,6.019743443,11.24349971,1.294020176,1.461453557,-0.735996246,11.2413037,-1.031797409,0.366355658,-0.751189411,0,0,0,1,,,,-3.134820365,-0.902555879,7.05386657,-0.931930036,0.366520404,-0.671663742,1.426290634,1.185743315,-1.028813642,1.108851639,0.120279675,0.066064534,3.255120264,3.284006806,2.415071318,3.283531954,3.281529872,3.263370702,-2.646978631,-0.251430372,-0.369338155,0.260207466,-0.046599635,0.318119164,3.173426676,3.364404455,1.208206414,1.033116112,1.661844415,2.585907274,64
223,223,223,223,11.15098528,-4.280460835,-1.648056626,8.164909363,11.29349971,1.949385643,2.241384506,-0.986849785,11.2913037,-1.051573515,0.731642306,-0.83304292,0,0,0,1,,,,-3.745973921,-1.428572864,7.579611489,-1.027375019,0.629023285,-0.793105412,1.796543113,1.940412916,-0.99876233,1.148275993,0.140412993,0.062166561,2.844894984,3.350494096,2.164536047,3.123163375,3.46719468,3.137688077,-3.036575533,-0.287289728,-1.118897125,-0.074265795,-0.537038816,-0.004209002,3.264561394,3.336071428,1.043365364,1.038409051,1.464306942,2.384711717,64
224,224,224,224,11.20098528,-4.230211258,-1.039980531,7.607082367,11.34349971,1.587287188,1.877724051,0.306646824,11.3413037,-1.135030508,0.714920342,-0.978653669,0,0,0,1,,,,-4.004295252,-1.154386462,7.592610696,-1.113256644,0.690778619,-0.93273489,1.648429436,1.895597139,-0.063927914,1.167970925,0.134793959,0.057337569,3.015139834,3.291310959,1.871804349,3.275814584,3.641584116,3.164016439,-2.993866477,0.319765719,-1.2394079,-0.204940569,-0.709316547,0.005179278,3.166046482,3.302461522,0.968316155,1.041741023,1.336145052,2.628194364,64
225,225,225,225,11.25098528,-3.317947626,-0.64725852,7.152146816,11.39349971,1.587287188,1.877724051,0.306646824,11.3913037,-1.280564904,0.488296032,-1.212760925,0,0,0,1,,,,-3.638156133,-0.796562661,7.384183398,-1.246725967,0.5452046,-1.143461143,1.605152271,1.882819809,0.201449434,1.166167531,0.139784879,0.060076031,3.006779085,3.510062018,1.838500665,3.095975045,3.6260276,2.997207287,-3.112154401,0.588872958,-0.949082123,-0.079301627,-0.730573601,0.359997833,3.006713125,3.311495468,1.028166062,1.018995406,1.373171822,2.995684954,64
226,226,226,226,11.30098528,-4.943571568,-3.276073217,7.451549053,11.44349971,1.587287188,1.877724051,0.306646824,11.4413037,-0.980104446,0.167143077,-1.077763677,0,0,0,1,,,,-4.334543269,-2.546077564,7.416060794,-1.034029991,0.273398832,-1.094022237,1.592507166,1.879176892,0.276783777,1.13621845,0.143129171,0.054070137,2.715432441,3.406684112,2.016872146,3.136214149,3.403167507,3.088603512,-2.417455963,0.431694073,-0.883638122,-0.333449931,-1.049386556,0.553197105,2.939449174,3.296538695,0.941526967,1.020883236,1.564906909,2.894039225,64
227,227,227,227,11.35098528,-4.993820667,-4.695615292,7.973483086,11.49349971,-0.470862389,1.619963408,1.237166882,11.4913037,-0.90046519,-0.048256934,-0.926197171,0,0,0,1,,,,-4.6862415,-4.062767331,7.679832756,-0.927479343,0.04214575,-0.967729883,0.132031193,1.693867207,0.964536867,1.057632108,0.160685142,0.058609276,2.468515583,3.490819223,1.925871722,3.284548173,3.396638036,3.283009614,-1.28340667,1.058792745,-1.019008708,-0.131513713,-1.157011146,0.86314767,3.169172983,3.369099811,0.923860443,1.014856576,1.66937733,2.673939944,64
228,228,228,228,11.40098528,-4.993820667,-4.695615292,7.973483086,11.54349971,-0.470862389,1.619963408,1.237166882,11.5413037,-0.813190401,0.076890402,-0.744928241,0,0,0,1,,,,-4.850322734,-4.50929777,7.818787952,-0.836305914,0.067125273,-0.800066347,-0.294703605,1.641033961,1.159773678,1.121554441,0.160405473,0.06540089,2.545109067,3.3753984,1.77961385,3.262485268,3.22772622,3.304067373,-0.915153572,1.16745367,-1.158075032,-0.085917234,-1.184147288,0.757593731,3.027429747,3.543939297,1.102229252,0.990465416,1.642548491,2.66974544,64
229,229,229,229,11.45098528,-5.77896595,-4.228715897,7.607082367,11.59349971,-0.470862389,1.619963408,1.237166882,11.5913037,-0.576258004,0.11774081,-0.37483114,0,0,0,1,,,,-5.345716899,-4.31132234,7.71860897,-0.628854002,0.103515104,-0.480066738,-0.419390756,1.625970788,1.215196784,1.174496253,0.131483094,0.065974026,2.631811922,3.57017881,1.592797658,3.27367079,3.270437717,3.352481727,-0.599027793,0.995787749,-1.111789264,-0.318082565,-1.119284889,0.636243978,2.985080159,3.605358731,1.192540101,1.079720348,1.443846827,2.781613099,64
230,230,230,230,11.50098528,-4.807180882,-6.199205399,7.08036232,11.64349971,-1.644416809,-1.902618408,1.446108818,11.6413037,-0.400257677,-0.258235693,-0.149657577,0,0,0,1,,,,-5.058429385,-5.643391501,7.41659096,-0.446492434,-0.156564135,-0.231425985,-1.286477853,-0.89658993,1.380558361,1.175396017,0.149407656,0.062931232,2.651256236,3.428226829,1.92232383,3.357990431,3.29117416,3.167032008,0.824990941,1.374224721,-0.549402558,0.20707357,-0.057131679,0.35373523,3.240965978,3.554552132,1.139756445,1.058750767,1.312353789,2.817753095,64
231,231,231,231,11.55098528,-4.749752998,-5.746662617,7.092326164,11.69349971,-0.539443493,-1.57851553,1.380765438,11.6913037,-0.029931515,-0.220973998,-0.011835165,0,0,0,1,,,,-4.893762828,-5.716258445,7.263149013,-0.114183057,-0.20287134,-0.066178669,-0.757718605,-1.384093188,1.380706654,1.244788267,0.1572848,0.064643166,2.683346413,3.281661177,1.830255509,3.568531418,3.365167025,3.033995879,1.040887258,1.013849901,-0.330496187,0.27022371,0.00939951,0.16288508,3.170318763,3.422286702,1.275123966,1.01953766,1.398442642,2.817474719,64
232,232,232,232,11.60098528,-4.749752998,-5.746662617,7.092326164,11.74349971,-0.539443493,-1.57851553,1.380765438,11.7413037,0.104989372,-0.142021984,0.129881397,0,0,0,1,,,,-4.81693932,-5.737711288,7.182315723,0.060660645,-0.159123947,0.081361194,-0.603221047,-1.523084194,1.380748751,1.274675663,0.148769082,0.057603406,2.902278682,3.28532844,1.875152011,3.371429221,3.321936269,2.913650103,1.134457168,0.84401729,-0.23618636,0.294351155,0.028988631,-0.029354605,3.023450587,3.336913839,1.211313199,0.999232734,1.276317635,2.925615347,64
233,233,233,233,11.65098528,-4.412065983,-7.70040226,7.487441063,11.79349971,-0.539443493,-1.57851553,1.380765438,11.7913037,0.206313655,-0.071621843,0.05971032,0,0,0,1,,,,-4.600955522,-7.122564075,7.326700888,0.176854601,-0.096214671,0.065068396,-0.558078583,-1.562711621,1.380760701,1.182701929,0.139951244,0.057919993,3.071962479,3.189537692,1.933501362,3.3846005,3.223137338,2.757125773,1.284469218,0.814113217,-0.318319913,0.455279312,-0.203857345,-0.36285526,3.068868038,3.127047895,1.250286193,0.949300913,1.298656046,2.87050314,64
234,234,234,234,11.70098528,-3.734597921,-7.314858913,7.039684296,11.84349971,-0.325053215,-0.247803688,1.071417332,11.8413037,0.440649927,-0.005115846,0.086205818,0,0,0,1,,,,-4.138788252,-7.258245161,7.190884773,0.387295995,-0.030719547,0.080974809,-0.39314063,-0.622694261,1.159232587,1.197116975,0.145005384,0.063157763,2.894332059,3.23291684,2.021177746,3.52484222,3.442943181,3.018183558,0.936863502,0.500349455,-0.111033926,0.529603145,-0.651442793,-0.368183422,3.179544704,3.203811872,1.39329707,0.965001324,1.389219346,2.712271577,64
235,235,235,235,11.75098528,-3.152842999,-7.587640762,5.445167065,11.89349971,0.389316082,-0.432888508,1.254246712,11.8913037,0.516471386,0.060397524,0.115297422,0,0,0,1,,,,-3.612825732,-7.490663011,6.364811986,0.490345013,0.034788695,0.106803392,0.160690954,-0.487003618,1.227274452,1.112324694,0.155846072,0.062107842,2.724854745,3.34662857,2.1240666,3.413775056,3.196312023,3.095936925,0.630042179,0.36288857,0.822413526,0.440431254,-0.841271635,-0.657865537,3.189052635,3.13391398,1.426037732,0.830148133,1.335731611,2.66365749,64
236,236,236,236,11.80098528,-4.876572609,-6.910172462,7.499405384,11.94349971,0.389316082,-0.432888508,1.254246712,11.9413037,0.700489104,0.078570232,0.381550461,0,0,0,1,,,,-4.286984352,-7.081075376,6.901701041,0.657986404,0.06626525,0.313557097,0.322514368,-0.448317151,1.246589926,1.129313484,0.146583477,0.057139224,2.674669225,3.446972392,2.142324523,3.342018749,3.207538118,3.131055561,0.844804185,0.088847808,0.137575235,0.267223304,-0.867548425,-0.672557349,3.176300274,3.320817097,1.382169452,0.814041992,1.412745763,2.808449924,64
237,237,237,237,11.85098528,-3.873381615,-7.305287361,7.022934437,11.99349971,-0.966022968,-1.621047497,1.050368309,11.9913037,0.892524183,-0.002519745,0.332682699,0,0,0,1,,,,-4.066343767,-7.239276844,6.959068626,0.845087737,0.016812562,0.327949567,-0.589526723,-1.286692869,1.106070978,1.124932699,0.145654795,0.060944715,2.631467911,3.229035781,2.177206134,3.267854675,3.042195066,3.198650197,1.385841584,0.342575871,0.169463081,0.62871676,-0.29689361,-0.681198671,3.030369981,3.35017017,1.498191396,0.77040298,1.379713265,2.638043103,64
238,238,238,238,11.90098528,-5.803193092,-6.690032959,6.752545357,12.04349971,1.61649847,-0.279138565,0.406311512,12.0413037,1.133961558,-0.111937761,0.323978126,0,0,0,1,,,,-4.992883698,-6.851736505,6.861341914,1.075535374,-0.07575195,0.324960963,0.971922502,-0.566400206,0.604956649,1.18019302,0.138900609,0.061880145,2.734768869,3.223781437,2.135684638,3.221866776,3.196114056,3.332778929,0.951596762,-0.611937917,0.142809867,-0.130456979,-0.726685145,-0.517950309,2.91250747,3.313854603,1.604318563,0.76853142,1.345792681,2.566351884,64
239,239,239,239,11.95098528,-5.072783947,-7.065706253,7.743473053,12.09349971,1.61649847,-0.279138565,0.406311512,12.0913037,1.369443178,-0.25945738,0.527466595,0,0,0,1,,,,-5.035507298,-7.002711165,7.278765948,1.309998846,-0.207826209,0.477351269,1.428160558,-0.361039114,0.462702161,1.125195348,0.143162584,0.056450776,2.630350083,3.145515568,1.95503447,3.212345205,3.198287753,3.320072015,1.120461339,-1.12601759,-0.23799095,-0.039326396,-0.985166012,-0.360908898,2.760382576,3.232825592,1.546529543,0.737955833,1.154044677,2.578408192,64
240,240,240,240,12.00098528,-2.752942562,-5.284548759,7.238587379,12.14349971,1.61649847,-0.279138565,0.406311512,12.1413037,1.494590521,-0.382161319,0.427364022,0,0,0,1,,,,-3.817849932,-5.790394998,7.259753468,1.457255926,-0.333163715,0.439734676,1.561468232,-0.302489054,0.422319482,1.117568994,0.144316558,0.052433584,2.455329799,2.983043244,1.916426435,3.328293055,3.333013844,3.288920014,0.860396801,-1.294554474,-0.048217315,0.574841247,-0.940071921,-0.000509216,2.835060119,3.295737182,1.54102691,0.709341078,1.112055994,2.477623652,64
241,241,241,241,12.05098528,-6.056832314,-5.940481186,8.145766258,12.19349971,0.910465479,-0.888058186,-0.714924812,12.1913037,1.67433238,-0.486463487,0.372005969,0,0,0,1,,,,-5.012257848,-5.896294133,7.679014298,1.630427575,-0.443377952,0.388767213,1.100681226,-0.72110783,-0.392088095,1.14618425,0.141456811,0.04464936,2.469335541,3.025859759,2.118281395,3.346517359,3.390820383,3.21353787,1.314688946,-1.539313847,-0.582972793,0.226908448,-0.401114802,0.218575628,2.775136208,3.242097247,1.443090585,0.687895221,1.052599377,2.543626863,64
242,242,242,242,12.10098528,-4.857429981,-5.255835056,7.813164234,12.24349971,0.485604286,-1.372881413,0.199474335,12.2413037,1.507189274,-0.378343523,0.534338653,0,0,0,1,,,,-4.929663348,-5.444393375,7.742493984,1.53211484,-0.396621718,0.498313185,0.665322911,-1.187055648,0.031543773,1.06975848,0.139606087,0.046806604,2.561339993,3.078013027,2.332150424,3.21466118,3.365886706,3.177791782,1.538254981,-1.169512984,-0.67570719,0.389719172,-0.15185378,0.147508997,2.862851543,3.116817971,1.566869713,0.626622073,1.208545177,2.804835638,64
243,243,243,243,12.15098528,-3.413660526,-4.17846632,7.528119087,12.29349971,0.485604286,-1.372881413,0.199474335,12.2913037,1.136404991,0.011682454,0.425760537,0,0,0,1,,,,-4.120936229,-4.551169411,7.641051885,1.216439299,-0.103073123,0.443715592,0.538116065,-1.319901028,0.151802826,1.050048398,0.138635476,0.039904223,2.39682056,3.060285314,2.467695437,3.327050081,3.365945522,3.244303957,0.976796864,-0.803095731,-0.626658643,0.708506363,0.078515745,-0.225041156,3.062407962,3.335171959,1.476053384,0.586421085,1.444261416,2.788643593,64
244,244,244,244,12.20098528,-4.479064941,-4.473083019,9.278169632,12.34349971,2.511405468,1.183815479,-2.187044144,12.3413037,0.724464834,0.224257305,0.247774914,0,0,0,1,,,,-4.311983632,-4.496072527,8.415735222,0.823969145,0.132259735,0.296265571,1.934832303,0.469986249,-1.523100889,0.97347416,0.142402884,0.041177149,2.253296338,3.066103291,2.446892046,3.277490096,3.054315634,3.207754825,-0.442453632,-1.984428284,-1.595592435,0.394115031,-0.50599956,-0.31244119,3.167786052,3.402310782,1.587854315,0.546868537,1.433722551,2.648979101,64
245,245,245,245,12.25098528,-4.505385876,-3.908077478,8.916853905,12.39349971,1.449347019,0.415215492,-1.404320717,12.3913037,0.169510111,0.130950376,0.162714437,0,0,0,1,,,,-4.415156025,-4.0811898,8.652864344,0.301877744,0.131318377,0.195765165,1.591200407,0.430831065,-1.438039594,0.892142607,0.127060666,0.044090821,2.402812664,3.215140936,2.65702545,3.268110259,2.850131374,3.186446417,-0.59928834,-1.592733296,-1.906122541,0.421810622,-0.344788337,-0.124502647,3.159341526,3.354676396,1.748010438,0.485117055,1.419810879,2.712047551,64
246,246,246,246,12.30098528,-2.412862539,-0.604187727,6.819544315,12.44349971,0.824715614,-0.748946548,-1.317462921,12.4413037,-0.591223776,0.208757058,-0.154926136,0,0,0,1,,,,-3.347012207,-1.627856045,7.785338181,-0.4105895,0.186992596,-0.068138381,1.048673926,-0.412582689,-1.351691783,0.842681536,0.127575518,0.040866661,2.579177659,3.026436198,2.792009904,3.427764772,3.113883639,3.030345305,-1.286677914,-0.769193345,-1.001270681,0.739333578,0.626773891,0.080963425,3.113051185,3.143232962,1.718576708,0.475634747,1.489310185,2.608148843,64
247,247,247,247,12.35098528,-3.961916208,-1.315155149,7.272087097,12.49349971,0.824715614,-0.748946548,-1.317462921,12.4913037,-1.042105436,0.456913739,-0.373151332,0,0,0,1,,,,-3.675038999,-1.407217792,7.542468013,-0.91437816,0.381051286,-0.297667883,0.890153736,-0.653046571,-1.327179684,0.784018477,0.14624467,0.042967199,2.781783885,3.058362994,2.683239248,3.393658143,3.234805984,2.947005791,-1.67851018,-0.253242717,-0.910862345,0.441104177,0.924879285,-0.154565788,3.148918635,3.190669705,1.818210132,0.487363122,1.454412493,2.495774535,64
248,248,248,248,12.40098528,-3.250948668,-0.893719256,6.201897144,12.54349971,2.016205072,0.84963131,-1.260529518,12.5413037,-1.307976723,0.856407881,-0.772187293,0,0,0,1,,,,-3.4488037,-1.044898971,6.908110517,-1.228369433,0.722806944,-0.654755027,1.687185425,0.42120605,-1.279449922,0.684733118,0.14168797,0.041382646,2.710613563,3.251972252,2.461296962,3.330638434,3.466577704,2.813851237,-2.917142131,-0.119796021,-0.408939248,0.005724346,0.429282114,-0.498539997,3.107537993,3.024595876,1.798556658,0.43908471,1.336372667,2.470892418,64
249,249,249,249,12.45098528,-3.169592619,0.63589263,7.092326164,12.59349971,2.216709137,1.844339132,-0.102780819,12.5913037,-1.430069804,0.978271902,-1.005301833,0,0,0,1,,,,-3.29985571,0.141048774,6.995281274,-1.389274889,0.906472419,-0.918549838,2.061988212,1.438592719,-0.436809305,0.723377302,0.136920418,0.03676297,2.538018953,3.302022633,2.355241216,3.382985201,3.543095223,2.818585906,-3.670428517,0.274513597,-0.660203019,-0.121215595,-0.185467208,-0.373034101,3.017445043,3.066569373,1.722924015,0.408642757,1.11987521,2.63463304,64
250,250,250,250,12.50098528,-2.745764017,-1.444367528,7.034898758,12.64349971,2.216709137,1.844339132,-0.102780819,12.6413037,-1.32607305,0.566713572,-1.294843435,0,0,0,1,,,,-3.004269863,-0.977603228,7.014028248,-1.33885594,0.662204201,-1.201719721,2.171501407,1.728657645,-0.197603594,0.687161214,0.164629537,0.044747666,2.34962215,3.200639139,2.349156559,3.430365269,3.506372434,2.680888895,-3.565203429,0.370827399,-0.51515766,0.028634821,-0.651955775,-0.003995312,2.986013807,2.928126328,2.046881014,0.408518273,1.198877303,2.619476649,64
251,251,251,251,12.55098528,-3.449553013,-1.324726462,8.038089752,12.69349971,2.216709137,1.844339132,-0.102780819,12.6913037,-1.060201764,0.363530487,-1.432665944,0,0,0,1,,,,-3.241810686,-1.222529498,7.498613663,-1.116560973,0.447473969,-1.375512248,2.203499942,1.811357432,-0.129698759,0.690608539,0.162106859,0.040812935,2.262683077,3.256811577,2.367779084,3.246592881,3.3485995,2.917181779,-3.297567063,0.281868141,-0.975337478,0.096401406,-0.842321754,0.425613872,2.98429577,3.214042314,1.983457262,0.456592153,1.111515601,2.67589216,64
252,252,252,252,12.60098528,-4.342673779,-2.952743053,7.367800236,12.74349971,0.13468647,0.064861774,0.886982918,12.7413037,-1.064630389,0.124612838,-1.137473941,0,0,0,1,,,,-3.829077296,-2.443348822,7.436712812,-1.075133611,0.215354294,-1.196382759,0.739170703,0.562801396,0.598371072,0.648502993,0.169621905,0.045771169,2.276643252,3.317441784,2.225890994,3.304997966,2.908313938,2.866023446,-1.922604539,1.069633714,-0.813977899,0.180728587,-0.367351538,0.533656146,2.95755605,3.081368696,2.20114617,0.413501289,1.171404788,2.679264954,64
253,253,253,253,12.65098528,-4.673182487,-2.63689065,7.398906708,12.79349971,-1.697305679,-1.080227852,1.429283142,12.7913037,-0.982700527,-0.120642334,-0.840067685,0,0,0,1,,,,-4.279373792,-2.57990977,7.418822981,-1.001395583,-0.026209092,-0.928247189,-0.985394442,-0.611787316,1.193406887,0.673310353,0.163780703,0.041569891,2.063432858,3.433488033,2.294291315,3.317959521,2.997010321,3.005283623,-0.608842134,1.802836719,-0.707701011,0.378329784,0.322582248,0.844943767,2.72988322,2.996060875,2.151811945,0.395510976,1.259775399,2.867272857,64
254,254,254,254,12.70098528,-5.259723186,-6.201598167,7.418049335,12.84349971,-1.697305679,-1.080227852,1.429283142,12.8413037,-0.692471743,-0.11720632,-0.538843632,0,0,0,1,,,,-4.802351144,-5.135332576,7.418456893,-0.754953144,-0.091631173,-0.635211749,-1.489293152,-0.946671778,1.362323461,0.651017824,0.179477594,0.040640697,2.369749368,3.351975678,2.403457027,3.327985395,3.238721682,3.240023339,0.37358634,1.82055721,-0.599396051,0.292807048,0.128569895,0.472579121,2.974163826,2.969109483,2.13152416,0.454090509,1.205556658,2.809725384,64
255,255,255,255,12.75098528,-6.69840765,-6.869494915,7.738687515,12.89349971,-1.267846107,-2.373454094,1.060765743,12.8913037,-0.338333011,-0.233496368,-0.242659077,0,0,0,1,,,,-5.813821765,-6.358938117,7.56998987,-0.422596529,-0.193624568,-0.339806525,-1.332550465,-1.966667256,1.146370836,0.628427448,0.196397731,0.05240826,2.39616727,3.345437821,2.588166199,3.317711908,3.318670418,3.309528442,1.268248927,1.448022281,-0.77755077,-0.010111478,0.441900365,0.158416896,2.949604952,2.914294284,2.53964507,0.432842845,1.231880542,2.920517124,64
256,256,256,256,12.80098528,-4.752145767,-6.493522644,7.085147858,12.94349971,-0.830575466,-1.25659132,1.756771088,12.9413037,0.257930249,-0.221432135,-0.086129464,0,0,0,1,,,,-5.24745991,-6.453899453,7.340562861,0.120290284,-0.213616703,-0.148908502,-0.977246965,-1.459039543,1.583492915,0.625137736,0.182771727,0.044509724,2.452091947,3.111401595,2.639291327,3.272173222,3.374370666,3.330017021,1.359846241,1.150648891,-0.419840452,0.167969429,-0.095583512,0.110983697,2.810747044,2.861111455,2.492536395,0.392163326,1.180419387,2.827515953,64
257,257,257,257,12.85098528,-5.271687508,-8.511868477,7.025327206,12.99349971,0.439513683,0.072811127,0.709420204,12.9913037,0.496695191,-0.066505998,-0.068033114,0,0,0,1,,,,-5.260384368,-7.905979368,7.191393499,0.420565404,-0.10785207,-0.088047849,0.025552016,-0.363931524,0.957548743,0.649331039,0.203709617,0.044097169,2.561907091,3.27858225,2.877492538,3.185384487,3.378282163,3.203161992,0.958916615,0.312539259,-0.227092659,-0.1209032,-0.847021067,-0.255256108,2.912319934,2.982642521,2.46655228,0.397663584,1.355229463,2.955069348,64
258,258,258,258,12.90098528,-4.977071285,-7.357929707,7.611867905,13.04349971,0.439513683,0.072811127,0.709420204,13.0413037,0.532047987,-0.077959381,0.049860407,0,0,0,1,,,,-5.109248124,-7.519281659,7.390361787,0.509500074,-0.086360845,0.015731394,0.318558699,-0.051707631,0.779858019,0.730933353,0.187600133,0.032526686,2.413992156,3.21193229,2.773409453,3.273270222,3.264561354,3.254280969,0.79949949,-0.014731705,-0.435849491,-0.042267797,-0.975444773,-0.234429163,2.952242708,3.369791463,2.262002439,0.447518513,1.313233677,2.838904198,64
259,259,259,259,12.95098528,-2.36500597,-7.27178812,6.905686378,13.09349971,0.439513683,0.072811127,0.709420204,13.0913037,0.68140012,-0.156529605,0.055968881,0,0,0,1,,,,-3.645304245,-7.344652988,7.161013615,0.646632471,-0.136808385,0.04601106,0.404171985,0.037309851,0.729415831,0.631878261,0.17631459,0.039966512,2.441114222,3.297314799,2.857619203,3.30127122,3.163154789,3.212125576,0.594396698,-0.161047949,0.03796336,0.631925091,-1.07394849,-0.194953251,3.065896127,3.435683203,2.474964029,0.416889951,1.388559872,2.900183894,64
260,260,260,260,13.00098528,-4.881358147,-7.290930748,5.83310318,13.14349971,-0.5483284,-1.105041027,0.487473488,13.1413037,0.762795508,-0.180658072,0.501276553,0,0,0,1,,,,-4.304689766,-7.306747176,6.532647031,0.739300949,-0.168333936,0.388609173,-0.270018406,-0.779347824,0.556155188,0.641005391,0.181870794,0.038551254,2.535482213,3.238688233,2.800593024,3.507035456,3.252920076,3.00053297,1.229384712,-0.092024824,0.673875094,0.306115198,-0.402982762,-0.35411834,3.05014441,3.510462964,2.549640304,0.383663134,1.547256157,2.722412276,64
261,261,261,261,13.05098528,-4.881358147,-7.290930748,5.83310318,13.19349971,-0.5483284,-1.105041027,0.487473488,13.1913037,0.907108188,-0.266405761,0.78898561,0,0,0,1,,,,-4.612319377,-7.295587282,6.201623214,0.873168329,-0.238842269,0.689901966,-0.467009322,-1.012183338,0.506970596,0.57574456,0.197670565,0.036128542,2.51150571,3.179867109,2.833307963,3.397734523,3.218750623,2.997441952,1.623789382,-0.240591123,1.043675472,0.142607786,-0.213158479,-0.370633775,2.965820357,3.337011849,2.474965262,0.390077929,1.632463806,2.641363663,64
262,262,262,262,13.10098528,-5.111069202,-7.121040344,6.87457943,13.24349971,-0.5483284,-1.105041027,0.487473488,13.2413037,1.172215939,-0.542356014,0.603364408,0,0,0,1,,,,-4.878382542,-7.172428916,6.520065774,1.111732055,-0.457052221,0.624780395,-0.524567872,-1.078566571,0.493008255,0.551979115,0.182422217,0.042177791,2.448572958,3.224326617,2.5895914,3.471525359,3.255683387,3.16092299,1.947469999,-0.375903216,0.75367832,0.177245194,-0.216846735,0.056053877,2.94070538,3.333806431,2.666935059,0.387494186,1.64800712,2.787985532,64
263,263,263,263,13.15098528,-6.875476837,-6.632605076,7.760222912,13.29349971,0.958526373,-0.57017374,0.196290016,13.2913037,1.425946593,-0.363301396,0.706139445,0,0,0,1,,,,-5.943752799,-6.791535255,7.10690754,1.362395122,-0.389650453,0.686005016,0.525182768,-0.715120527,0.280521296,0.644495226,0.148338089,0.039906183,2.298801054,3.175447141,2.220421337,3.349882295,3.275122968,3.084270903,1.794093342,-1.032373556,-0.076981378,-0.347808611,-0.499829215,-0.022163198,2.7521979,3.134006521,2.670053177,0.499539435,1.451929671,2.720010893,64
264,264,264,264,13.20098528,-4.821537495,-5.320441246,6.429215431,13.34349971,-0.949725628,-1.974887848,-0.425678253,13.3413037,1.525056481,-0.634059429,0.823345721,0,0,0,1,,,,-5.345095635,-5.753547784,6.786223958,1.492157403,-0.565367276,0.789357163,-0.518773837,-1.615718296,-0.225204929,0.661329993,0.155468254,0.043407082,2.125984478,3.198430149,1.880147494,3.407976372,3.457381544,2.945495982,2.201923098,-0.939628969,0.424161735,0.124871856,0.431671086,0.308190297,2.78137651,3.076411821,2.880016368,0.550411116,1.384100481,2.73339892,64
265,265,265,265,13.25098528,-4.821537495,-5.320441246,6.429215431,13.39349971,-0.949725628,-1.974887848,-0.425678253,13.3913037,1.672118068,-0.803569555,0.73820889,0,0,0,1,,,,-5.065798222,-5.447952657,6.617287693,1.635720118,-0.736621819,0.750866871,-0.823806319,-1.872485789,-0.368768625,0.696097683,0.143255911,0.038582903,2.17801541,3.298580726,1.882491148,3.661692056,3.789918115,2.801476382,2.396643416,-0.947127461,0.713264638,0.315630024,0.674545927,0.617902112,2.94786521,2.97633889,2.735135367,0.605080132,1.270966946,2.801145219,64
266,266,266,266,13.30098528,-5.475077152,-5.866303921,7.575975418,13.44349971,0.664139032,-1.067024946,-0.801483154,13.4413037,1.347834468,0.151795551,0.770583808,0,0,0,1,,,,-5.284132229,-5.743136627,7.070938267,1.406060789,-0.097897825,0.765704335,0.229377988,-1.296668155,-0.678645749,0.67401953,0.150257888,0.035185191,2.166673526,3.217957512,1.997269497,3.276952611,3.351147083,2.829861033,1.434187291,-1.247609747,-0.070282737,0.011011606,0.318075267,-0.496299489,2.856245755,2.797642653,2.766553965,0.564870569,1.39450265,2.781216652,64
267,267,267,267,13.35098528,-4.864608288,-4.497011185,7.288836956,13.44349971,0.664139032,-1.067024946,-0.801483154,13.4913037,0.825331032,0.421102822,0.65482825,0,0,0,1,,,,-5.060332917,-4.863884459,7.174047823,0.942786548,0.275235543,0.682267444,0.537106702,-1.132498028,-0.766612525,0.719514508,0.157374599,0.0290094,2.247400775,3.253769171,2.009214837,3.265635212,3.392759753,3.103370486,0.621090574,-1.071733562,-0.368714863,-0.020533618,0.418646523,-0.954037414,3.087691027,2.961383297,2.714173038,0.622566397,1.596544242,2.904528182,64
268,268,268,268,13.40098528,-3.097808123,-3.43160677,7.916055679,13.54349971,1.014271021,-0.08849287,-3.301421165,13.5413037,0.238688573,0.375518352,0.482722044,0,0,0,1,,,,-4.013404112,-3.853285349,7.525165587,0.381095932,0.347333454,0.532104784,0.874848926,-0.386146936,-2.581849034,0.656775728,0.166416657,0.02898067,2.305488941,3.240976114,2.1465063,3.307359661,3.278225713,3.157047409,-0.569972468,-1.798256268,-0.666559695,0.419652248,0.709760743,-0.748168199,3.141444334,2.994241641,2.711035049,0.571355817,1.510295139,2.980997216,64
269,269,269,269,13.45098528,-3.212663412,-2.107777596,7.010970116,13.59349971,1.014271021,-0.08849287,-3.301421165,13.5913037,-0.507537723,0.247851282,-0.003054236,0,0,0,1,,,,-3.586240844,-2.62167461,7.281848535,-0.327807094,0.275811158,0.12938489,0.973533439,-0.173356381,-3.097151682,0.693038473,0.172374599,0.033802517,2.489176786,3.228798704,2.383263389,3.323263291,3.03213166,3.075012745,-1.435944322,-1.594279104,-0.422443955,0.438197941,1.007679607,-0.273629446,2.942606439,2.802972844,3.033690832,0.544175499,1.560137562,2.968815328,64
270,270,270,270,13.50098528,-2.858226538,-1.197906852,9.680462837,13.64349971,1.430323124,2.153762341,-2.099645138,13.6413037,-1.133808851,0.316647947,-0.269918144,0,0,0,1,,,,-3.197874211,-1.617080012,8.416871679,-0.97079094,0.305170598,-0.171100142,1.29685427,1.490282525,-2.382813618,0.622588323,0.178647514,0.030678029,2.689268611,3.318119118,2.709435705,3.14796789,3.183475585,3.029265351,-2.328006994,-1.271388627,-1.708510195,0.714161332,0.015137105,0.34290717,2.906236722,2.890659153,3.050032043,0.535528138,1.633652413,3.076378686,64
271,271,271,271,13.55098528,-3.626920938,-1.394118309,5.296812057,13.69349971,1.289328575,1.274199963,-2.059905052,13.6913037,-1.616530895,0.647498071,-0.564881027,0,0,0,1,,,,-3.42675355,-1.459760729,6.940460954,-1.48592674,0.551285519,-0.467429625,1.291527499,1.335806798,-2.151571145,0.648742328,0.190189665,0.033284131,2.719569262,3.204182685,2.804485198,3.078515691,3.240634295,2.963634812,-2.979380191,-0.547488987,-0.316203053,0.018396241,0.290969789,-0.07252216,2.838260806,2.936057193,3.102454079,0.587873112,1.712178261,3.010697735,64
272,272,272,272,13.60098528,-3.626920938,-1.394118309,5.296812057,13.74349971,1.289328575,1.274199963,-2.059905052,13.7413037,-1.863695025,0.950860143,-0.753709137,0,0,0,1,,,,-3.533534878,-1.413444172,6.16268708,-1.787289489,0.838558042,-0.682861768,1.289971076,1.291764555,-2.085926885,0.695914054,0.205293326,0.033429659,2.515066135,3.284461671,2.680036378,3.067549333,3.289214473,3.036975042,-3.517245159,-0.08927473,0.354877285,-0.385316849,0.459646692,-0.540596608,2.780273422,3.141689487,3.077719363,0.636176031,1.593137544,3.007349804,64
273,273,273,273,13.65098528,-3.107379198,-0.635294437,6.350252151,13.79349971,1.289328575,1.274199963,-2.059905052,13.7913037,-1.764661431,0.620544434,-1.050733685,0,0,0,1,,,,-3.306197798,-0.864390427,6.251442783,-1.76923807,0.68181806,-0.959694137,1.289516307,1.279207766,-2.067292034,0.685500792,0.211813638,0.032859391,2.472461309,3.154437986,2.6401859,3.280041141,3.235275388,3.124995,-3.631337077,0.009414568,0.310573888,-0.23740908,0.503254281,-0.104948891,2.746661966,3.318140862,3.111147924,0.652511712,1.531040437,2.984308381,64
274,274,274,274,13.70098528,-3.62452817,-1.439581871,6.491428852,13.84349971,0.192286968,1.011543512,-0.081380367,13.8413037,-1.417394757,0.228075102,-1.216884136,0,0,0,1,,,,-3.476014371,-1.270239073,6.365004076,-1.488556838,0.355601437,-1.15323573,0.512885149,1.087856692,-0.645133649,0.706557157,0.216483282,0.031280354,2.414290399,3.096660905,2.731440028,3.269688057,3.283224188,3.14186045,-2.784057044,0.816895115,0.29723392,-0.085117518,0.16548642,0.521777419,2.760405977,3.2736232,3.18910514,0.669893474,1.584446454,3.038336708,64
275,275,275,275,13.75098528,-3.940380573,-2.737389088,7.219445229,13.89349971,0.25410223,-0.57558012,1.096101284,13.8913037,-1.252694964,0.014583978,-1.189166903,0,0,0,1,,,,-3.723735243,-2.305443706,6.769325222,-1.300399215,0.110428345,-1.180274793,0.329715714,-0.101321227,0.601805931,0.696980844,0.211898947,0.031960163,2.234331555,3.131258213,2.512603511,3.445804963,3.273803913,3.211193837,-1.74580831,1.38577462,-0.050704879,0.146078901,0.117268071,0.605507469,2.79041224,3.183940258,3.275644816,0.690817379,1.577909289,3.032478588,64
276,276,276,276,13.80098528,-3.940380573,-2.737389088,7.219445229,13.94349971,0.25410223,-0.57558012,1.096101284,13.9413037,-0.943300903,-0.148206815,-0.694609702,0,0,0,1,,,,-3.839306897,-2.610219534,6.982321794,-1.015525833,-0.075516334,-0.814800258,0.276195647,-0.440365187,0.955782542,0.706157366,0.212241624,0.029269442,2.243119153,3.068294664,2.255501676,3.345177475,3.182246376,3.31481166,-1.026887316,1.184298151,-0.178634352,0.296819165,0.047236801,0.707597205,2.606886705,2.872392841,3.230469021,0.682896599,1.845251603,3.003112649,64
277,277,277,277,13.85098528,-4.852644444,-6.570391655,7.312765121,13.99349971,0.25410223,-0.57558012,1.096101284,13.9913037,-0.693769753,-0.157064095,-0.351618946,0,0,0,1,,,,-4.379882114,-5.404472668,7.138687419,-0.758846539,-0.134144759,-0.466245302,0.26055768,-0.537029281,1.056268117,0.667681867,0.205652998,0.028779399,2.163832928,3.07070052,2.058868845,3.317316094,3.209585976,3.290502518,-0.15979859,0.923023956,-0.238904056,0.171338837,-0.396138041,0.265073817,2.625776546,2.902917295,3.156837208,0.704005615,1.845450918,3.001960959,64
278,278,278,278,13.90098528,-3.303590775,-5.46909523,10.0707922,14.04349971,-1.667848587,-0.385930538,1.327412605,14.0413037,-0.272896022,-0.182719693,-0.085136838,0,0,0,1,,,,-3.805723556,-5.450069625,8.526158002,-0.371181959,-0.169067507,-0.179452117,-1.104389774,-0.429009976,1.250441108,0.672531254,0.197243277,0.033792375,2.180376291,3.058759716,2.039972668,3.428998317,3.266198332,3.098667436,0.623297181,1.014401919,-1.554256371,1.149023218,-0.436049404,0.504739297,2.767853451,2.802001316,3.279949134,0.728380941,1.659806272,2.953763423,64
279,279,279,279,13.95098528,-7.28255558,-10.35763168,7.590332508,14.09349971,-0.291872501,-1.913173199,1.38049221,14.0913037,0.296871781,-0.191118836,0.023364907,0,0,0,1,,,,-5.660474949,-8.912790498,8.083325825,0.161754551,-0.184921219,-0.026827482,-0.52928099,-1.490026613,1.343573783,0.679410695,0.210627726,0.035712024,2.272693384,3.129526788,1.936780329,3.425807274,3.368971232,3.105775096,1.747939705,0.757134622,-1.168383318,0.17237221,-0.535959075,-0.355155993,2.83467503,2.807916838,3.314470845,0.744443208,1.659886409,3.118835936,64
