,Unnamed: 0,Unnamed: 0.1,Unnamed: 0.1.1,Time (s),Acceleration x (m/s^2),Acceleration y (m/s^2),Acceleration z (m/s^2),Gyroscope x (rad/s),Gyroscope y (rad/s),Gyroscope z (rad/s),Linear Acceleration x (m/s^2),Linear Acceleration y (m/s^2),Linear Acceleration z (m/s^2),Still,Walk,Run,Cycle,SPM/RPM,Timestamps,Acceleration x (m/s^2)_kalman,Acceleration y (m/s^2)_kalman,Acceleration z (m/s^2)_kalman,Gyroscope x (rad/s)_kalman,Gyroscope y (rad/s)_kalman,Gyroscope z (rad/s)_kalman,Linear Acceleration x (m/s^2)_kalman,Linear Acceleration y (m/s^2)_kalman,Linear Acceleration z (m/s^2)_kalman,Acceleration x (m/s^2)_kalman_max_freq,Acceleration y (m/s^2)_kalman_max_freq,Acceleration z (m/s^2)_kalman_max_freq,Gyroscope x (rad/s)_kalman_max_freq,Gyroscope y (rad/s)_kalman_max_freq,Gyroscope z (rad/s)_kalman_max_freq,Linear Acceleration x (m/s^2)_kalman_max_freq,Linear Acceleration y (m/s^2)_kalman_max_freq,Linear Acceleration z (m/s^2)_kalman_max_freq,0,1,2,3,4,5,0_max_freq,1_max_freq,2_max_freq,3_max_freq,4_max_freq,5_max_freq
0,0,0,0,0.0453,0.402,4.69,7.8,-0.0589,0.0586,0.266,2.59,-0.368,-0.314,0.0,0.0,0.0,1.0,90.0,45300000.0,0.33448926859812045,3.031464881810142,7.238333273726663,-0.2922405258367045,0.12475584690136682,0.28107652193465155,2.1243239795341347,-0.7377036842769398,-0.010955580753236306,,,,,,,,,,1.5074611980274557,-0.627575256475161,1.5828071263786772,-1.2364638563169161,-0.1519520430086681,-0.3633875658020061,,,,,,
1,1,1,1,0.0953,0.828,3.71,10.1,-1.63,-0.00733,0.264,2.81,-0.84,1.63,0.0,0.0,0.0,1.0,90.0,95300000.0,0.6218045123467414,3.4952814876612037,8.512524936616096,-1.443591796856475,0.025896394103732845,0.2676843638473799,2.507905574573474,-0.7796295859278028,1.2273721851755548,,,,,,,,,,1.2658312028315883,-0.3780520170181532,2.2897453957438985,-1.7190586603233902,-0.060756698314637224,-0.3943121063955488,,,,,,
2,2,2,2,0.145,0.596,1.35,8.24,-1.67,1.03,0.377,2.67,-2.55,-0.515,0.0,0.0,0.0,1.0,90.0,145000000.0,0.6048930693794726,1.916100078350527,8.365179692303744,-1.6409276393498233,0.8067743175242856,0.3557244820242035,2.6111788528480866,-1.692519232150664,-0.1464326652520067,,,,,,,,,,1.3428017650513715,0.09235157046178576,2.019470041180925,-1.6971519445992864,-0.6513721729750644,-0.9189797302567524,,,,,,
3,3,3,3,0.195,-2.59,-2.28,6.59,-2.08,2.42,1.6,-0.117,-5.44,-2.36,0.0,0.0,0.0,1.0,90.0,195000000.0,-1.5160242158270791,-1.1878750129243416,7.3711667992218945,-2.0236991813612404,2.0636745413322632,1.3588251704955554,0.8458601999127184,-3.713384165702609,-1.8950867468873005,,,,,,,,,,0.7335611281702978,0.5885834979586222,1.1325009876618077,-0.6457706196050783,-1.9847360879416012,-2.0383347902989333,,,,,,
4,4,4,4,0.245,0.498,-0.232,14.5,-1.95,1.44,1.38,0.845,-4.65,-2.29,0.0,0.0,0.0,1.0,90.0,245000000.0,-0.1770980918408005,-0.4805534118872985,11.38935812686379,-1.9594500181676708,1.5777121487625976,1.3758963653366263,0.8453025477078219,-4.223107174847607,-2.2070829378940733,,,,,,,,,,-0.0005866226823139287,0.09686024658385503,2.802799592223396,-1.867138019919495,-1.4714092442029345,-2.7230642660031634,,,,,,
5,5,5,5,0.295,-4.21,-0.91,10.2,0.0742,-0.00855,1.18,-0.7859999999999999,-3.17,1.34,0.0,0.0,0.0,1.0,90.0,295000000.0,-2.8586097007813485,-0.7983393581157994,10.718135068956453,-0.1865618921876533,0.34170338727822736,1.2179639799034692,-0.21252598960374086,-3.648905353300548,0.5952554674841317,,,,,,,,,,-1.0481067248970428,-0.7468984787443047,2.4190313971230197,-1.2533539262839255,-0.624104355665464,-1.8220597053864247,,,,,,
6,6,6,6,0.345,-2.16,0.165,8.39,-0.92,1.31,1.95,1.35,-2.23,-0.447,0.0,0.0,0.0,1.0,90.0,345000000.0,-2.3940896698797443,-0.08547735544800916,9.403924317273251,-0.8259559539174856,1.096196131505723,1.80813407984506,0.8007334439839894,-2.8749523075963936,-0.22816846026048565,,,,,,,,,,-0.10277725459483436,-0.5969832657865083,2.1423716331430462,-0.8387949441458239,-1.4950577696155685,-1.9159272545845196,,,,,,
7,7,7,7,0.395,0.242,7.54,12.5,-0.838,0.377,1.95,3.93,5.33,3.72,0.0,0.0,0.0,1.0,90.0,395000000.0,-0.6412953778319546,5.557304187222184,11.151709128602462,-0.8364556688659308,0.5358014234921787,1.9225069314946623,2.829992669341145,1.6008633257767362,2.8910441886152314,,,,,,,,,,0.8308370795181761,-1.4668539227937674,4.252886338910337,-1.1650053924689785,-1.051642836133401,-0.7562067287434147,,,,,,
8,8,8,8,0.445,2.98,4.48,11.8,-0.0357,0.639,2.03,6.67,2.1,2.99,0.0,0.0,0.0,1.0,90.0,445000000.0,1.7665845312020432,4.76010922291386,11.517683035118964,-0.1383757600812716,0.6162133350274477,2.0091682054668585,5.320152460065384,1.873147717529157,2.9692232859020184,,,,,,,,,,1.470226116226368,-1.8469061220434608,4.4229102753836536,-2.182151323299927,-1.5345791614461095,-0.4657206887900885,,,,,,
9,9,9,9,0.495,1.51,-1.74,10.9,-0.139,-0.511,0.387,5.17,-4.36,2.23,0.0,0.0,0.0,1.0,90.0,495000000.0,1.5959757548547056,-0.04991054976066423,11.168987224059578,-0.13891995647513433,-0.26210671066896296,0.7013703806427123,5.222781958018499,-1.5271133910064514,2.3852070334302184,,,,,,,,,,0.5572694805079182,-1.1888653038473531,3.040691371883236,-3.28997520697544,-0.5638467942669902,-0.4995083663921442,,,,,,
10,10,10,10,0.545,-5.18,0.0215,6.23,0.17600000000000002,0.157,0.792,-1.86,-2.66,-2.6,0.0,0.0,0.0,1.0,90.0,545000000.0,-2.9095213526803154,0.002932586803019707,8.380819968813167,0.1356198346225158,0.06445954414178072,0.7744363010864411,0.6297543690416498,-2.1451178715724586,-1.5533078975953043,,,,,,,,,,0.14673068432498354,-0.8100182890554165,1.4065257723792997,-0.7268567644843278,-0.12368888263207528,-1.4364283750713844,,,,,,
11,11,11,11,0.595,-1.05,0.469,6.63,-1.35,2.42,1.77,2.68,-2.28,-2.01,0.0,0.0,0.0,1.0,90.0,595000000.0,-1.6730841503048233,0.34781810318073725,7.3924434720807275,-1.1595085255919777,1.8998871820931025,1.5770633074472826,1.9592933974178195,-2.218697828530189,-1.9141131056817573,,,,,,,,,,1.1715601580619608,-0.02812258338804731,1.4438034492146847,-0.5134891595162573,-1.9457167581923949,-1.8314911784656132,,,,,,
12,12,12,12,0.645,-3.62,-0.232,10.3,-1.88,3.79,-0.0708,1.23,-2.47,2.1,0.0,0.0,0.0,1.0,90.0,645000000.0,-2.967631792819033,-0.08124184167598086,9.033823507886627,-1.78761599891794,3.3726554013038057,0.2485500046024096,1.4863627575311305,-2.3557864833604425,1.2571983809564962,,,,,,,,,,0.4357460171250448,1.7897262061084824,2.7210902455745214,-0.5901541742868824,-2.084749284941451,-1.5686847915517252,,,,,,
13,13,13,13,0.695,-6.0,0.0,3.26,-1.83,1.69,0.066,0.317,-1.66,-4.06,0.0,0.0,0.0,1.0,90.0,695000000.0,-4.9839209638264785,-0.02112364198599706,5.774372501912726,-1.8245654090169392,2.061537175350236,0.1013775364226056,0.7280568509943762,-1.9762257863414008,-2.943603160372641,,,,,,,,,,1.1100991805677516,1.3220776566263617,0.6225557310151156,0.5100730574315115,-0.8401292865989938,-1.7492246399510465,,,,,,
14,14,14,14,0.745,-4.99,-2.88,13.3,-3.02,-0.0202,0.619,1.4,-3.67,5.89,0.0,0.0,0.0,1.0,90.0,745000000.0,-4.987962898208275,-2.1366653765704684,10.022755687959762,-2.8667170792708068,0.4394560041748514,0.5186866357197145,1.1637971190291314,-2.9002019420308502,4.035300192745543,,,,,,,,,,-1.2137164897730346,0.6923927809470113,2.385396840785013,-1.2236944301748225,-0.4169033681538706,-1.050547693944732,,,,,,
15,15,15,15,0.795,-2.76,-2.65,13.9,-1.07,1.97,0.417,3.93,-2.81,6.72,0.0,0.0,0.0,1.0,90.0,795000000.0,-3.5065407299977047,-2.5165282464389334,12.211545594287571,-1.3003815436658277,1.6320497062171109,0.4367065021412857,2.9576186029352707,-2.8509955648763814,6.156321362223589,,,,,,,,,,-1.352046408459424,0.7511543316551392,3.7959319072379927,-2.1370791002769294,-1.4479515485737162,-0.9048811531175992,,,,,,
16,16,16,16,0.845,-3.72,-5.12,10.3,1.02,-0.204,1.23,3.47,-5.4,3.6,0.0,0.0,0.0,1.0,90.0,845000000.0,-3.648474572736287,-4.443072803516701,11.132435958741016,0.7224723525681882,0.20140721781861104,1.0762625783161803,3.2898866348542986,-4.241511067235145,4.136724110933587,,,,,,,,,,-1.6155889315496574,-0.831919894502326,2.3822146894808203,-2.3685129765517408,-1.1046034325077037,-1.1135960273949113,,,,,,
17,17,17,17,0.895,-0.16,-7.73,5.08,1.03,1.86,1.82,6.93,-9.11,-1.55,0.0,0.0,0.0,1.0,90.0,895000000.0,-1.3289101165133514,-6.87536806707554,7.715702026178187,0.9905676788495412,1.4937760041866892,1.6758663952010733,5.6504196014197134,-6.8973356355221425,-0.3560176969793636,,,,,,,,,,-0.012949027392105437,-0.5386936597419104,0.2087054210560893,-2.6654715215493825,-2.80449300066137,-1.944416861251868,,,,,,
18,18,18,18,0.945,-3.52,-6.74,1.23,-1.49,0.6990000000000001,-2.78,4.14,-8.15,-4.72,0.0,0.0,0.0,1.0,90.0,945000000.0,-2.785814576816268,-6.775196799657505,4.054379874915036,-1.1719327376308752,0.8744897629172329,-1.916469037460836,4.670945780648173,-7.580680316477902,-3.8037398971582936,,,,,,,,,,1.0084942429722483,2.060277824685341,-1.968610712417579,-2.347967534670635,0.00659299369450679,-1.4447262412326625,,,,,,
19,19,19,19,0.995,-8.03,-5.86,2.53,-0.7190000000000001,1.13,-1.89,0.00799,-5.86,-3.09,0.0,0.0,0.0,1.0,90.0,995000000.0,-6.272790108375647,-6.097959863667843,3.1938337225318305,-0.7770766417725642,1.0735823006035727,-1.8951295930733831,1.6471219990303254,-6.642026641905839,-3.239856468687328,,,,,,,,,,0.2938507278281174,2.232105764296859,-2.107278677181316,-0.5967545292189631,0.2886317111589016,-1.388010946850304,,,,,,
20,20,20,20,1.05,-9.68,-2.65,2.48,0.201,1.56,-2.86,-1.3,-1.58,-2.51,0.0,0.0,0.0,1.0,90.0,1050000000.0,-8.538320068388124,-3.5465020237479195,2.790858817436356,0.07558751486896652,1.4525969564121866,-2.6730114882457325,-0.2640214607650089,-3.8806245434978655,-2.6632403577203645,,,,,,,,,,0.3636651826383843,2.576535847313971,-1.5514242396620181,0.8745951725060468,0.979830704670946,-0.8282560810549657,,,,,,
21,21,21,21,1.1,-13.7,-2.35,2.09,-1.01,0.527,-2.07,-5.39,-0.17600000000000002,-2.61,0.0,0.0,0.0,1.0,90.0,1100000000.0,-11.970435911410847,-2.6611016950188864,2.3952084738604484,-0.8708020730459163,0.731375566317418,-2.186861411667256,-3.5881051827395174,-1.8597031218477889,-2.6211782408239808,,,,,,,,,,-0.3378470222425077,2.3261989431654233,-1.5516638074144111,2.675249528813214,1.7788237531855764,-0.804717852653365,,,,,,
22,22,22,22,1.15,-13.6,-2.26,6.06,-1.93,1.92,-1.9,-5.27,1.05,2.07,0.0,0.0,0.0,1.0,90.0,1150000000.0,-13.053969628279095,-2.3642902014212788,4.464064269303517,-1.794185803096765,1.65754687527128,-1.9555926943713016,-4.6787767927657535,-0.2724218190700889,1.0850420850755342,,,,,,,,,,-1.1441071840280086,2.9393083039971826,0.16530600494206016,3.124387660018661,1.1961277089359348,-0.4927460134655796,,,,,,
23,23,23,23,1.2,-16.0,0.0407,3.45,-0.8859999999999999,0.123,0.338,-7.73,4.12,0.153,0.0,0.0,0.0,1.0,90.0,1200000000.0,-15.012850849199527,-0.5846200439562648,3.8916026000265016,-1.0024508163443828,0.4618341707246152,-0.10649004529983852,-6.6574276289380325,2.123702001115868,0.3486911722067281,,,,,,,,,,-1.390246977914105,0.9737787229449324,0.04846499168335178,4.7102958147607135,1.317165629068438,-0.5654925200767301,,,,,,
24,24,24,24,1.25,-11.7,-2.51,6.79,-1.0,0.511,1.61,-3.16,1.38,3.93,0.0,0.0,0.0,1.0,90.0,1250000000.0,-12.810062394563394,-2.009383118196362,5.527811980660183,-1.0003142524480384,0.5001439682121516,1.2773503919187836,-4.389423153567222,1.7180027738442123,3.1780699179731107,,,,,,,,,,-1.667230119744778,0.1127473129702475,0.8640865904494855,3.518603539032795,-0.05176585782879922,-0.41313651337431057,,,,,,
25,25,25,25,1.3,-4.87,-4.49,18.4,0.358,2.23,1.36,4.06,-1.27,15.9,0.0,0.0,0.0,1.0,90.0,1300000000.0,-7.530537956824016,-3.84501613953323,12.794446445538131,0.18383209137174888,1.8480407936288363,1.3439828136674872,1.0898410086261103,0.08800796529887789,13.228908468834453,,,,,,,,,,-3.0901326566945047,0.16659511425819232,4.914986037331562,-0.5430265396506142,-2.1800862990844325,0.5006404888380598,,,,,,
26,26,26,26,1.35,-0.603,-6.18,3.59,0.255,-0.0312,3.16,8.78,-3.89,1.89,0.0,0.0,0.0,1.0,90.0,1350000000.0,-2.9242636393378687,-5.5728821354361715,7.598332911720952,0.2458745917467927,0.3837439826174525,2.808062446313466,6.076739003839619,-2.082047765884662,4.270712566994447,,,,,,,,,,-0.09302973277945924,-1.638100302844984,1.0719912198420911,-1.6888144679750536,-2.692553254784212,-0.4261020684489515,,,,,,
27,27,27,27,1.4,-5.98,-3.68,1.59,-0.857,-1.14,1.52,3.53,-2.41,-0.436,0.0,0.0,0.0,1.0,90.0,1400000000.0,-4.956090828835211,-4.172167185517996,4.20649618602153,-0.7155854646378743,-0.80355114324771,1.7696218708543754,4.4252350192664345,-2.2609500704789025,0.5522194512321401,,,,,,,,,,0.5594557070425208,-1.2246731063764151,-0.9536786104892596,-0.6075728536481392,-0.8943477539166983,-0.5087753456290589,,,,,,
28,28,28,28,1.45,-8.3,-0.249,4.59,-0.373,-0.826,1.2,1.16,0.394,2.09,0.0,0.0,0.0,1.0,90.0,1450000000.0,-7.179530653611673,-1.269060319247559,4.422992652610455,-0.41692753153936096,-0.8210431821452587,1.310390715733575,2.3078022429587968,-0.8126398857529873,1.7671281579650049,,,,,,,,,,0.1502433295220159,-1.0546577716050525,-0.30575999359363626,0.483303608744573,-0.16138937144351545,-0.2412938323830801,,,,,,
29,29,29,29,1.5,-9.9,-4.23,3.65,0.444,-0.341,0.6920000000000001,-0.481,-3.98,0.918,0.0,0.0,0.0,1.0,90.0,1500000000.0,-8.98843107046751,-3.460127883349364,3.9866212668305536,0.3336087939170121,-0.446995472517906,0.8118418819804899,0.4993256114760358,-2.5404765036620027,1.0962825867261654,,,,,,,,,,-0.6679294260720571,-0.5177372790292087,-0.959687909799184,0.950111547940092,-0.06101810081962969,-0.5982654461827266,,,,,,
30,30,30,30,1.55,-5.92,-5.7,4.2,0.0205,-0.464,0.778,3.49,-5.76,1.44,0.0,0.0,0.0,1.0,90.0,1550000000.0,-6.948162949040875,-5.117612068152186,4.1070781708271085,0.06064793129076485,-0.4602453210258489,0.7845584331464432,2.438711870541248,-4.296769047140443,1.3678332778840714,,,,,,,,,,-0.4979647817496512,-0.4174438549412591,-1.2694431894146034,-0.3059892232797637,-0.4921040516308698,-0.6296922416061643,,,,,,
31,31,31,31,1.6,1.29,-3.26,4.12,0.113,-2.32,-1.24,10.5,-3.48,0.698,0.0,0.0,0.0,1.0,90.0,1600000000.0,-1.4704249135003171,-3.7429965802558063,4.114372764431418,0.10628722856285176,-1.9093585790990224,-0.847647838494973,7.666279083734231,-3.8512107981046544,0.8386379316209641,,,,,,,,,,1.3481849158985526,-0.6563054738412405,-1.4132475834996494,-3.026632685827595,0.8142307971645977,0.4687377020637418,,,,,,
32,32,32,32,1.65,-12.4,-5.25,3.08,1.17,0.858,-2.24,-3.41,-4.52,-0.7040000000000001,0.0,0.0,0.0,1.0,90.0,1650000000.0,-8.73774260575609,-4.858164954737098,3.5304464307416192,1.0336069018834178,0.2469559971040507,-1.97016714838261,0.4835568064599665,-4.2160440949516484,-0.3801083686464427,,,,,,,,,,-0.47252629478300706,1.3498831806693128,-1.5161068373557458,0.3040439702388559,1.053217974497638,-0.4320245011960385,,,,,,
33,33,33,33,1.7,-12.4,-3.4,3.65,1.29,1.01,-1.9,-3.27,-1.91,0.439,0.0,0.0,0.0,1.0,90.0,1700000000.0,-11.172858875218349,-3.779136656164933,3.5979371171900136,1.2571243255614075,0.8415167848586318,-1.9135981226861551,-1.950541823868608,-2.9580666879853093,0.26702035067054464,,,,,,,,,,-0.9785624143463638,1.631286132345657,-1.034224705750152,1.6992296012116743,1.044730823407544,-0.45698371060670795,,,,,,
34,34,34,34,1.75,-6.68,-0.354,4.03,0.348,-0.417,-1.99,2.41,1.83,1.05,0.0,0.0,0.0,1.0,90.0,1750000000.0,-8.185456810509102,-1.244567706422802,3.8418462838483127,0.4645711678637241,-0.13911439102179202,-1.9751935976567347,0.8771732450912769,-0.34611330143779595,0.8856058758220003,,,,,,,,,,0.3520050178992201,1.0032995043061008,-0.4481897253352281,0.7484816325393342,1.5751060302077715,0.431902967200392,,,,,,
35,35,35,35,1.8,-10.4,-2.98,3.33,-0.327,0.884,-2.09,-1.57,0.13,0.293,0.0,0.0,0.0,1.0,90.0,1800000000.0,-9.657955655462644,-2.528771315894025,3.5528976990413637,-0.2255019033849889,0.6580921993813964,-2.067750861445835,-0.7097645606038001,-0.08638723505064673,0.4174232969704914,,,,,,,,,,0.09260258007155944,1.8006587760285635,-0.5170743351262463,1.6105865743493657,1.31951267905684,0.2005511283334375,,,,,,
36,36,36,36,1.85,-11.4,-5.26,5.39,0.0644,0.381,-1.1,-2.8,-1.4,2.54,0.0,0.0,0.0,1.0,90.0,1850000000.0,-10.81627949286342,-4.549855055538044,4.589982482219769,0.0272277418683452,0.4421830898815653,-1.2875466681650465,-2.065236021999812,-0.8029802653032311,2.0943446345900325,,,,,,,,,,-1.1504469066250669,1.3506229674736527,-0.27574942825632115,1.7837895241211676,0.9536116866200566,0.06890757406240859,,,,,,
37,37,37,37,1.9,0.0287,-9.25,3.57,-0.448,-0.967,-0.428,8.41,-5.02,0.7340000000000001,0.0,0.0,0.0,1.0,90.0,1900000000.0,-3.6052110418645658,-8.02791816333896,4.0141797863233535,-0.3870646092045458,-0.6558466696583121,-0.5945770665420982,4.727722957011092,-3.1034199931530484,1.0196174238259983,,,,,,,,,,0.4935059129763492,0.26334237129364146,-1.4589609292864618,-1.6240460635370575,0.014876010095142476,0.3724782009580086,,,,,,
38,38,38,38,1.95,2.57,-5.86,3.3,0.14800000000000002,0.0819,-0.789,10.8,-1.4,0.313,0.0,0.0,0.0,1.0,90.0,1950000000.0,0.5008242965605048,-6.4236791857402835,3.611009482881809,0.07939210140677883,-0.08099745358030053,-0.7513215118496956,8.66546055758534,-2.1741819661663717,0.4613610998274534,,,,,,,,,,2.314949311019052,0.13530482984676104,-1.2153618445458814,-2.8561721180795896,-0.6968652741831247,0.8134574435310318,,,,,,
39,39,39,39,2.0,-10.8,-3.31,5.5,-0.121,-0.069,-3.29,-2.99,1.83,2.48,0.0,0.0,0.0,1.0,90.0,2000000000.0,-7.0133456460085295,-4.119585794487018,4.677386386457616,-0.09530500658288893,-0.07164908501760682,-2.798013175778494,1.1071519427756609,0.010151992981746629,2.0561674183168988,,,,,,,,,,0.14603949076597694,1.7116843831613282,-0.1683633545742819,0.07905664274879859,1.787074098070312,1.0148278713230097,,,,,,
40,40,40,40,2.05,-9.01,-5.61,4.54,0.382,0.698,-2.41,-1.88,0.42,1.57,0.0,0.0,0.0,1.0,90.0,2050000000.0,-8.340965756309883,-5.222478405068423,4.599828712803066,0.32079824220546266,0.5280583741681624,-2.485195632189866,-0.8299500787844134,0.2337294650210948,1.6720755534804854,,,,,,,,,,-0.3232248546485125,1.8336021959866764,-0.18013884801363073,1.00895347156087,1.3951533733424668,0.7732427085008655,,,,,,
41,41,41,41,2.1,-17.6,-14.3,5.46,0.34600000000000003,0.42,-2.75,-11.3,-7.27,2.79,0.0,0.0,0.0,1.0,90.0,2100000000.0,-14.497504135947453,-11.939759256201775,5.0854144402869155,0.3427685281051968,0.44385971665360696,-2.6986818624638205,-7.619546208676687,-3.8596536558930175,2.5552810109141566,,,,,,,,,,-3.8738307855345937,2.7736104335431757,-1.2170823825684518,2.5320993305865174,1.8845664977140235,-0.1306236742636708,,,,,,
42,42,42,42,2.15,-2.31,-16.3,2.36,-0.16,0.4320000000000001,0.0984,3.61,-8.89,-0.276,0.0,0.0,0.0,1.0,90.0,2150000000.0,-6.3937611049684815,-15.166295883854538,3.5468576834773766,-0.09553321579695173,0.4346186822243623,-0.4436644440163429,-0.3374337114694201,-6.603773945809834,0.3184546069702248,,,,,,,,,,-1.6199622425910798,1.3011082801533518,-2.6768139920295084,-0.4432945551489773,-0.7905726001253423,-0.4676573150457941,,,,,,
43,43,43,43,2.2,-2.06,-3.54,2.83,-0.0785,1.46,0.393,4.21,3.71,0.765,0.0,0.0,0.0,1.0,90.0,2200000000.0,-3.512146767908116,-6.562946113900018,3.142175631745616,-0.08068406221167376,1.2335916798916298,0.2308574343786013,2.61147658573118,-0.9774745645532424,0.6712435008593518,,,,,,,,,,1.0988391276792997,0.5668399804015872,-0.9577891909832564,0.06321942426005528,-1.436758050590221,0.3364617438328765,,,,,,
44,44,44,44,2.25,-4.51,-6.1,1.31,0.981,0.649,-0.964,1.72,1.28,-0.382,0.0,0.0,0.0,1.0,90.0,2250000000.0,-4.175641762628782,-6.220370267755826,2.1078719545693128,0.8448670730617314,0.7780802031526755,-0.7324409003106713,2.0333737383332,0.25400749085495145,-0.16086142534762093,,,,,,,,,,1.3919112287472817,0.6119625280440995,-1.4201193362747742,0.5246263608437952,-0.4390233479388472,0.8781866128050344,,,,,,
45,45,45,45,2.3,-5.48,-9.74,2.82,0.0504,0.162,-0.161,0.7170000000000001,-2.34,1.09,0.0,0.0,0.0,1.0,90.0,2300000000.0,-5.042938623661995,-8.824863038387505,2.5098839403182143,0.15226941314790646,0.2980330055980877,-0.27174319743140984,1.1797344632664035,-1.1610576715739704,0.8273696737914945,,,,,,,,,,0.3774391659306068,0.5327870061612252,-1.7274128611914608,0.3855264640370067,-0.5160297237503466,0.6967122608972053,,,,,,
46,46,46,46,2.35,-4.43,-9.15,2.76,0.0217,-0.0745,0.0587,1.7,-1.69,1.05,0.0,0.0,0.0,1.0,90.0,2350000000.0,-4.635381964620772,-9.065461053502668,2.651079979510185,0.03844207806261657,0.007756795615283919,-0.005338708297827288,1.5171151979053017,-1.4496027009407575,1.0032565902148698,,,,,,,,,,0.31720477876835645,0.2596364308376704,-1.7764654966590936,0.12160240050292673,-0.5693483540272269,0.6793974250636382,,,,,,
47,47,47,47,2.4,-3.59,-8.11,2.89,0.0351,0.0648,-0.0402,2.53,-0.652,1.13,0.0,0.0,0.0,1.0,90.0,2400000000.0,-3.9402841519935152,-8.358428595037317,2.7859556716911453,0.03552853482277763,0.052204630641257986,-0.03344400560134843,2.173948590729994,-1.0144999409391706,1.103389001821741,,,,,,,,,,0.6330652007754859,0.205652093445146,-1.5580235797364153,-0.07980224551896029,-0.6141681705377122,0.7945931607411868,,,,,,
48,48,48,48,2.45,-4.3,-6.83,3.13,0.21600000000000005,0.202,-0.126,1.85,0.5820000000000001,1.28,0.0,0.0,0.0,1.0,90.0,2450000000.0,-4.1794673593080764,-7.227405735641018,2.98017636482182,0.1928593073519473,0.1689245809518406,-0.1080629816003968,1.963875103735184,-0.1435882125615393,1.2429188045498294,,,,,,,,,,0.7531432237980931,0.19191205593184746,-1.2027488130256323,0.18435780072950952,-0.5117610880571746,0.8882399447253534,,,,,,
49,49,49,49,2.5,-5.01,-3.21,2.8,-0.0168,-0.114,-1.01,0.8190000000000001,4.47,0.996,0.0,0.0,0.0,1.0,90.0,2500000000.0,-4.73170716551715,-4.254563257243203,2.8784627971125603,0.010083267699856737,-0.05152910615570125,-0.8352078303015262,1.2214489021826511,2.373184732593181,1.0478429646740786,,,,,,,,,,1.2753576027153672,0.3767895776784653,-0.6789910920634862,0.8542853135188565,0.46002517241646,1.3608900908256063,,,,,,
50,50,50,50,2.55,-3.08,-6.18,2.77,-0.397,-0.342,-0.679,2.43,1.73,0.967,0.0,0.0,0.0,1.0,90.0,2550000000.0,-3.633450226451024,-5.67936823314683,2.817233139774714,-0.3448023385388549,-0.2778628555895716,-0.7092725338764528,2.005167625783256,2.0223190105656705,0.983973761781474,,,,,,,,,,1.3937866070975888,0.2954605163296857,-0.9350480797220388,0.3382926142952872,0.3176410027087269,1.4546209515700157,,,,,,
51,51,51,51,2.6,-6.51,-15.1,4.11,-0.239,-0.701,-0.917,-1.32,-6.96,2.37,0.0,0.0,0.0,1.0,90.0,2600000000.0,-5.546132402062407,-12.650547529617644,3.5470286847159693,-0.2525663482818396,-0.6075695846326563,-0.8767431580116638,-0.15113013382544382,-2.8776541888308325,2.0789904082541217,,,,,,,,,,-1.0043474771155907,0.8113854573587396,-1.9971797499229789,-0.2481234736411753,0.26325671809114315,0.8555838519753686,,,,,,
52,52,52,52,2.65,-1.35,-14.8,3.53,-0.36,-0.654,-0.853,3.43,-6.48,1.68,0.0,0.0,0.0,1.0,90.0,2650000000.0,-2.7560305093276964,-14.241122307828467,3.5374155996188694,-0.3462244849281684,-0.643747963888698,-0.85760132702009,2.171153665252456,-4.842781226449983,1.763771821272285,,,,,,,,,,-0.5951202264150549,0.7757073397598528,-2.434356335766501,-1.715074423946212,-0.2424019131224108,0.7650667431864929,,,,,,
53,53,53,53,2.7,-1.61,-9.12,3.14,-0.0382,-0.00611,0.121,2.84,-0.5660000000000001,1.34,0.0,0.0,0.0,1.0,90.0,2700000000.0,-1.9940093038265057,-10.451539820927913,3.313065767871997,-0.07769600113028857,-0.14690304611717436,-0.06864943081711318,2.604885677476118,-2.5097407999848227,1.4289749844101274,,,,,,,,,,0.4048943098333235,0.19914538127743275,-1.7284104222526322,-1.0650385799762458,-0.8097027034441244,0.8242009603183498,,,,,,
54,54,54,54,2.75,-3.13,-7.58,1.85,0.217,0.299,-0.136,1.33,0.96,0.0111,0.0,0.0,0.0,1.0,90.0,2750000000.0,-2.7493548995173187,-8.326627270970569,2.487132813890379,0.179213017090755,0.20054279670718386,-0.12294770700657792,1.7781505159519884,-0.6169515624356525,0.3087964508584482,,,,,,,,,,1.0084306715485785,0.2207206965121322,-1.6426296446110091,-0.03426932537745262,-0.6665998825662324,0.9026973252739195,,,,,,
55,55,55,55,2.8,-0.417,1.72,3.26,-0.253,0.632,-0.4920000000000001,3.95,10.3,1.47,0.0,0.0,0.0,1.0,90.0,2800000000.0,-1.1985201676526869,-0.8922174428929068,2.923433419510409,-0.19758009150552025,0.5367325239034676,-0.420478999099401,3.1865469436370013,5.338389226456368,1.226194200993365,,,,,,,,,,2.969556593930972,0.03968582051039378,0.3039642433682552,0.6020908369612371,-0.2382842209562835,1.9553761781078212,,,,,,
56,56,56,56,2.85,-7.24,-4.09,0.769,-0.397,-0.0483,-1.14,-3.57,4.87,-0.7709999999999999,0.0,0.0,0.0,1.0,90.0,2850000000.0,-5.215634538028064,-3.258546609498418,1.7072081263453494,-0.3714296780976604,0.08087755046306139,-1.000559396947687,-1.1949243994980492,5.082876679548047,-0.3516699453549101,,,,,,,,,,1.8102954956376485,0.5795002829625797,-0.7962161277050845,2.303469807100731,0.8936597997255099,1.7255235876277528,,,,,,
57,57,57,57,2.9,0.268,-7.39,2.55,-0.542,-0.487,0.318,3.9,1.62,1.19,0.0,0.0,0.0,1.0,90.0,2900000000.0,-1.5694437739674494,-6.3157832106083776,2.1829827422544734,-0.5201288587729199,-0.3616103268883393,0.062467904989553125,2.109021547517848,3.1938319008872886,0.866311654866667,,,,,,,,,,1.962976955339062,-0.24880275269040056,-1.102216485343123,0.38584737722196977,-0.2632755941587671,1.8396406064897104,,,,,,
58,58,58,58,2.95,-1.88,-7.63,3.62,-0.7909999999999999,-0.519,-2.32,1.41,1.54,2.48,0.0,0.0,0.0,1.0,90.0,2950000000.0,-1.775939523540816,-7.288291374267052,2.99421068531494,-0.7562679397661249,-0.4842477176004107,-1.8582862039375616,1.6557214993214622,2.2916448227367674,2.1411906710064867,,,,,,,,,,1.406299841634134,0.9819708438748168,-0.8972593677381628,-0.29645581698677026,0.8995554794940983,2.292441425963296,,,,,,
59,59,59,59,3.0,6.06,-2.85,2.69,0.184,-0.29600000000000004,-1.79,8.23,6.65,1.6,0.0,0.0,0.0,1.0,90.0,3000000000.0,3.434351183638088,-4.003997378101729,2.822477061094768,0.0634354779799825,-0.33756586180242704,-1.8032335908603687,5.918995531416353,4.669184956139113,1.7136281904773238,,,,,,,,,,3.6575551373638935,0.21949037170743788,-0.2610222609045711,-1.5805240516932175,0.3842014219759327,3.0782742880172727,,,,,,
60,60,60,60,3.05,1.47,-15.6,2.25,0.15,-0.453,-0.8370000000000001,2.97,-5.94,1.04,0.0,0.0,0.0,1.0,90.0,3050000000.0,2.1282103421131944,-12.584930672825847,2.499301105341561,0.13890039219564812,-0.42751168160377095,-1.024252617336563,4.00663711490136,-1.1182650276544852,1.181434668852299,,,,,,,,,,1.5302217102778255,0.3734434306688827,-2.1381519462428265,-2.0467146772505243,-0.5419228446144612,2.0265759706907667,,,,,,
61,61,61,61,3.1,5.75,-15.7,1.85,0.505,0.721,0.8859999999999999,6.84,-6.07,0.472,0.0,0.0,0.0,1.0,90.0,3100000000.0,4.53641896584643,-14.890052572197185,2.132756291853356,0.4580573931294348,0.4674039791686266,0.5157998702191828,5.844010433038478,-3.8195016865350224,0.6209526147854324,,,,,,,,,,1.7572435986493171,-0.10751900007732956,-2.701549132062864,-2.8924748807462697,-2.6080803931475254,1.3026377156799775,,,,,,
62,62,62,62,3.15,-4.22,-2.05,1.03,0.32,0.627,0.0251,-2.69,7.52,-0.465,0.0,0.0,0.0,1.0,90.0,3150000000.0,-1.2859189259719708,-5.38853424731019,1.5102259722154256,0.33770220709448706,0.5917605318501962,0.12019587655371765,0.30989321510969603,2.366345639054784,-0.2369938365741189,,,,,,,,,,2.0471112109777576,-0.017707623872432094,-1.2878962812372798,1.0296049184669842,-0.8118256788346251,1.4645319585694865,,,,,,
63,63,63,63,3.2,1.19,-11.4,2.52,0.124,-0.319,-0.0744,2.69,-1.86,0.929,0.0,0.0,0.0,1.0,90.0,3200000000.0,0.3603747603565086,-9.836962152942947,2.0802657214691203,0.151401660493527,-0.1179003886045218,-0.036688016693201216,1.853339906494724,0.06081848949117141,0.6841884274249017,,,,,,,,,,1.4645959546551373,-0.0710328433935825,-1.86879486736574,-0.5477730359937141,-0.856609825177021,1.6296389987273692,,,,,,
64,64,64,64,3.25,0.0718,-8.88,2.35,-0.00886,0.112,-0.0451,1.49,0.679,0.698,0.0,0.0,0.0,1.0,90.0,3250000000.0,0.16849497444911274,-9.128819233733275,2.232536630414286,0.011689323647997962,0.06123706532846451,-0.043469787583068006,1.6177220124212632,0.3980446462955646,0.6951001388035241,,,,,,,,,,1.515151708188982,0.03323736905608608,-1.6392950570597955,-0.3672951570247662,-0.8681977855090588,1.5802245802187909,,,,,,
65,65,65,65,3.3,0.0407,-9.59,2.73,-0.0541,-0.184,-0.0916,1.39,-0.013000000000000001,1.09,0.0,0.0,0.0,1.0,90.0,3300000000.0,0.08352124898743388,-9.470088781554335,2.5133657098794497,-0.04566425677980529,-0.1298506625481969,-0.08227253800363321,1.4700493103023031,0.1738143844895535,1.0070870132438408,,,,,,,,,,1.2843713250270044,0.0035176904409574953,-1.5996681709903222,-0.4897276925170194,-0.7365373039623192,1.5974467727686417,,,,,,
66,66,66,66,3.35,-0.0168,-9.87,3.03,0.0101,-0.13699999999999998,-0.0531,1.24,-0.293,1.35,0.0,0.0,0.0,1.0,90.0,3350000000.0,0.01681541614411837,-9.76601924192827,2.805017170846566,0.002949706961208956,-0.13542139304855033,-0.05875353418338133,1.3208674223971557,-0.08083900987371867,1.2780021485758282,,,,,,,,,,1.0784939602870889,-0.002616090259689725,-1.5139604289074031,-0.5639543684662292,-0.7630047643171097,1.559210742336038,,,,,,
67,67,67,67,3.4,-0.0168,-9.91,2.55,0.108,-0.18600000000000005,-0.0103,1.17,-0.333,0.812,0.0,0.0,0.0,1.0,90.0,3400000000.0,-0.005536222480113442,-9.872563537495628,2.6610543137594327,0.09453007768418176,-0.17483204207633446,-0.01969012144780586,1.2230332050190322,-0.21839614939188728,0.9098416018057046,,,,,,,,,,1.0917058641365038,-0.06305719877853871,-1.6494885388736895,-0.5242789356896432,-0.7523324465718795,1.4889307403742218,,,,,,
68,68,68,68,3.45,0.591,-9.89,2.31,0.0895,-0.14300000000000002,0.0636,1.74,-0.322,0.482,0.0,0.0,0.0,1.0,90.0,3450000000.0,0.3911140141219647,-9.885466610013992,2.4628763611864364,0.09014497680771254,-0.15002864907627791,0.0474586759380699,1.5582747537896482,-0.27491341106938344,0.5718294422196238,,,,,,,,,,1.28596991873651,-0.11159020539687882,-1.7640036911905557,-0.6159255286400345,-0.8525778781530469,1.4630371754089204,,,,,,
69,69,69,69,3.5,-0.261,-9.06,1.86,-0.0785,-0.12,-0.134,0.84,0.502,0.004370000000000001,0.0,0.0,0.0,1.0,90.0,3500000000.0,-0.042491125493215376,-9.274629383187479,2.122539336622024,-0.056875739443187766,-0.1266304453028171,-0.09883396156436287,1.0924894314226212,0.14890306056517486,0.12351355225547878,,,,,,,,,,1.4166416532001185,0.01960882219123867,-1.8320057100445184,-0.27304774233141066,-0.6468480906880946,1.4636199964947962,,,,,,
70,70,70,70,3.55,-0.11,-10.3,2.91,-0.16,-0.208,-0.203,0.6829999999999999,-0.6990000000000001,1.02,0.0,0.0,0.0,1.0,90.0,3550000000.0,-0.08737927960684125,-10.033394148888727,2.5670783365899514,-0.1467770349062083,-0.19003327595559694,-0.1828129903283945,0.8269446023075184,-0.3136392132726779,0.8317740575164241,,,,,,,,,,1.037216399591358,0.12188433008165245,-1.7280791591556337,-0.462492645072369,-0.6164586603382903,1.5013927467768482,,,,,,
71,71,71,71,3.6,0.6609999999999999,-9.1,2.51,-0.118,0.0776,-0.241,1.26,0.502,0.615,0.0,0.0,0.0,1.0,90.0,3600000000.0,0.4102347834299034,-9.342691528890493,2.534856348468661,-0.12168989508964093,0.018505489996567648,-0.2297235633519661,1.1077714518462032,0.1313026928841009,0.6605137998713104,,,,,,,,,,1.35821771781643,0.17093528729741297,-1.5690276115106747,-0.4639498883269942,-0.7094525169367011,1.5550094515775086,,,,,,
72,72,72,72,3.65,-0.153,-9.65,2.95,-0.138,0.055,-0.191,0.299,-0.0369,1.08,0.0,0.0,0.0,1.0,90.0,3650000000.0,0.03572743102228704,-9.570096628506471,2.7692141435428947,-0.13590865692819482,0.046941864082472716,-0.1985044875206265,0.5833010343504204,0.03954591194917173,0.9919248831253168,,,,,,,,,,1.0875642224938746,0.2122363827272104,-1.4681053739960797,-0.34530849447891315,-0.7092521902434396,1.5264190276619667,,,,,,
73,73,73,73,3.7,0.0383,-10.0,3.13,-0.261,-0.175,-0.24,0.364,-0.377,1.3,0.0,0.0,0.0,1.0,90.0,3700000000.0,0.0374379895301714,-9.888221085087894,2.9728857993894087,-0.2449603464831129,-0.1259943347751286,-0.2319583140588264,0.4410891549068604,-0.18768536470224084,1.2353166369602904,,,,,,,,,,0.9041937983803084,0.2007503269794744,-1.4602586646406333,-0.4634750496290773,-0.5965855636621803,1.5433131835106089,,,,,,
74,74,74,74,3.75,0.0383,-9.85,2.77,-0.29100000000000004,-0.161,-0.274,0.204,-0.213,0.985,0.0,0.0,0.0,1.0,90.0,3750000000.0,0.038011159581186935,-9.859938123438985,2.8583522700194632,-0.2850966382408036,-0.15327060606709286,-0.2658524630821543,0.28734207468439266,-0.2014948309995669,1.0375563898812747,,,,,,,,,,0.92958699997833,0.22154800752348044,-1.5327389533890734,-0.4145839614619012,-0.5395767442538729,1.53093498585467,,,,,,
75,75,75,75,3.8,0.0479,-9.25,2.7,-0.204,-0.242,-0.191,0.0622,0.394,0.944,0.0,0.0,0.0,1.0,90.0,3800000000.0,0.04458646901465562,-9.408589641585452,2.7689589400908643,-0.2143984980363448,-0.22240818926441228,-0.20550613881783628,0.14134241357533986,0.12335542939291652,0.9636430658243442,,,,,,,,,,1.0067669892723496,0.1037119947169996,-1.5054029696507176,-0.2885495356225033,-0.4862265522738131,1.5762768528911082,,,,,,
76,76,76,76,3.85,0.596,-10.1,2.36,-0.0308,-0.221,-0.00359,0.5379999999999999,-0.417,0.619,0.0,0.0,0.0,1.0,90.0,3850000000.0,0.4112336197030165,-9.92022709429046,2.538092519037337,-0.054341656738066464,-0.22131093454580766,-0.04272062419841177,0.3985660849722436,-0.17141556312986098,0.6913611308914729,,,,,,,,,,1.0801671379834137,-0.027016663929001025,-1.7190317643172532,-0.3960005902743274,-0.6742699774257331,1.5365698022906231,,,,,,
77,77,77,77,3.9,0.821,-10.2,1.98,0.0339,-0.173,-0.0573,0.728,-0.519,0.227,0.0,0.0,0.0,1.0,90.0,3900000000.0,0.6836964007396529,-10.127256275309495,2.2230369660172715,0.022585338915197137,-0.18366724462431905,-0.05447457033073064,0.6121966894343225,-0.3610274423762059,0.3244970713572,,,,,,,,,,1.2283376557721308,-0.02209994130370909,-1.9260701162196376,-0.454657277096257,-0.7440288534446315,1.5196110308903978,,,,,,
78,78,78,78,3.95,-0.292,-10.5,2.78,0.313,-0.16,0.0105,-0.443,-0.838,0.96,0.0,0.0,0.0,1.0,90.0,3950000000.0,0.03493413180027971,-10.40308313018934,2.537454894372726,0.2757619865703122,-0.16522582072661945,-0.002091839003194637,-0.07207503860631659,-0.6212222466570301,0.8265700484182982,,,,,,,,,,0.7983930109008553,-0.05146322380797577,-1.8136899603673495,-0.29503914873003834,-0.7482679975413801,1.4674102406312723,,,,,,
79,79,79,79,4.0,-1.38,-10.5,3.43,0.593,0.344,0.5429999999999999,-1.43,-0.862,1.39,0.0,0.0,0.0,1.0,90.0,4000000000.0,-0.9058870888116416,-10.474800703454644,3.041316374143902,0.5523226013175937,0.2315608844923892,0.43736314113743796,-0.9526593345602395,-0.7525696721846059,1.2717024668155557,,,,,,,,,,0.33047664447115965,-0.12708512690243906,-1.4922626961539591,0.12149942537988333,-1.1622272507865514,1.1982828835822172,,,,,,
80,80,80,80,4.05,0.00718,-12.2,5.81,1.19,0.5720000000000001,1.52,0.49,-2.76,3.36,0.0,0.0,0.0,1.0,90.0,4050000000.0,-0.2987684415451486,-11.751431835990383,4.604299451161729,1.1082347703046866,0.4968296846359709,1.310188841082073,-0.01712662987396818,-1.847649317638876,2.9215418223108705,,,,,,,,,,-0.3075317822033729,-0.6383616799253214,-0.8673221854465724,-0.5750210517996982,-2.127584537491227,0.9440034967165724,,,,,,
81,81,81,81,4.1,-1.31,-12.4,3.7,1.86,0.423,1.67,0.007490000000000002,-3.16,0.545,0.0,0.0,0.0,1.0,90.0,4100000000.0,-0.9711587932488588,-12.231365902708509,4.093802448107692,1.7636059826516517,0.4393018996576837,1.6002698522122685,-0.0011632892363737345,-2.5635539250652752,1.0439777608911014,,,,,,,,,,-0.2801691381315824,-0.9827025022663084,-1.4331411534527818,-0.3740119409356903,-2.2000902521510373,0.43826429164483466,,,,,,
82,82,82,82,4.15,-2.7,-9.59,6.64,2.19,-0.472,1.46,-0.653,-0.8740000000000001,2.64,0.0,0.0,0.0,1.0,90.0,4150000000.0,-2.1207038555717266,-10.276780059451056,5.53118717518658,2.135326282064113,-0.2707808501696969,1.4871838254458984,-0.4238649899900082,-1.641880040651614,2.3048999072019822,,,,,,,,,,-0.8215273022248201,-1.4625613686686456,-0.5607430780624001,-0.32797802825895694,-1.4187771314454525,0.5740281345685256,,,,,,
83,83,83,83,4.2,-2.34,-9.98,5.53,2.12,-0.693,1.42,0.183,-1.92,0.547,0.0,0.0,0.0,1.0,90.0,4200000000.0,-2.2665186900460035,-10.05716526453822,5.530517106992368,2.121965091002709,-0.5997723153666938,1.4330199500148588,-0.030326455597613045,-1.7935981136069066,0.91608793741511,,,,,,,,,,-0.6542583920533563,-1.6331372167684917,-0.7618538289903208,-0.44674948027138267,-1.0800184431513054,0.2931901366751144,,,,,,
84,84,84,84,4.25,-0.812,-9.22,5.75,2.01,-1.08,1.6,2.08,-1.93,-0.142,0.0,0.0,0.0,1.0,90.0,4250000000.0,-1.2993767961510507,-9.437671030342203,5.654420051825782,2.0243565566009125,-0.9739638147793706,1.5676398839192436,1.3381735672796002,-1.8680071083258432,0.08015570632949265,,,,,,,,,,-0.2179058713680059,-1.991457047132677,-0.8061278761964105,-0.9873522506267642,-0.9776361942095592,0.1668777092910553,,,,,,
85,85,85,85,4.3,-0.321,-6.1,5.77,2.27,-1.52,1.15,2.65,0.313,-1.03,0.0,0.0,0.0,1.0,90.0,4300000000.0,-0.6488322762394356,-6.967825749936299,5.719667476729735,2.238502701411562,-1.3994329828907637,1.2309370936397117,2.1888640819342555,-0.6782390440886967,-0.7969121399571991,,,,,,,,,,0.4683345538666665,-2.290721782554204,-0.5430926331152899,-1.1388792367097882,-0.3511522212594947,0.3142503527135452,,,,,,
86,86,86,86,4.35,-2.0,-3.19,5.95,1.81,-0.955,0.755,0.831,2.35,-1.63,0.0,0.0,0.0,1.0,90.0,4350000000.0,-1.5472537948343987,-4.17227022456483,5.8496951700064646,1.8649441009576595,-1.0531325904701905,0.8472348993484237,1.3083192117788962,0.9737051375454971,-1.4550852103271696,,,,,,,,,,0.8520850844057347,-1.9172704065526909,0.043778999795299166,-0.3799332447789351,0.08796290064656817,0.2635367540126141,,,,,,
87,87,87,87,4.4,-0.237,-1.88,5.49,1.24,-0.8170000000000001,0.557,2.43,2.94,-2.62,0.0,0.0,0.0,1.0,90.0,4400000000.0,-0.6760368612935641,-2.4760117874397998,5.646639166166838,1.3201325788605232,-0.8691390108688022,0.6132464684234833,2.0357044592709195,2.0463448819439862,-2.37541487743516,,,,,,,,,,1.6707084478887797,-1.7056446635464568,0.2559724427626269,-0.3981608444682414,0.21942637294061734,0.3142830949088188,,,,,,
88,88,88,88,4.45,-1.31,-2.92,7.39,0.647,-0.172,0.0166,1.19,1.48,-1.01,0.0,0.0,0.0,1.0,90.0,4450000000.0,-1.0975730365483725,-2.804558950560539,6.63080481897162,0.7333114826325855,-0.325931122973799,0.1322279472460713,1.4872838429607076,1.7373963092389155,-1.2966819409297683,,,,,,,,,,1.2394756548866201,-0.9255197774914086,0.8433985619547842,-0.4854964949393401,0.20775778122233896,0.26813565763956704,,,,,,
89,89,89,89,4.5,2.57,-6.34,7.9,0.6459999999999999,-0.111,0.0318,5.04,-2.17,-0.626,0.0,0.0,0.0,1.0,90.0,4500000000.0,1.3410779311545258,-5.4207522296761645,7.3472936084128655,0.6571954150754827,-0.15845766397286412,0.0512625777848129,3.7911417379582737,-0.3941398190924228,-0.766816095470116,,,,,,,,,,1.2470268641219409,-0.7517031573325398,0.7210624077639699,-2.0946734981295503,-0.4158195647694418,0.19381289020655584,,,,,,
90,90,90,90,4.55,-0.8240000000000001,-7.02,10.2,0.937,0.0275,-0.388,1.55,-3.14,1.49,0.0,0.0,0.0,1.0,90.0,4550000000.0,-0.0985306159082706,-6.6041805429692015,8.957709318660715,0.9011224337730296,-0.013560205825830065,-0.3028724957804901,2.3378108148362577,-1.8920427255465349,1.016159824402658,,,,,,,,,,-0.11096899278143517,-0.3490732392054526,1.2740578207339954,-2.2302254548792,-0.2609807857209907,-0.01972040795447591,,,,,,
91,91,91,91,4.6,-0.0934,-0.948,7.05,0.903,0.166,-0.7040000000000001,2.19,2.57,-1.81,0.0,0.0,0.0,1.0,90.0,4600000000.0,-0.09511915611412716,-2.4186600830849807,7.880765345503869,0.90275924924065,0.12635237404875235,-0.626262924075987,2.2419588048521604,0.5420602409657937,-1.2166205955083351,,,,,,,,,,1.195817565198855,-0.365813709194896,1.3923831906920818,-1.3568377901427124,0.2866945434265595,0.03786650846986043,,,,,,
92,92,92,92,4.65,-2.34,-1.17,8.48,0.302,-0.218,-0.474,-0.0784,2.15,-0.468,0.0,0.0,0.0,1.0,90.0,4650000000.0,-1.5877903798636588,-1.4946633192105159,8.219046295798504,0.37903149019845617,-0.14196559639965592,-0.5035080146150323,0.7372573947111507,1.419212583259708,-0.625180069493389,,,,,,,,,,0.7622388479103822,-0.3880967275898336,1.7327027264538253,-0.6753054296249115,0.6883436506270736,0.05691023482627997,,,,,,
93,93,93,93,4.7,-1.49,-5.58,10.6,0.523,-0.648,-0.103,0.642,-2.37,1.55,0.0,0.0,0.0,1.0,90.0,4700000000.0,-1.52276738422212,-4.517774030676279,9.563147508814485,0.5045398437854854,-0.5362655547087962,-0.18061701807933486,0.6754850919217456,-0.6478526638484063,1.0933000457764352,,,,,,,,,,-0.4421172900917112,-0.6180813463920988,1.7942414103689242,-1.5089102586923313,0.4413314309894961,-0.07973990993634968,,,,,,
94,94,94,94,4.75,0.7659999999999999,-4.23,7.83,0.8190000000000001,-0.455,-0.376,2.51,-1.31,-1.37,0.0,0.0,0.0,1.0,90.0,4750000000.0,-0.000914983173350592,-4.304823965313109,8.584747385309695,0.7786787976782105,-0.4729437739871168,-0.33813546789313803,1.8651274644210327,-1.0090627147517848,-0.852806534994101,,,,,,,,,,0.4230826765985726,-0.6727043218172796,1.1940076657161975,-1.8745750302349218,0.3631386974501413,-0.1868486423113148,,,,,,
95,95,95,95,4.8,-0.611,-3.81,8.52,0.695,0.569,-0.0409,1.07,-1.2,-0.782,0.0,0.0,0.0,1.0,90.0,4800000000.0,-0.4065741022715534,-3.938658836798192,8.548196313461059,0.7057295888562419,0.3389345971833299,-0.09850316806139243,1.3495049085257471,-1.1132215415599684,-0.7968665152326564,,,,,,,,,,0.41343551889658825,-0.35444370731836816,1.3998713997903829,-1.4562708449578534,-0.2307819138525296,-0.4433859333333916,,,,,,
96,96,96,96,4.85,-3.02,-0.232,7.76,0.341,1.2,0.112,-0.959,2.14,-1.52,0.0,0.0,0.0,1.0,90.0,4850000000.0,-2.144299186542911,-1.1957661113555689,8.103242200421658,0.3877669258719933,1.0098733071572348,0.07120524316998841,-0.14750950562668996,0.6614536612380779,-1.3681711746268579,,,,,,,,,,0.706907076165368,-0.08595259305989933,1.8204861853788508,-0.08181698736242289,-0.2786626477459709,-0.6195394289327267,,,,,,
97,97,97,97,4.9,-5.23,-2.76,9.64,-0.18,0.125,0.902,-2.67,-0.502,0.444,0.0,0.0,0.0,1.0,90.0,4900000000.0,-4.196050408201846,-2.353284488168001,8.970776142556975,-0.1071988978294891,0.32038361174626795,0.7409949614118625,-1.7832888985776223,0.02677439837522566,0.06351728686597502,,,,,,,,,,-0.5909955598741898,-0.4769254679732639,1.9415791055842255,0.2645412834647964,-0.10034058042194087,-0.8370720908246078,,,,,,
98,98,98,98,4.95,-0.426,-3.2,8.3,-0.251,-0.486,0.731,2.08,-0.93,-0.901,0.0,0.0,0.0,1.0,90.0,4950000000.0,-1.6892599082436932,-2.979846048534888,8.592108290063768,-0.2325612965048653,-0.307947232157081,0.7329369927015204,0.7219685315176154,-0.4951586257725384,-0.6984903635477514,,,,,,,,,,0.16323072734150018,-0.880210666306018,1.451311805940801,-0.9367416388182528,-0.06546387805496925,-0.6526997116686558,,,,,,
99,99,99,99,5.0,-1.5,-3.14,7.76,-0.259,0.13699999999999998,0.563,0.967,-0.816,-1.44,0.0,0.0,0.0,1.0,90.0,5000000000.0,-1.563416779235104,-3.0983585458311707,8.122364895545639,-0.2556099376708513,0.0387538439310019,0.5959331990411294,0.8808660290579022,-0.6701818076121732,-1.2843129856203002,,,,,,,,,,0.4174210450280396,-0.6115276237201347,1.2414354174987747,-0.869452461575402,-0.2284668167761867,-0.7310620001838748,,,,,,
100,100,100,100,5.05,-2.81,-2.18,8.88,-0.7709999999999999,0.308,0.593,-0.168,0.294,-0.239,0.0,0.0,0.0,1.0,90.0,5050000000.0,-2.3922976939815332,-2.418781897973352,8.550066724349989,-0.7049148647091512,0.2485493564482417,0.5935684392341358,0.20069958857826767,-0.1442079483164277,-0.4584734805164591,,,,,,,,,,0.18064680735511773,-0.3613915608547226,1.6894820189950035,-0.5161864020552192,-0.20657234429671048,-0.71509941197281,,,,,,
101,101,101,101,5.1,-3.41,-2.49,9.77,-1.01,0.343,0.655,-0.5529999999999999,0.301,0.8170000000000001,0.0,0.0,0.0,1.0,90.0,5100000000.0,-3.0689906850027344,-2.4714826315385454,9.238746283837667,-0.9708808831306952,0.3221449111006576,0.6430947606023053,-0.2880579220061141,0.09865884347811184,0.5492020881710881,,,,,,,,,,-0.22722539084670165,-0.2428574985673988,2.1240258785968233,-0.38612457961843016,-0.2080450001470189,-0.6910982183751534,,,,,,
102,102,102,102,5.15,-2.97,-2.67,8.45,-1.14,0.149,0.546,0.0946,0.463,-0.324,0.0,0.0,0.0,1.0,90.0,5150000000.0,-3.003169592418209,-2.6183836758717014,8.79348146348052,-1.1183149287494107,0.18723110102326745,0.5648166197341182,-0.039912715912063135,0.29741173684296673,-0.14066284793867945,,,,,,,,,,0.0215381931195564,-0.23566012146130325,1.8499408958926549,-0.3582154411255981,-0.0658206807397256,-0.672565979919173,,,,,,
103,103,103,103,5.2,-2.89,-2.05,8.24,-1.41,0.0544,0.302,0.293,1.52,-0.32299999999999995,0.0,0.0,0.0,1.0,90.0,5200000000.0,-2.927920679168569,-2.1977850595881963,8.481028813274687,-1.3725990665427328,0.0837296459024262,0.3529329079338785,0.17597383182882298,0.9643497065831078,-0.2847165771538087,,,,,,,,,,0.31176025920862555,-0.13532550018178036,1.8110989142940024,-0.2860769008899654,0.1651683501355424,-0.4795953769171021,,,,,,
104,104,104,104,5.25,-3.91,-3.67,7.87,-1.46,0.0721,0.123,-0.6629999999999999,0.451,-0.413,0.0,0.0,0.0,1.0,90.0,5250000000.0,-3.5809271537893133,-3.287210342608044,8.136089476614247,-1.4487931725854175,0.07466787184276343,0.16756017631558448,-0.3680821503854675,0.6843106914912694,-0.3860656552826191,,,,,,,,,,0.08375291475341519,0.09417054661610888,1.4919923092475724,-0.09586309019944897,0.282678420877726,-0.4641711752154663,,,,,,
105,105,105,105,5.3,-3.68,-3.39,7.77,-1.58,-0.0617,0.0147,-0.405,1.3,-0.194,0.0,0.0,0.0,1.0,90.0,5300000000.0,-3.6468029406031865,-3.3632738011452203,7.9294238637880445,-1.5631762281504684,-0.031589422390441574,0.044323754525123014,-0.3920225608209921,1.0201772823836508,-0.2343260308437975,,,,,,,,,,0.13962977572391438,0.14814102376041266,1.4264545475365031,-0.032281379896481624,0.4242808007524209,-0.2939357781499934,,,,,,
106,106,106,106,5.35,-3.52,-4.12,6.26,-1.75,-0.0745,0.0422,-0.259,1.17,-1.33,0.0,0.0,0.0,1.0,90.0,5350000000.0,-3.5624888280087976,-3.923243995258411,6.986997318808116,-1.7260447869584232,-0.06502517212185464,0.04261157528592946,-0.3057603718325198,1.101907522282226,-1.0999527760712389,,,,,,,,,,0.4534845353236066,0.2041383700448544,0.8852036720755831,0.13629648833726404,0.4148673979051207,-0.25851614290699976,,,,,,
107,107,107,107,5.4,-4.83,-3.16,6.35,-1.76,-0.11,0.066,-1.6,2.77,-0.77,0.0,0.0,0.0,1.0,90.0,5400000000.0,-4.4052851910412905,-3.358450671860554,6.627398197500397,-1.7556461326764463,-0.10006937530108452,0.061467406816187925,-1.1450461859859673,2.011873901470669,-0.8392767346637926,,,,,,,,,,0.41676455136100143,0.19777758852273825,0.9125678677774356,0.7326673797883932,0.5761627621980263,-0.07594630291075366,,,,,,
108,108,108,108,5.45,-4.39,-6.36,6.0,-1.52,-0.556,0.0593,-1.25,0.127,-0.6409999999999999,0.0,0.0,0.0,1.0,90.0,5450000000.0,-4.39512163824318,-5.579569078244723,6.2732180461991645,-1.5502153743516278,-0.4553286661670438,0.059720037053054426,-1.21310641509927,0.9836503957701304,-0.6826300805332143,,,,,,,,,,0.03471572848967596,0.10251226423090637,0.31570571802600744,0.4712870079634984,0.5952212419904218,0.002518748412884639,,,,,,
109,109,109,109,5.5,-2.5,-7.31,5.84,-1.4,-0.583,-0.353,0.434,-0.334,-0.404,0.0,0.0,0.0,1.0,90.0,5500000000.0,-3.1350130446084137,-6.860071663091617,6.028656968853152,-1.4192611324351303,-0.5548096555065988,-0.2730163239136781,-0.14499431218109926,0.2648547764677441,-0.4625010687097886,,,,,,,,,,0.20485254949285966,0.2213549288015356,-0.014770602585713681,-0.2294527399364716,0.5542755809177499,0.24838974416050644,,,,,,
110,110,110,110,5.55,-0.97,-9.84,6.57,-1.06,-0.4920000000000001,-0.45,1.65,-2.44,0.688,0.0,0.0,0.0,1.0,90.0,5550000000.0,-1.69544766171326,-9.065190753177113,6.334257173380978,-1.1060656990297757,-0.5058686370311148,-0.41570118819745866,1.0190198179304997,-1.21067911644489,0.4464412852577182,,,,,,,,,,0.009158821388766536,0.3050721078228061,-0.20192593860027652,-1.2165272959910438,0.17518475858072258,0.39617471678357546,,,,,,
111,111,111,111,5.6,-2.3,-9.39,4.8,-0.813,-0.0929,-0.574,0.0168,-1.65,-0.77,0.0,0.0,0.0,1.0,90.0,5600000000.0,-2.0974279469453254,-9.305546798766002,5.468135191498443,-0.8505779537655327,-0.1840851488138151,-0.5433222583166568,0.3691024127193627,-1.4503344244846648,-0.5145964708688232,,,,,,,,,,0.1387545137918504,0.527722318477509,-0.6561703075630838,-0.7878844455010813,0.09342520342964852,0.2757083502960494,,,,,,
112,112,112,112,5.65,-4.5,-10.9,6.54,-0.578,-0.0996,-0.0463,-2.36,-2.9,1.26,0.0,0.0,0.0,1.0,90.0,5650000000.0,-3.694951625524332,-10.485426907800829,6.073226548233506,-0.6129509292303723,-0.1182546648843076,-0.14262113370978974,-1.4006601260551763,-2.2411461176441017,0.8874064442233299,,,,,,,,,,-0.9775551054889025,0.4595251654324896,-0.4986488929493314,-0.3421442733560639,-0.13219022899325744,0.1117440136946941,,,,,,
113,113,113,113,5.7,-2.87,-7.14,4.93,-0.5429999999999999,-0.26,0.434,-0.6829999999999999,0.96,-0.147,0.0,0.0,0.0,1.0,90.0,5700000000.0,-3.146422836719076,-8.009842322702452,5.427849793507134,-0.5519693436748259,-0.2287020482202724,0.3222528789251395,-0.935273411442772,-0.4948788125527388,0.0701835534848465,,,,,,,,,,-0.12630338266148172,-0.08764681233804708,-0.38385654211697945,0.08412937768207887,-0.1818907105081344,0.2387320533181464,,,,,,
114,114,114,114,5.75,-1.81,-13.3,6.75,0.29,-0.462,0.158,0.35,-5.1,1.76,0.0,0.0,0.0,1.0,90.0,5750000000.0,-2.2578054839329025,-11.924509451622779,6.174232811571676,0.18203966839116847,-0.4104868765789336,0.18983162518625665,-0.10180201002552558,-3.0070329465567798,1.4052068234151884,,,,,,,,,,-0.993276703820172,-0.11772049201144424,-0.7219604517581929,-1.116812899102106,-0.5165910189130629,0.2843926880456388,,,,,,
115,115,115,115,5.8,-0.153,-8.75,4.3,0.625,0.56,0.177,2.13,-0.762,-0.919,0.0,0.0,0.0,1.0,90.0,5800000000.0,-0.8582734284088267,-9.575402277371918,5.116187066674125,0.5682020400422956,0.3457125670751173,0.17948672384301095,1.3454723492124634,-1.7823379550883969,-0.431010510585274,,,,,,,,,,0.4375330930098663,-0.0866280244834518,-0.7497603822577497,-0.9514902417690804,-0.9621025703477676,0.2578588056284156,,,,,,
116,116,116,116,5.85,-0.421,-8.76,5.61,0.524,-0.544,0.364,1.91,-0.915,0.21,0.0,0.0,0.0,1.0,90.0,5850000000.0,-0.5675205875463443,-8.972012421018606,5.3949554587811255,0.5296677343005223,-0.3475478830911509,0.32824198233868906,1.7115560341417408,-1.3091937028566083,0.07541369054179159,,,,,,,,,,0.4227884164493788,-0.5761164537194675,-0.6217036084014982,-1.1800281911663035,-0.6125296749982396,0.4781747948989909,,,,,,
117,117,117,117,5.9,-1.2,-9.02,5.7,1.14,-0.133,0.58,1.17,-1.46,-0.0707,0.0,0.0,0.0,1.0,90.0,5900000000.0,-0.9880702699168168,-9.007523117431377,5.5671597377198525,1.061740998824239,-0.1803730429609917,0.5312101849151578,1.3603688855043543,-1.3914605425462871,-0.04002202719876506,,,,,,,,,,0.24199117273211784,-0.7468304860737917,-0.5399927212671297,-0.9780127768682076,-0.7958637252180509,0.32452529992822404,,,,,,
118,118,118,118,5.95,-2.53,-8.46,7.67,1.2,0.901,0.334,0.107,-1.31,1.5,0.0,0.0,0.0,1.0,90.0,5950000000.0,-2.01333367697071,-8.602361181952674,6.754259592717503,1.1822719773339638,0.6622284682014249,0.3722186202000297,0.5475868607675617,-1.3470227137963688,1.1766576058813556,,,,,,,,,,-0.2833878772987952,-0.2292002985404857,0.3279455002123161,-0.6991143658021353,-1.1009071021372883,0.15776653307425945,,,,,,
119,119,119,119,6.0,-3.43,-5.33,5.67,1.29,-0.0421,0.454,-0.43,1.39,-0.816,0.0,0.0,0.0,1.0,90.0,6000000000.0,-2.9553067176766223,-6.180844589977141,6.142171127837184,1.2761866939045978,0.11341857885541184,0.438151058588777,-0.08635662031358815,0.14605917306548094,-0.3976224131018209,,,,,,,,,,0.14987527544668613,-0.6910925614603469,0.2234642045469904,0.051114992977709724,-0.4011630287620061,0.09718196955483377,,,,,,
120,120,120,120,6.05,-5.4,-7.28,7.21,1.13,-0.506,0.534,-2.39,-1.03,0.281,0.0,0.0,0.0,1.0,90.0,6050000000.0,-4.580837803314986,-6.994209423666242,6.7449841523631475,1.1487445772293423,-0.369229854143792,0.5154248021056572,-1.580218514038001,-0.4954965607582717,0.13851670684352735,,,,,,,,,,-0.8040602016036437,-0.7866489602670605,0.23183320056623055,0.31492589390727505,0.01323519172475447,-0.0942363295309257,,,,,,
121,121,121,121,6.1,-4.05,-6.17,10.5,1.31,-0.14,0.561,-0.945,-0.4370000000000001,3.14,0.0,0.0,0.0,1.0,90.0,6100000000.0,-4.227872049593302,-6.384302248871998,8.864773604027464,1.2893232023540049,-0.19061488110375752,0.5521676815126512,-1.16829334013758,-0.4635859208806027,2.509809879897066,,,,,,,,,,-1.3726666190104604,-0.8270924000182921,1.4869682992236426,-0.2745170096205121,-0.17778339959005435,-0.00037528033685577117,,,,,,
122,122,122,122,6.15,-3.21,-7.13,8.94,1.12,-0.532,0.498,-0.0717,-1.98,1.2,0.0,0.0,0.0,1.0,90.0,6150000000.0,-3.5510662747234365,-6.9361116646341845,8.907240330571536,1.1417112315083588,-0.4566207865348035,0.5084974992957476,-0.4571767911630121,-1.290809759182926,1.4750071836260268,,,,,,,,,,-1.237143143281873,-0.9077995100725964,1.1929757065193878,-0.7805356222623417,-0.061797148454045873,-0.2437492304114862,,,,,,
123,123,123,123,6.2,-2.18,-7.66,3.02,1.04,-2.13,0.578,0.631,-2.97,-5.12,0.0,0.0,0.0,1.0,90.0,6200000000.0,-2.6394138107147977,-7.471782120001633,5.5837630141059025,1.053041745075802,-1.7605111782696945,0.5645306717348354,0.2484817998782446,-2.2068301401401604,-3.735314902280937,,,,,,,,,,0.012451988804818851,-1.5758903007157228,-1.2150468148561844,-0.7390940930772939,0.7143315000562585,-0.5914614875622589,,,,,,
124,124,124,124,6.25,0.6609999999999999,-3.02,7.13,1.21,-0.909,0.552,2.85,1.17,-1.47,0.0,0.0,0.0,1.0,90.0,6250000000.0,-0.4448951379649997,-4.1775051551756714,6.456648037247666,1.1898742837424936,-1.0970171025271926,0.5544283881292442,1.935508802330116,-0.3647249014391893,-1.9456246117323281,,,,,,,,,,0.8973560015031051,-1.5997210678016534,0.09535633744093763,-1.1699312339880197,0.20815074713772708,-0.05517566691704399,,,,,,
125,125,125,125,6.3,-0.417,-2.51,8.31,1.37,0.385,0.329,1.57,1.09,-0.593,0.0,0.0,0.0,1.0,90.0,6300000000.0,-0.4263470364770611,-2.943566997100921,7.502906425966658,1.3469036397890917,0.05776461116536403,0.37268721070524496,1.6984844550654283,0.42884668674912,-0.8769965053715074,,,,,,,,,,0.9234348653817144,-1.0432307759345258,1.1654571217737162,-0.9517221853102024,-0.31869780728191377,-0.057360874311294725,,,,,,
126,126,126,126,6.35,-2.8,-4.85,6.66,1.43,0.221,0.736,-0.517,-1.96,-2.43,0.0,0.0,0.0,1.0,90.0,6350000000.0,-2.0046417365090883,-4.35430944047944,7.027067029687446,1.4193450413995976,0.18495696536216644,0.6655912845453704,0.2617917311673445,-0.8743006258744032,-2.103932075037224,,,,,,,,,,0.3667820878838837,-0.9708118813430356,0.5405393090768931,-0.3928747636189861,-0.4518495540958501,-0.65615235886888,,,,,,
127,127,127,127,6.4,-0.362,-4.36,6.69,0.972,0.172,0.7659999999999999,2.11,-2.14,-2.54,0.0,0.0,0.0,1.0,90.0,6400000000.0,-0.9124126462550796,-4.358520499869438,6.836785272770332,1.0293601856428736,0.17486095500535512,0.7465411288543324,1.4603138836755971,-1.5647563413864076,-2.4484433269276478,,,,,,,,,,0.7281367019719931,-0.9511885378835996,0.34391640115927746,-0.9452729831790136,-0.6609280385721129,-0.7642897855662422,,,,,,
128,128,128,128,6.45,-2.78,-2.41,8.98,0.111,0.7609999999999999,0.6890000000000001,-0.0176,-0.613,-0.259,0.0,0.0,0.0,1.0,90.0,6450000000.0,-2.1542130617403936,-2.9166336970272466,8.04667710423347,0.22875543289362965,0.6315781063541509,0.7001512730266239,0.5019193891910726,-1.0455607239719482,-0.7186946268779639,,,,,,,,,,0.2237393108569075,-0.4533473261058765,1.3495972542241368,-0.5770021168046064,-0.6807140140048391,-0.8345759364059062,,,,,,
129,129,129,129,6.5,-1.76,-1.47,7.25,-0.364,0.364,0.682,1.32,0.282,-1.89,0.0,0.0,0.0,1.0,90.0,6500000000.0,-1.8920920090252893,-1.8461383714410904,7.596935268123939,-0.28799476929674184,0.4230823243563041,0.6855176366734872,1.0324266213271338,-0.3213588827261007,-1.6440731922627418,,,,,,,,,,0.777459409108323,-0.4989760878522653,1.2365678044840194,-0.5149814248350821,-0.4394982969420755,-0.8306976337504807,,,,,,
130,130,130,130,6.55,-0.594,-1.15,6.44,-1.22,0.335,0.468,2.67,0.797,-2.6,0.0,0.0,0.0,1.0,90.0,6550000000.0,-1.0289617034420129,-1.3310024981505872,6.943819767193194,-1.1004949767546963,0.3544489406314901,0.5101541342685804,2.09435681969041,0.2887205943613895,-2.399293923600694,,,,,,,,,,1.5209490595585868,-0.2932836234066493,1.0211992614823306,-0.6991045149191781,-0.3203732759414652,-0.6934104410626378,,,,,,
131,131,131,131,6.6,-1.34,-2.51,5.18,-1.89,0.8759999999999999,0.138,2.23,0.0434,-3.59,0.0,0.0,0.0,1.0,90.0,6600000000.0,-1.2357780178112792,-2.2034495674764254,5.948104421977769,-1.7887668262349288,0.7608394027233203,0.2101221347931456,2.182318437039916,0.15489498348230266,-3.3399997720400605,,,,,,,,,,1.8744125348842997,0.3505936289760681,0.4967633124044259,-0.4865672586901135,-0.4139640812176945,-0.7565114414870383,,,,,,
132,132,132,132,6.65,-2.11,-3.1,6.43,-2.33,1.26,-0.234,1.88,0.358,-1.84,0.0,0.0,0.0,1.0,90.0,6650000000.0,-1.8170676184782817,-2.866888395171177,6.220145031300922,-2.2606010777951844,1.1497833100806845,-0.14793071970622512,1.9862716081757672,0.26569144733946826,-2.1549393641869767,,,,,,,,,,1.6160187818128016,0.9652095504105204,0.7588995397317781,-0.4238981916818057,-0.4698966350965247,-0.5755997552236862,,,,,,
133,133,133,133,6.7,-3.18,-0.7020000000000001,6.81,-2.6,1.42,-0.691,1.27,3.79,-0.6809999999999999,0.0,0.0,0.0,1.0,90.0,6700000000.0,-2.723311764480459,-1.2648913349882729,6.553131167738045,-2.5564809716699104,1.3603350265024283,-0.5857551073050508,1.5217852861120025,2.188248102682985,-0.9904677007360244,,,,,,,,,,1.7038604150163048,1.3354554535294902,1.4740452930942831,0.11158100852729892,-0.11063842391386994,-0.14076116045003198,,,,,,
134,134,134,134,6.75,-4.75,-9.42,3.91,-2.11,1.5,-1.29,-0.0983,-3.81,-2.65,0.0,0.0,0.0,1.0,90.0,6750000000.0,-4.0709019194660385,-7.299595198038382,5.061025244851097,-2.1672492975807454,1.469161407926216,-1.1535198327535223,0.4711957771654853,-1.0838751103430786,-2.3015653534477893,,,,,,,,,,0.7977747251602284,2.07899747422743,-0.35501059968170073,0.05709063331889401,-0.1734405386545359,-0.4759091357033364,,,,,,
135,135,135,135,6.8,-1.06,-4.76,3.21,-1.57,1.64,-1.3,3.49,1.68,-2.63,0.0,0.0,0.0,1.0,90.0,6800000000.0,-2.068886123302295,-5.420318776704248,4.016080598237815,-1.6465814894091624,1.6022781354819178,-1.2716126300670243,2.428823612166559,0.4238550912563957,-2.5610420865324013,,,,,,,,,,2.1003919573771683,1.8214093550639128,-0.3983838722481602,-0.18394240905357984,-0.3636163479216537,0.09742038519451966,,,,,,
136,136,136,136,6.85,-4.54,-4.42,7.58,-1.5,0.0593,-2.29,-0.264,2.87,2.6,0.0,0.0,0.0,1.0,90.0,6850000000.0,-3.7119847619174915,-4.680092334955928,6.0279918388959945,-1.5187952034796524,0.39999582582841775,-2.092640146416868,0.6825870067593225,1.7582592544712712,1.5163896418588705,,,,,,,,,,0.7124751264825931,1.705687557366039,0.7827779569198265,-0.1769536697779574,1.0823846677774882,1.0523757365820468,,,,,,
137,137,137,137,6.9,-5.6,-20.8,8.29,-0.861,-0.294,-1.17,-1.93,-12.9,3.87,0.0,0.0,0.0,1.0,90.0,6900000000.0,-4.9673680883689375,-16.60867201917533,7.3049454266261105,-0.9453448577987116,-0.14076290938507985,-1.3488043194300159,-1.0116179000276029,-6.238013783482952,3.375836842706728,,,,,,,,,,-2.7766598356014867,1.7182137630107186,-0.9370911437483386,-1.724498245954715,0.07437503665267642,0.06319478987892578,,,,,,
138,138,138,138,6.95,-3.29,-8.13,6.68,-0.523,0.612,-0.732,0.212,0.0372,2.54,0.0,0.0,0.0,1.0,90.0,6950000000.0,-3.852048655432084,-10.334534454598447,6.9521498217959525,-0.5771545717446398,0.4457868904788487,-0.8515344613610771,-0.218128733054588,-2.8148021169335857,2.7154919310422536,,,,,,,,,,-1.172623397952401,1.1619009184266749,0.10364812411795787,-0.9362444363716758,-0.22578768615853814,0.2674162787525181,,,,,,
139,139,139,139,7.0,-1.79,-9.63,3.76,0.188,0.404,-0.17600000000000002,1.53,-1.3,-0.223,0.0,0.0,0.0,1.0,90.0,7000000000.0,-2.480946544181277,-9.81318566096858,5.150110678645715,0.08988913518416786,0.41322672569983454,-0.3069161570167793,0.9154941015392704,-1.988457609600996,0.3939645585285319,,,,,,,,,,0.018487945378903286,0.4921801604515722,-0.7234980348946173,-0.7221530489690343,-0.6221580193756923,0.29673813736986304,,,,,,
140,140,140,140,7.05,0.299,-9.51,4.53,0.799,-0.0935,0.3,3.66,-1.26,0.431,0.0,0.0,0.0,1.0,90.0,7050000000.0,-0.6324981632602573,-9.588831289215412,4.80004461127204,0.7080752872068728,0.018387311794314187,0.18238183330837585,2.695245584117409,-1.5910743958325335,0.4232240493557716,,,,,,,,,,0.6226421781111112,-0.3144218063266477,-0.878918304185527,-1.2993799829076216,-0.9386785754568504,0.5998014648942545,,,,,,
141,141,141,141,7.1,-5.31,-8.32,5.26,1.89,-0.11,0.236,-1.86,-0.374,0.66,0.0,0.0,0.0,1.0,90.0,7100000000.0,-3.7426732940651473,-8.649907828213635,5.059699724860068,1.7384493683880833,-0.08165156086318938,0.22560899259298856,-0.2587305244073295,-0.9271443098687526,0.6102866390933457,,,,,,,,,,-0.3283867210295059,-0.5623939209273592,-0.6375287628194175,0.06316010253512276,-0.4300845262479051,0.4401182965716682,,,,,,
142,142,142,142,7.15,-6.79,-8.19,9.56,1.87,1.13,0.616,-3.02,-0.787,4.35,0.0,0.0,0.0,1.0,90.0,7150000000.0,-5.768908678750867,-8.309580044995629,7.600218947453049,1.8531321110894936,0.8624624220073465,0.5403436190676715,-2.0493527482850986,-0.8506937455607818,3.5648112389897766,,,,,,,,,,-1.707312880798476,-0.20781533047526413,0.9948840246271098,0.5426673775695248,-0.9860679091384008,0.16734704157185815,,,,,,
143,143,143,143,7.2,-7.65,-14.1,9.6,1.06,0.307,0.52,-3.54,-7.3,3.88,0.0,0.0,0.0,1.0,90.0,7200000000.0,-7.019688265484161,-12.594436701316507,8.72913977268219,1.1616981896027287,0.4296483622564927,0.5239425050953852,-3.016004525884864,-4.368875249097696,3.8138231872359785,,,,,,,,,,-3.3065496721466903,0.14762205760673427,0.4907700099294801,-0.15211775341558428,-0.857054168636307,-0.5530754649689527,,,,,,
144,144,144,144,7.25,-7.15,-6.06,4.33,1.55,-0.932,0.865,-2.66,0.29,-1.63,0.0,0.0,0.0,1.0,90.0,7250000000.0,-7.106335504043689,-7.759014881633179,6.245728083721027,1.5002105097944047,-0.6313425096944547,0.7989042873800107,-2.785143513514216,-1.8273975198810264,-0.487017109344329,,,,,,,,,,-1.5714302247472742,-0.9600345634677072,-0.4109478491997923,0.9175706517288758,0.16864197673950326,-0.6239675520178191,,,,,,
145,145,145,145,7.3,10.5,0.85,2.89,1.69,-0.841,0.747,14.5,6.48,-4.1,0.0,0.0,0.0,1.0,90.0,7300000000.0,4.600509177245029,-1.38842472089324,4.351345460375379,1.6656645618140324,-0.7947067925804416,0.7570588479766892,8.423890087006537,2.704397117656772,-3.3414195166215386,,,,,,,,,,4.1459216690938,-2.283628704604412,-0.13323293278832318,-2.3350290377977645,-0.6655677965460322,0.9032220502042464,,,,,,
146,146,146,146,7.35,-1.65,-5.63,15.1,3.07,0.29,-0.269,2.03,-0.833,7.37,0.0,0.0,0.0,1.0,90.0,7350000000.0,0.44440640270353615,-4.527150668618901,10.419198765350053,2.8899310229999813,0.05049233844052658,-0.07015346721995086,4.277593639542741,0.7747004547829199,5.121034654711143,,,,,,,,,,-0.0702419361272877,-1.2694104785857787,2.8399685432259285,-2.5307021190278274,-0.6479371938130829,1.0839690976512335,,,,,,
147,147,147,147,7.4,-11.6,-7.8,12.3,2.74,0.6779999999999999,0.183,-7.95,-4.22,3.91,0.0,0.0,0.0,1.0,90.0,7400000000.0,-7.564187973348894,-6.949028571271214,11.480952745620208,2.75922470098524,0.5394437448461535,0.1339397639008634,-3.6517305060182337,-1.9499742318618567,4.164268407936777,,,,,,,,,,-3.317021603730247,-0.4143107007740806,2.6395952916514056,0.15348309697528315,-0.08715393531618514,-0.644749970583515,,,,,,
148,148,148,148,7.45,-1.44,-4.7,6.79,1.16,-0.8809999999999999,1.09,2.07,-2.13,-2.0,0.0,0.0,0.0,1.0,90.0,7450000000.0,-3.492079003445732,-5.2847684137768685,8.832806204363132,1.3650582888776237,-0.5673602517215834,0.9047189792642896,0.058685244748077015,-2.0481807189673806,-0.7057527296296584,,,,,,,,,,-0.8797377372827524,-1.3516040126320679,1.0016636850662737,-0.8468954537021353,-0.07101085654503307,-0.9718345685217102,,,,,,
149,149,149,149,7.5,2.32,-2.01,3.23,0.237,0.315,0.59,5.71,0.0893,-5.73,0.0,0.0,0.0,1.0,90.0,7500000000.0,0.37250175338326,-2.8614705422636137,5.669898261172693,0.3816436763849953,0.12017127921913152,0.6509913892198782,3.723438005221369,-0.8821568696322166,-4.675111115849246,,,,,,,,,,2.1239973897275384,-0.938088341379146,-0.11520617149047888,-1.2584285380437232,-0.5849418776784463,-0.8516617171760462,,,,,,
150,150,150,150,7.55,0.654,-0.247,5.03,-0.6559999999999999,1.23,0.108,4.47,1.83,-3.76,0.0,0.0,0.0,1.0,90.0,7550000000.0,0.5596761978453615,-0.9267868956796548,5.308661666052505,-0.522949627813319,0.984945336263372,0.21322978764077927,4.2075668252137515,0.5973604033537254,-3.9521363475679214,,,,,,,,,,2.852256940880388,-0.09969961795203047,0.4039267505616034,-0.9305678216843872,-0.7862088234656147,-0.5246466566792082,,,,,,
151,151,151,151,7.6,-1.94,-0.429,5.36,-1.79,1.15,-0.371,2.37,2.16,-3.06,0.0,0.0,0.0,1.0,90.0,7600000000.0,-1.1024142277767124,-0.5584292616350366,5.337643365785898,-1.6275342307212948,1.1135552428643742,-0.25777835424924583,3.015945271496743,1.4498009059595611,-3.2473125369567697,,,,,,,,,,2.585977354399281,0.6342830542381607,0.6545852555122446,-0.29568997166623195,-0.3237916594247139,-0.384762134608554,,,,,,
152,152,152,152,7.65,-4.68,-1.3,7.69,-2.59,1.27,-0.6679999999999999,0.0396,2.28,-0.13,0.0,0.0,0.0,1.0,90.0,7650000000.0,-3.48123058909018,-1.107184606749217,6.6656007176019,-2.466589117652617,1.2354563488449006,-0.5885005012727605,1.0858511342233357,1.9026854170430405,-0.7845096598050105,,,,,,,,,,1.4040861027582747,1.2991172610489516,1.4738005694941376,0.2489053525880668,0.03955287572804399,-0.2325899225380436,,,,,,
153,153,153,153,7.7,-3.11,-4.15,7.02,-2.7,0.8190000000000001,-0.7090000000000001,1.91,0.562,0.0453,0.0,0.0,0.0,1.0,90.0,7700000000.0,-3.2343910309935624,-3.358839485452052,6.865666935843271,-2.670071262391709,0.9109552537737624,-0.6856476220455472,1.6202934399500581,1.1713238731929454,-0.1289264967877588,,,,,,,,,,1.0550956206796878,1.3508966608457749,1.2193204778319129,-0.2880778268050647,0.07195399582223304,-0.08039895356241498,,,,,,
154,154,154,154,7.75,-2.07,-7.12,5.93,-2.62,1.1,-1.33,3.02,-1.3,-0.11,0.0,0.0,0.0,1.0,90.0,7750000000.0,-2.4601614517314423,-6.142062850839454,6.337462170474348,-2.6264202168019213,1.0582581725972888,-1.2051268528338432,2.5279722009859267,-0.17681578276380885,-0.11397379904335962,,,,,,,,,,1.0387276858370995,1.842452114790135,0.5621873105403129,-0.9479002099954228,-0.0794566173289439,0.07222000712818641,,,,,,
155,155,155,155,7.8,-4.01,-11.4,5.48,-2.3,0.914,-1.44,0.888,-4.5,0.508,0.0,0.0,0.0,1.0,90.0,7800000000.0,-3.4906837793884944,-10.032886668177893,5.853405831568392,-2.3418547275380317,0.9458527693546168,-1.3944824718952886,1.4644864762581082,-2.5351696427892243,0.3774106486891061,,,,,,,,,,0.003777924833268112,2.160539646748836,-0.37216529447890706,-1.0586939274467602,-0.1531619709681274,-0.02552578680846508,,,,,,
156,156,156,156,7.85,-5.28,-11.5,6.49,-1.33,0.713,-1.25,-0.698,-3.83,2.41,0.0,0.0,0.0,1.0,90.0,7850000000.0,-4.680440133389143,-11.118536752306836,6.2127771825309415,-1.4597436740244314,0.7644148346264527,-1.2780001852900174,0.062161774175121476,-3.2415165939330755,1.9832384400501493,,,,,,,,,,-1.00015704420387,1.9213476818883093,-0.3528215465681772,-0.8093980294749393,-0.15094031511507452,0.10253755206447032,,,,,,
157,157,157,157,7.9,-4.7,-13.5,7.57,-0.422,0.426,-0.617,-0.423,-5.43,4.02,0.0,0.0,0.0,1.0,90.0,7900000000.0,-4.6934457975970085,-12.880797185178125,6.978959561688041,-0.555063202140313,0.5007233660067165,-0.7450994540971372,-0.2524549203496293,-4.435362986803375,3.592362361954493,,,,,,,,,,-1.9086239230863629,1.3448419037149235,-0.28966079508222464,-1.1580322420275415,-0.5404289984253876,0.12672181790749884,,,,,,
158,158,158,158,7.95,-3.69,-11.3,8.68,0.617,0.0464,0.0398,0.472,-3.14,5.14,0.0,0.0,0.0,1.0,90.0,7950000000.0,-4.0262323717259045,-11.711022258604011,7.939234663367253,0.466713844935228,0.14671643968268375,-0.1123107019074936,0.21733808831020626,-3.7287254948175166,4.815058529865153,,,,,,,,,,-2.0422856829595903,0.37048766022753343,0.3682301347352878,-1.3832944583729274,-0.7452654245904661,0.3263995383651688,,,,,,
159,159,159,159,8.0,-0.117,-8.16,6.81,1.17,0.608,0.35600000000000004,4.21,-0.266,2.92,0.0,0.0,0.0,1.0,90.0,8000000000.0,-1.4268966835185892,-9.083299031069668,7.301756701546829,1.079822093320666,0.5061467055173512,0.2652430691928425,2.8064911327295743,-1.8397631882454848,3.3178857730895044,,,,,,,,,,-0.34508494406604195,-0.22228274451088115,0.5954155912596554,-1.6707508197587098,-1.2915017701747162,0.5139466156999569,,,,,,
160,160,160,160,8.05,-4.34,-12.8,6.61,1.43,0.638,0.17,0.23,-5.16,2.44,0.0,0.0,0.0,1.0,90.0,8050000000.0,-3.3638840733752176,-11.833622976160724,6.911244827420522,1.3850988890936808,0.6088862672229945,0.18845776694081487,1.135693571294095,-3.6509959620247616,2.624320582588516,,,,,,,,,,-1.275515278181194,0.08663865333507126,-0.16608071734956084,-1.2394969384922554,-1.2821553823814391,0.05039350187311505,,,,,,
161,161,161,161,8.1,-6.59,-10.1,8.27,2.38,0.139,0.765,-1.76,-3.01,3.51,0.0,0.0,0.0,1.0,90.0,8100000000.0,-5.509000520490332,-10.550758540979974,7.678292416421661,2.2524303165903854,0.2427527906775972,0.6532681697806944,-0.7420997143198123,-3.3013242275273496,3.32404310471357,,,,,,,,,,-2.15694565127955,-0.5646306937552718,0.2845593008413669,-0.4487568462893957,-0.9940359294491086,-0.14814770093854093,,,,,,
162,162,162,162,8.15,-3.17,-4.3,6.42,2.55,-0.585,0.378,1.88,1.99,0.8390000000000001,0.0,0.0,0.0,1.0,90.0,8150000000.0,-3.953747020783737,-5.925256078682025,6.967958575516205,2.5118445080280734,-0.40222881302628416,0.43134597774837546,0.9582740040296244,-0.414837251243966,1.3607586219745549,,,,,,,,,,-0.46638691433849105,-1.2700762459050836,0.5188655040377722,-0.4071231236665985,-0.1940124442231932,0.2379692772327636,,,,,,
163,163,163,163,8.2,-5.01,-4.13,5.86,2.54,-2.34,-0.542,-0.463,1.4,-0.845,0.0,0.0,0.0,1.0,90.0,8200000000.0,-4.656073308299807,-4.596783528991043,6.342491543275603,2.536389768739047,-1.9121322031461427,-0.35336903410756226,0.03660922011190515,0.5751803296625918,-0.3818798456961556,,,,,,,,,,-0.2938317944441077,-1.6453687895976936,-0.017768990289464152,-0.1447720453676991,1.5715597521568232,0.4945371673352825,,,,,,
164,164,164,164,8.25,-0.464,-8.11,7.69,3.06,-0.528,-0.181,3.56,-3.51,0.0177,0.0,0.0,0.0,1.0,90.0,8250000000.0,-1.8686703726989349,-7.196530461866822,7.103189886449258,2.9928607712185498,-0.8336219967592629,-0.2144044965001284,2.3214502436918827,-1.6533392736560613,-0.06619562096503108,,,,,,,,,,-0.12663163451268528,-1.3149953010741269,0.0722142290571585,-1.5751496182357243,0.19626838635382066,0.21787565238661624,,,,,,
165,165,165,165,8.3,-0.713,-3.15,7.15,2.33,0.764,-0.17,3.29,0.382,-1.08,0.0,0.0,0.0,1.0,90.0,8300000000.0,-1.1002393974725204,-4.202136001989424,7.129615284136299,2.414994315275618,0.4112385884017116,-0.1786054337366346,2.9495333328577407,-0.5430349263039744,-0.8671420816836158,,,,,,,,,,0.8733916316644588,-0.7593182005187651,0.7888037544217881,-1.2624010873558014,-0.4256465345108985,-0.05715169942073265,,,,,,
166,166,166,166,8.35,-0.7040000000000001,-1.76,5.27,1.43,0.214,0.449,3.57,0.939,-3.13,0.0,0.0,0.0,1.0,90.0,8350000000.0,-0.8367709927945051,-2.3949782938150506,6.07982133815909,1.5562994526380591,0.2575510807416984,0.3273723167797333,3.3518922121045005,0.265434627213232,-2.654891368630806,,,,,,,,,,1.7210255370837713,-1.005199830995913,0.4415712198200765,-0.8738880136026779,-0.4480955610975109,-0.3023667983977228,,,,,,
167,167,167,167,8.4,1.64,0.51,2.61,-0.141,0.281,-0.248,5.97,2.86,-5.87,0.0,0.0,0.0,1.0,90.0,8400000000.0,0.8100892041862571,-0.2453216515414817,4.121030432178473,0.07663381155211567,0.2758223745092697,-0.13649490362837158,5.0496771214176706,1.6808041111698049,-5.1949570180841365,,,,,,,,,,3.5532794215498336,-0.5280646988165697,-0.1942385561065376,-0.8764116076175086,-0.11389412746586003,-0.13243843675177128,,,,,,
168,168,168,168,8.45,-2.21,0.34,3.53,-1.59,0.8,-0.884,2.32,3.09,-4.72,0.0,0.0,0.0,1.0,90.0,8450000000.0,-1.1980354095646175,0.1878108749906543,3.7873806721699617,-1.3762982735737899,0.6842594656012091,-0.739136193752242,3.279541785433612,2.449538959036209,-4.819721615242462,,,,,,,,,,3.3270913440976835,0.565010235551436,-0.06941226258934606,0.05303170263255634,0.32398820815414536,-0.08348209552674689,,,,,,
169,169,169,169,8.5,-2.04,-1.12,6.98,-2.47,1.23,-1.11,2.54,4.15,-4.16,0.0,0.0,0.0,1.0,90.0,8500000000.0,-1.7578763962666706,-0.7799568910290015,5.589684867238705,-2.329761673038725,1.1094982935141755,-1.03812793489904,2.7999652552749783,3.377162877698116,-4.298514759598438,,,,,,,,,,2.9125321769277006,1.2101534183609757,0.9265725455832378,0.04583477824444,0.4267412651522161,-0.1862848626725184,,,,,,
170,170,170,170,8.55,-1.48,-1.72,5.98,-2.58,1.33,-1.69,3.47,3.33,-0.8190000000000001,0.0,0.0,0.0,1.0,90.0,8550000000.0,-1.5731102030033042,-1.4755799824860172,5.810026398474804,-2.547913479103516,1.2813123631696657,-1.5636695759450223,3.2344679993198966,3.3514348658882267,-1.5495574984197331,,,,,,,,,,2.6223595076711668,1.7382955052384537,1.2250920020243143,-0.3258446170726367,0.3744086191662776,0.4733521157820199,,,,,,
171,171,171,171,8.6,-5.92,-8.68,7.56,-2.39,0.395,-1.85,-1.16,-2.39,1.73,0.0,0.0,0.0,1.0,90.0,8600000000.0,-4.463454112534773,-6.806783346110551,6.797925147888432,-2.4102483232310488,0.5907013695047646,-1.7945102091251257,0.3847526325868165,0.21940656335396724,1.0414254658348456,,,,,,,,,,0.07399808898511233,2.0401081059169353,0.7118890479015022,-0.3810296750835993,0.7901581565598969,0.3784738870780289,,,,,,
172,172,172,172,8.65,-7.59,-12.7,8.16,-2.37,-0.682,-1.14,-3.44,-5.42,3.1,0.0,0.0,0.0,1.0,90.0,8650000000.0,-6.5423642225570235,-11.167708170553244,7.566846424810928,-2.3751606843668442,-0.400982366109192,-1.266841721511387,-2.0955149671709186,-2.8569639424046587,2.667782458546396,,,,,,,,,,-2.115293416107473,1.6802581415739697,0.06742925191873074,-0.4722705575658974,0.9689710271635068,0.028209171106950526,,,,,,
173,173,173,173,8.7,-6.51,-9.3,6.74,-1.59,-0.466,-0.0164,-2.75,-1.37,2.37,0.0,0.0,0.0,1.0,90.0,8700000000.0,-6.5208446822111865,-9.785621809917547,7.100073211125316,-1.690676143704834,-0.4516438357388214,-0.25873112464628045,-2.519934048116553,-2.045805554089433,2.4325221926274216,,,,,,,,,,-1.9175721090604616,0.7949609384056103,0.0762080033629561,0.12372961130365533,0.4864890000500643,-0.03499037831207935,,,,,,
174,174,174,174,8.75,-1.11,-12.3,5.54,-0.616,-0.573,0.318,2.63,-4.15,1.56,0.0,0.0,0.0,1.0,90.0,8750000000.0,-2.9230535287251427,-11.646238192754225,6.219377376056527,-0.7537988206460754,-0.5462040779682438,0.2062315657668028,0.8196844527911242,-3.1936713560792125,1.7431943570183883,,,,,,,,,,-0.9691238957971522,0.09475521934902054,-0.7087320669349285,-1.294305632225868,-0.4258480818459937,0.16850664845307528,,,,,,
175,175,175,175,8.8,-1.35,-10.1,6.84,0.7509999999999999,-0.621,0.503,2.43,-2.02,2.8,0.0,0.0,0.0,1.0,90.0,8800000000.0,-1.8770952114594104,-10.50203673708378,6.5697326524481685,0.5580492953156347,-0.6044847510243371,0.4454873578513772,1.8639385436106013,-2.553418181820022,2.578113482339516,,,,,,,,,,-0.7198647619476112,-0.5995312076996858,-0.2988518544303768,-1.6048758778829149,-0.6777957364825372,0.4877386356359422,,,,,,
176,176,176,176,8.85,-2.09,-8.79,5.79,1.42,0.217,0.306,1.8,-1.02,1.24,0.0,0.0,0.0,1.0,90.0,8850000000.0,-2.0186602910279734,-9.235145605535882,6.129556312398468,1.3094775565914518,0.035612832633557516,0.33303214547552235,1.8224757800745264,-1.716918381813267,1.5209497662655274,,,,,,,,,,-0.2033958341443511,-0.5215380440480986,-0.19853353326654488,-1.10804192303748,-0.8811233006991289,0.4049501534884561,,,,,,
177,177,177,177,8.9,-5.35,-13.1,10.2,2.21,-0.0819,0.5710000000000001,-1.31,-5.77,5.05,0.0,0.0,0.0,1.0,90.0,8900000000.0,-4.233742210155111,-12.095101834975624,8.427411644669236,2.0945318207952424,-0.05595269083580778,0.5248826664220437,-0.2088655045861878,-3.9279277105754633,4.309042208926687,,,,,,,,,,-2.426820868162185,-0.5803701219858433,0.4093589825175155,-1.2581451111532216,-0.9830788010638991,0.08068739998628162,,,,,,
178,178,178,178,8.95,-2.93,-9.88,5.73,2.17,-0.706,0.923,1.37,-3.34,-0.175,0.0,0.0,0.0,1.0,90.0,8950000000.0,-3.3668550164114537,-10.45594736947434,6.904663154983621,2.160323266322441,-0.5624668970945901,0.8458462697509006,0.8149938883787542,-3.607205363713016,0.7664676681129485,,,,,,,,,,-1.2467040931777906,-1.2119407843372685,-0.4747254898566054,-1.160308205635499,-0.7249462741478483,-0.304678181452938,,,,,,
179,179,179,179,9.0,-2.95,-10.1,9.02,3.32,-0.655,0.8590000000000001,1.26,-4.64,2.06,0.0,0.0,0.0,1.0,90.0,9000000000.0,-3.089678861702924,-10.192549941960877,8.098817822524415,3.1713020382136947,-0.6345682936393584,0.8564508761274454,1.1035705118127497,-4.170608350917638,1.7884104361533155,,,,,,,,,,-1.6894564041318365,-1.5768601047709951,0.061252426516233714,-1.640119621266096,-0.7729776502805928,-0.3246881875121025,,,,,,
180,180,180,180,9.05,-0.618,-0.618,5.59,2.87,-0.526,0.382,3.44,3.53,-2.32,0.0,0.0,0.0,1.0,90.0,9050000000.0,-1.4462045072665506,-3.1074729025100734,6.6825347897304574,2.908633926534018,-0.5499723369910453,0.4739468789881499,2.618693441469003,0.030174786902863463,-1.4573997746731513,,,,,,,,,,0.8918892975288005,-1.8163046568533152,0.4861497280593352,-0.9422810342421865,-0.07596400001241309,-0.04567136856328837,,,,,,
181,181,181,181,9.1,0.0239,-0.8640000000000001,5.78,2.26,0.0977,0.155,4.07,2.15,-2.63,0.0,0.0,0.0,1.0,90.0,9100000000.0,-0.4686992715910074,-1.4473240454376497,6.173034068585648,2.34317015650126,-0.04530867653868576,0.2168107631399808,3.5598337849477515,1.1865673780085528,-2.383801427338692,,,,,,,,,,1.8967598975023023,-1.423692245578248,0.6484187284503671,-0.8863981386110316,-0.17628814444464505,0.037010298920374884,,,,,,
182,182,182,182,9.15,1.24,-2.08,3.03,0.818,0.269,0.0306,5.41,0.11,-5.57,0.0,0.0,0.0,1.0,90.0,9150000000.0,0.667452943990595,-1.915498252276452,4.398721843072655,1.0135627953057174,0.1995993658044974,0.06668697873627233,4.759625591390777,0.5992857112252823,-4.901027188202778,,,,,,,,,,2.982670930919665,-0.8453003913545368,-0.3932613637258791,-1.0618568716237955,-0.3423859600167385,-0.2377140007930896,,,,,,
183,183,183,183,9.2,-0.982,-0.7609999999999999,4.94,-0.813,0.7070000000000001,-0.421,3.38,1.44,-3.56,0.0,0.0,0.0,1.0,90.0,9200000000.0,-0.4293050577983489,-1.0611803738581091,4.704285360065081,-0.5787915978423774,0.5949638973469755,-0.32648801425756224,3.864968956623767,1.0579064461806869,-3.84156147401439,,,,,,,,,,2.7954998517073717,0.09350501238427797,0.0822943784399473,-0.6630552841480378,-0.14253805735498296,-0.2099591769843557,,,,,,
184,184,184,184,9.25,-1.98,0.584,4.4,-2.07,0.795,-0.848,2.63,3.47,-3.76,0.0,0.0,0.0,1.0,90.0,9250000000.0,-1.4603966813525886,0.1562376423423628,4.532509601832558,-1.8787918604678688,0.7508312309877944,-0.7469328379656965,3.0641189528733843,2.3737352253905497,-3.77712460614636,,,,,,,,,,2.980151541942953,0.7731996292467848,0.3567372911003201,-0.0472290385418512,0.3087249888387945,-0.08270993667768088,,,,,,
185,185,185,185,9.3,-2.32,-0.117,4.97,-2.62,1.41,-1.11,2.52,3.92,-2.54,0.0,0.0,0.0,1.0,90.0,9300000000.0,-2.0319660323454816,-0.04595564534601726,4.779482484003982,-2.5249595383195085,1.2644528388273977,-1.0396388966077743,2.7112698235349555,3.2172430419695384,-2.7997461455076813,,,,,,,,,,2.913870271429264,1.4128398716040098,0.7738705082788403,0.2507957371937729,0.2244845425300844,0.13393589599459227,,,,,,
186,186,186,186,9.35,-2.1,-4.38,6.06,-2.89,1.43,-1.66,2.96,0.946,-0.443,0.0,0.0,0.0,1.0,90.0,9350000000.0,-2.0772032695745817,-3.253107840362668,5.502362895678595,-2.843193296248173,1.3934464751419258,-1.5397762143610991,2.8725658712577324,1.9782500744803584,-0.937821446658615,,,,,,,,,,2.1320604761089506,2.0546791036072536,0.7951407309476297,-0.40117237793835375,0.13050339154041027,0.37938507637294666,,,,,,
187,187,187,187,9.4,-4.63,-18.7,6.49,-3.05,-0.158,-2.21,0.16899999999999998,-12.1,1.13,0.0,0.0,0.0,1.0,90.0,9400000000.0,-3.774614758687141,-14.683663501729724,6.059905743853006,-3.023482462301589,0.18456566254017925,-2.080113062892362,1.1193631471306014,-5.701620742225237,0.6958410521632363,,,,,,,,,,-1.1353974058118321,2.7139559524995027,-1.3404163118641603,-2.047564551274405,0.4085268481646623,-0.16178401327816655,,,,,,
188,188,188,188,9.45,-6.36,-10.7,11.6,-1.95,-0.044000000000000004,-1.3,-2.38,-2.88,7.2,0.0,0.0,0.0,1.0,90.0,9450000000.0,-5.493695087323768,-11.735789790096106,9.187411632125816,-2.087645807021391,0.006468224627698777,-1.4511830775547043,-1.1498965988886196,-4.162389572632232,5.8343893003852925,,,,,,,,,,-2.75346615513912,1.9427017250162404,0.9218423987862782,-1.5211251870736513,0.447585935734428,0.2707164306947555,,,,,,
189,189,189,189,9.5,-7.19,-10.7,9.34,-0.006409999999999999,-0.4970000000000001,-0.421,-3.6,-2.43,5.39,0.0,0.0,0.0,1.0,90.0,9500000000.0,-6.621606049267997,-10.969314934038147,9.273551224938489,-0.2732735079971469,-0.3858321828116385,-0.620645791770657,-2.738734450154303,-3.2173483083809917,5.483303690028642,,,,,,,,,,-3.1798121246968947,0.7192434940840928,1.0134929162711983,-0.6314976958392641,0.43008728821245057,0.2022793772657677,,,,,,
190,190,190,190,9.55,-4.2,-10.3,5.53,1.15,-0.257,0.5920000000000001,-0.665,-2.21,1.31,0.0,0.0,0.0,1.0,90.0,9550000000.0,-5.011426115775191,-10.47402831124297,7.1602339246575335,0.9675027532842396,-0.28544666743830155,0.35699359730876845,-1.3939634986349407,-2.667826575759776,2.1862250883862866,,,,,,,,,,-1.8103600669942042,-0.3221628872834165,-0.04570212306693238,-0.33778853948469384,-0.3338643716684577,-0.03380771508937201,,,,,,
191,191,191,191,9.6,-4.1,-9.44,6.17,1.27,-0.35200000000000004,0.959,-0.342,-1.75,1.39,0.0,0.0,0.0,1.0,90.0,9600000000.0,-4.405398524749702,-9.708856763619368,6.6012250278607025,1.231212703157102,-0.3373047530086228,0.8423333095718141,-0.7117884210613459,-2.167140105091455,1.557175082164056,,,,,,,,,,-1.3093056837710155,-0.7993478797137865,-0.2087193704399306,-0.2627826568707701,-0.6215449637468845,-0.039196300193891566,,,,,,
192,192,192,192,9.65,-1.41,-8.5,5.63,1.64,-0.363,0.973,2.77,-1.38,0.354,0.0,0.0,0.0,1.0,90.0,9650000000.0,-2.413691296944667,-8.814314114011475,6.05294709503746,1.5875838164625953,-0.3573263896194225,0.94767725557548,1.546074416888026,-1.7377448206926056,0.6066181491891882,,,,,,,,,,-0.2659012552976618,-1.1736446710228654,-0.3719686561295626,-0.8726740538433796,-0.8807300109485087,0.09634071695134758,,,,,,
193,193,193,193,9.7,-5.8,-11.3,9.94,2.14,-1.29,0.931,-1.61,-4.89,3.85,0.0,0.0,0.0,1.0,90.0,9700000000.0,-4.665323514981381,-10.653698461341572,8.247274147395228,2.06916731020012,-1.0840618578901795,0.934231987753254,-0.5005701086451031,-3.457341414654805,3.169020799578224,,,,,,,,,,-2.351968949410135,-1.402512231879124,0.1870797583309858,-1.0483118344472178,-0.34489970116495644,-0.07874455366958137,,,,,,
194,194,194,194,9.75,-2.53,-6.16,7.14,2.96,-1.71,0.474,1.38,-0.708,-0.0203,0.0,0.0,0.0,1.0,90.0,9750000000.0,-3.2454993236620293,-7.328403698868384,7.622193339214728,2.8457742757019067,-1.5717903516311071,0.563191315526482,0.7189380467837709,-1.9575395089652283,0.6493284881856516,,,,,,,,,,-1.0397233805294053,-1.9835368150639332,0.11958642836086718,-1.155641515899602,0.37276480076133867,0.007555745147095855,,,,,,
195,195,195,195,9.8,-1.97,-6.4,8.1,3.25,-0.415,0.241,1.52,-2.24,-0.0649,0.0,0.0,0.0,1.0,90.0,9800000000.0,-2.3973914289308857,-6.641393753294093,7.891925976625696,3.1981687301001207,-0.6704239904777792,0.3034395196623745,1.238409009167387,-2.111625427666469,0.08505911820374468,,,,,,,,,,-0.6260882597849258,-1.570101314122576,0.4632490266274477,-1.3169356526552949,-0.07229568533939976,-0.1937608740308786,,,,,,
196,196,196,196,9.85,-0.7020000000000001,-0.599,5.44,2.21,0.0409,0.475,2.79,2.3,-3.26,0.0,0.0,0.0,1.0,90.0,9850000000.0,-1.2700879153099134,-2.1700791185171857,6.507759594614674,2.336706566456545,-0.11616321983439648,0.4417521889044933,2.244581454847096,0.29497425004048683,-2.5576727499677747,,,,,,,,,,1.270175041611591,-1.4714811491130138,0.5638026121793988,-0.6605571637536349,-0.16927186759367654,-0.31343605351190695,,,,,,
197,197,197,197,9.9,1.74,0.5720000000000001,4.06,0.715,0.128,0.465,5.32,2.62,-4.84,0.0,0.0,0.0,1.0,90.0,9900000000.0,0.7313865996514277,-0.1409663089436224,5.1259451627434816,0.9229410004112376,0.07408777644312747,0.4604946604030962,4.2389225319396715,1.563306318871167,-4.360803625855012,,,,,,,,,,2.9442621951134216,-1.223254722883697,0.2636200598214938,-0.8332829435197265,-0.31559764565334525,-0.22414917044653826,,,,,,
198,198,198,198,9.95,1.48,0.0934,2.29,-0.8590000000000001,0.55,0.0386,5.2,2.04,-6.57,0.0,0.0,0.0,1.0,90.0,9950000000.0,1.2291563385894175,0.032462559269440805,3.52499140748066,-0.630513167499744,0.4449166619206668,0.12036167449290885,4.862159908349971,1.8233489718059417,-6.106158169674561,,,,,,,,,,3.9358183877769584,-0.4114247534183032,-0.42845221892934254,-0.6541048813665501,-0.3216818097714499,-0.28980445320619136,,,,,,
199,199,199,199,10.0,-1.98,-1.5,4.72,-2.16,1.12,-0.41,2.09,1.09,-3.82,0.0,0.0,0.0,1.0,90.0,10000000000.0,-0.9046832118667956,-1.1015453393085382,4.199600055514833,-1.9638837960769857,0.9709388672151612,-0.3072178051891245,3.0644754114583987,1.4232974790219204,-4.300000780273862,,,,,,,,,,2.957670894654781,0.71811706385382,-0.02600812013781036,-0.1522019960662425,-0.2375226446829705,-0.3435493217621605,,,,,,
200,200,200,200,10.0,-2.62,-2.03,5.05,-2.79,1.6,-0.865,1.91,1.69,-2.8,0.0,0.0,0.0,1.0,90.0,10000000000.0,-2.0452354791758203,-1.7885930455528969,4.679669730178871,-2.6840723887592013,1.461100771489149,-0.7569038171866669,2.3158235971395515,1.5687872437803974,-3.1149395118328265,1.2287338950641855,0.7199378333532288,0.2487340495125987,2.7778632417607594,3.232861501533248,2.9674090772852084,2.447026747787868,2.8158343657949465,3.255762978374612,2.5162983235157563,1.5406133545866232,0.35279498453272445,0.1039459532910392,-0.2001061832968801,-0.25766306108701986,3.127676627711418,2.9983377589852407,2.8256101384436003,2.355837685355367,2.6986341487591665,2.2616263358880615
201,201,201,201,10.1,-2.33,-4.45,5.41,-3.33,1.39,-1.66,2.53,0.6559999999999999,-1.41,0.0,0.0,0.0,1.0,90.0,10100000000.0,-2.234581701852496,-3.7580090506116512,5.091957225508106,-3.2471767821117687,1.4056993273001943,-1.484983169170703,2.454712242960249,1.0708498048815445,-1.767968375280442,1.1553139429282624,0.7168256957829697,0.2619031361509501,2.607359382552976,3.3313644645528537,2.945245002546649,2.3046699832746675,2.7875229798327297,3.3785850154388486,2.06837575078647,2.2221720668319915,0.3726157032779432,-0.34872318496293203,0.1048698508981288,0.07513448495565846,3.153968784592892,2.8273802148142897,2.6511898662111024,2.543071131207716,2.933590823136004,2.0406084043354826
202,202,202,202,10.1,-5.44,-17.0,8.52,-3.06,0.166,-1.77,-0.7290000000000001,-10.4,2.98,0.0,0.0,0.0,1.0,90.0,10100000000.0,-4.365935771313806,-13.556957963701713,7.027163407968768,-3.084000427398082,0.4397306298335781,-1.7147647441864031,0.39014522517260586,-5.186649449399159,1.9831185195130199,1.2110656231212444,0.7213127209663786,0.2494724516716971,2.6178760976471533,3.2177927502855552,2.9313378934583314,2.370207084760233,2.829364373108839,3.5734243859864288,-1.5242364495939216,2.6234891651233108,-0.5584104098972258,-1.7471281056086918,0.17365215873942613,-0.21606599478367888,3.367300179383721,2.7939932410217256,2.8033661871846256,2.481630170564947,2.7029480212116015,1.91767282383625
203,203,203,203,10.2,-5.37,-11.5,10.2,-2.01,-0.249,-1.27,-1.3,-3.92,5.53,0.0,0.0,0.0,1.0,90.0,10200000000.0,-5.033560367745331,-12.034828392723727,8.818299692934739,-2.147712172477447,-0.09692548460211856,-1.3561937981998853,-0.7058765735136017,-4.4956755541735784,4.7852983827300966,1.1732953811172695,0.7092809585646123,0.21300918304103528,2.56052859998932,3.2076872236115097,2.955003502012083,2.365498914762642,2.8158274004643955,3.602682173539161,-2.4909504141053613,1.8356752616439915,0.5746329841490997,-1.6760987159868257,0.4154373589293863,0.10497473745979903,3.4059529876378885,2.7442669415334198,2.502036264908645,2.613312961609585,2.808585573877156,1.778543884765736
204,204,204,204,10.2,-4.96,-8.88,9.0,-0.299,-0.215,-0.88,-1.41,-0.74,4.84,0.0,0.0,0.0,1.0,90.0,10200000000.0,-4.984648465940745,-9.700285101868126,8.920873532809079,-0.5360484906196676,-0.18892867134625665,-0.9722846477722662,-1.162485034188937,-2.44690514036971,4.828514991391517,1.2455593055348215,0.6319161360696006,0.22399820982911112,2.6586668804693514,3.293003986578353,2.961915719859042,2.565863719162285,2.857589265165204,3.5938321947013554,-2.1949155538180056,0.910046192556092,1.103325657028802,-1.0504808793016338,0.4326988034662619,0.41693721970474656,3.2304798767919056,2.718000224291352,2.6652250179587527,2.6326397039675427,2.769780995509283,2.0852611809428905
205,205,205,205,10.3,-4.24,-11.9,6.64,1.18,-0.319,0.405,-0.902,-3.81,2.3,0.0,0.0,0.0,1.0,90.0,10300000000.0,-4.489514960708487,-11.328053181044366,7.633269928820503,0.9599620716448498,-0.2902797280399863,0.13808717182101682,-0.9935662522227224,-3.1904912859767407,2.8308859343737742,1.1925488310193268,0.5489555160842851,0.2474964619184783,2.7753734876166543,3.3263917169064627,3.1460991191201506,2.4970185873801767,2.676850498329346,3.4962133486366875,-1.99273198846928,-0.1730900657389678,0.0663011397596689,-0.8147205404183859,-0.3495088824474774,0.06261822579456068,3.0873268189689926,2.9691103271902266,2.7737816697178626,2.4376010549911444,2.734644710953006,2.030802063682642
206,206,206,206,10.3,-2.57,-9.22,5.87,1.69,-0.139,0.73,0.952,-1.52,0.919,0.0,0.0,0.0,1.0,90.0,10300000000.0,-3.2131866591843337,-9.768113826797695,6.6378650118230045,1.5963919724474342,-0.1724031758253395,0.6152894304380543,0.2680904833443315,-2.2792163045181235,1.3204188111298938,1.3029035611945283,0.5501353757658877,0.2427954256996558,2.7189633314653987,3.5585902252164754,3.157319046831337,2.736551915351177,2.7171737428378964,3.4595587677972532,-0.940555427550125,-0.7670914937421239,-0.1850214122618381,-0.7319093029242356,-0.7464864086671422,0.059812486845567316,3.2922091145223336,3.2145404800877073,2.6949189507358486,2.568085700112917,2.7978773429251116,2.0625085804950727
207,207,207,207,10.4,-2.11,-7.46,6.82,1.69,-0.0782,0.675,1.63,-0.336,1.22,0.0,0.0,0.0,1.0,90.0,10400000000.0,-2.479653204782565,-8.06013130460515,6.740684335700308,1.6779972933807596,-0.09900044102207878,0.6634283152066947,1.15125870625658,-1.2191662458052317,1.2410839150618074,1.1650544948930859,0.5793492676583449,0.23348995063354056,2.7212231435551084,3.4942718232498766,3.0840853279777094,2.532125749287374,2.5991270661452184,3.2260186349212403,-0.3690027290384915,-0.9516972893858154,0.19635899925137865,-0.8055586755889763,-0.7812424754993834,0.19971038025288015,3.2431707053976826,3.044061933705683,2.806173369065796,2.3726998235017827,2.798655385450995,1.9365600557434144
208,208,208,208,10.4,-6.96,-12.3,9.76,2.63,-0.713,1.0,-3.11,-5.89,3.39,0.0,0.0,0.0,1.0,90.0,10400000000.0,-5.4587356199992,-11.1975944528717,8.445154900221771,2.5079309036070545,-0.5774264090665135,0.934773613615804,-1.612073331208016,-3.7671674285793055,2.938814541767897,1.1541273941424757,0.6122994046984989,0.2523543421701901,2.4860833067694004,3.39217792132645,3.1661921344641017,2.587049328409176,2.7172005582030603,3.3492249211001788,-2.7133390793252365,-1.1954354227343134,0.2693048528729605,-0.6311423578612406,-0.571379772301588,-0.324562295944536,3.3870447158415162,2.8278949733808543,2.853773621438417,2.533627000403135,2.9280452375399006,1.8471889477791992
209,209,209,209,10.5,-4.13,-7.79,6.56,3.35,-1.37,0.926,-0.244,-2.63,-0.815,0.0,0.0,0.0,1.0,90.0,10500000000.0,-4.57522978299457,-8.676006538966545,7.380943254869162,3.2420268018760283,-1.194996543311896,0.9277002941090142,-0.7249080094526841,-3.1468276997977496,-0.026850634291773368,1.1163213472445248,0.6151015400299709,0.2780038008367763,2.4112069679053314,3.4531487287625424,3.0623367296001773,2.66333727753111,2.7896510319614927,3.546752827371212,-1.6404841686475282,-1.9360555753408557,-0.2710810446482516,-0.6073275720269996,-0.01170478722672089,-0.5101391237515162,3.419977952940043,2.693572745633367,3.06760307158798,2.6693253732260462,2.972182405881993,1.8689495796708713
210,210,210,210,10.5,-0.943,-1.03,4.75,2.94,-1.52,0.467,2.59,2.73,-3.59,0.0,0.0,0.0,1.0,90.0,10500000000.0,-2.1600792998747718,-3.0180335021932034,5.895717629760593,2.9787270079765182,-1.4482379049801846,0.5562820721966608,1.424736526009846,0.05905912784356593,-2.8418825506447267,1.0385497344174186,0.6231499550523245,0.23689132394628595,2.4808137421433685,3.574272282048052,2.9796742167469983,2.5170329900341994,2.8879031610525727,3.5044048829716568,0.7855998938160382,-2.290552640263747,-0.19424340350924574,-0.5065132188276599,0.6340896651109151,-0.12250594127244738,3.405995332020438,2.707433837479098,3.0942671585788015,2.5866131185199954,2.9595769025902365,1.798558093308327
211,211,211,211,10.6,0.711,-1.9,3.12,1.83,-0.465,0.999,3.81,0.647,-5.83,0.0,0.0,0.0,1.0,90.0,10600000000.0,-0.2510346994559489,-2.1906991952440245,4.3287636051434175,1.9772939279612327,-0.682102916307694,0.9132028624826776,2.9715271421109377,0.3797886157635473,-5.202616023833782,1.1498540090375948,0.5863967355944338,0.21027209734325208,2.468864200192374,3.52042147407308,2.7896092495730604,2.568427392663644,2.6254244681026147,3.4033328505666964,2.2751729629336097,-1.9763824988790208,-0.7374870490781611,-0.5157183345199382,-0.15211835458666328,-0.39690480152240265,3.27922066428403,2.5691287309501596,3.016383078907522,2.5139044593774273,2.980127314756276,1.8638678330733134
212,212,212,212,10.6,0.0814,0.108,2.28,0.56,0.405,0.511,3.19,1.89,-6.85,0.0,0.0,0.0,1.0,90.0,10600000000.0,-0.02999146265381764,-0.4896833816628488,3.1721912453975625,0.7417305048444156,0.16496327204339534,0.588945455358261,3.113201999733712,1.2036287842051268,-6.504115859701831,1.2213208401440172,0.6166522678663201,0.2170557611196497,2.6725689084390964,3.6019382362812373,2.6337741212332886,2.666141110236907,2.8551576554291653,3.6124738900651385,3.2710769054513635,-1.0892805350627992,-0.8553647085532405,-0.007400071389269678,-0.32837570963132195,-0.5011876930283562,3.069301273931257,2.5685654545830428,3.297631084992744,2.6634093523834124,3.0447765642373263,1.9183774462820642
213,213,213,213,10.7,3.19,-0.218,5.28,-1.19,0.512,0.227,6.53,1.53,-3.77,0.0,0.0,0.0,1.0,90.0,10700000000.0,2.1110526285244537,-0.2886402274255092,4.362095999512887,-0.9423066470346352,0.4353729032158156,0.2971437306532484,5.3289201343839725,1.3816685600789502,-4.344053831084146,1.2072179902417768,0.5585375438278217,0.21612998449825507,2.715402491882444,3.4201751989112097,3.0326043291053915,2.5311830112286784,2.722525690258659,3.4007917478921064,3.647069007515156,-0.429614697440545,0.01421825571360231,-1.22235565101846,-0.6194190914109682,-0.11543094168844305,3.039235084471264,2.6782868750545674,3.154535382063839,2.429763140235609,3.070928243551586,1.9353005525471785
214,214,214,214,10.7,-2.95,-1.49,2.97,-2.55,1.02,-0.486,0.754,1.02,-5.76,0.0,0.0,0.0,1.0,90.0,10700000000.0,-1.2541540375976248,-1.1776351811407393,3.5762270512683747,-2.343855759571066,0.8909119532463148,-0.33422955260435216,2.3621855293138583,1.1843735925655503,-5.462708703097391,1.2865973468418386,0.5832791614118862,0.2501575638929973,2.5189389029746967,3.3482110271529093,3.3217857576001437,2.675457313918697,2.910485850782897,3.37894610633789,3.0391539349972163,0.8473106115383506,-0.4598410664226673,0.15808438623514925,-0.05590372159505008,-0.5508145656731851,3.2213541605241396,2.809547072392859,3.4017544447373513,2.612456532370589,3.165193710658218,2.01500196464257
215,215,215,215,10.8,-4.1,-3.86,2.86,-2.93,1.57,-0.563,0.046,-0.133,-5.21,0.0,0.0,0.0,1.0,90.0,10800000000.0,-3.1464203496086496,-3.1625598725094037,3.1719009892077885,-2.8548425447098467,1.4200546484676555,-0.5186651259469757,0.8601903967991336,0.4657289676549733,-5.263058645943787,1.1478226423159623,0.5672504823298202,0.25853529686387505,2.2953207261500683,3.3729972038761473,3.194904355254544,2.5587355068436626,2.8482194987504266,3.4202870168024315,2.4004859100278115,1.6173650842507656,-0.808301256882093,0.7995707650051953,-0.20843882888072388,-0.7477594445670026,3.1958116561136864,2.5749305535588882,3.3346114592201954,2.5563141447643094,3.244549046824741,1.995479007513494
216,216,216,216,10.8,-1.61,-5.42,5.94,-3.66,1.48,-1.39,2.92,-0.254,-1.06,0.0,0.0,0.0,1.0,90.0,10800000000.0,-2.124820242849297,-4.8330444179064145,4.734554102703399,-3.556759902642886,1.466763838343769,-1.2211384123666382,2.1959314561709427,0.07310734366974607,-1.9424724267441664,1.0527834234267437,0.5795471829566239,0.25928103201735364,2.5947440348385924,3.5082418548830567,3.116043955672772,2.4326336641310755,2.9403484591458944,3.401278366823464,1.9008041489711889,2.2875337030319502,-0.02417739818368254,-0.3967779808510664,-0.19321681252183304,-0.11878019410191215,3.1787886818365494,2.7398986675376285,3.349229063985349,2.6751341625399183,3.2304527346094143,1.9954534121430652
217,217,217,217,10.9,-4.99,-17.2,5.32,-3.61,0.3,-1.98,-0.58,-10.5,-0.282,0.0,0.0,0.0,1.0,90.0,10900000000.0,-4.029941936897896,-13.98447594346498,5.0650513500789245,-3.603173272611352,0.5576261925475781,-1.8329353591286364,0.3958012603432757,-5.6946617967227064,-0.6306321148209764,1.1077907837529013,0.6053737330959589,0.22959285133557225,2.6153552001631684,3.28617875270459,3.3427663199167013,2.5574278255961773,2.9914521764747737,3.245501257465114,-0.7646255570379581,2.939802515379151,-1.7266136350528998,-1.4477968811211572,0.17412024046509708,-0.4716117587635497,3.2690239036240687,2.781931484002645,3.2118183528088533,2.7201743569769588,3.4165681134838013,2.0858496567619267
218,218,218,218,10.9,-8.7,-15.7,12.6,-1.47,-0.299,-1.02,-5.05,-7.79,8.03,0.0,0.0,0.0,1.0,90.0,10900000000.0,-7.135167448014412,-15.253947489278033,9.31869664045033,-1.7435231408391954,-0.10985346171619847,-1.1775439440099134,-3.135680639079447,-6.837696329022326,6.2116170171479546,1.0905667071325609,0.5695515266812693,0.2074816646521266,2.3756322462991006,3.4003037362242714,2.796689469007411,2.666972256342819,2.8974618161586894,3.3704867477407796,-4.210214743900832,1.9953691976887649,0.23995781506610256,-1.3815108448108822,0.25335860636135665,-0.20596981414209564,3.346586714228564,2.545119640501722,3.058533639583748,2.5440580125628327,3.0965402558944968,1.900952934295759
219,219,219,219,11.0,-4.75,-8.59,11.1,-0.122,0.412,-0.321,-1.38,-0.435,6.81,0.0,0.0,0.0,1.0,90.0,11000000000.0,-5.549216479037511,-10.322689058326947,10.324281978472127,-0.3299175049801057,0.2967726414629981,-0.4869951547433001,-1.9971605386655915,-3.344941258281687,6.6843637087801016,1.1890135116761855,0.5639410674311696,0.21499059895628528,2.4481935315280565,3.5591297382730915,2.512293275959196,2.7510612848011218,2.8624970538195647,3.2488148741022522,-3.130078454587273,0.9147155803204502,1.810895151002886,-1.0788171057103837,-0.20543164675100584,0.16774843578264767,3.0102701400829126,2.461020254537842,3.2318317356487487,2.733106733690527,3.0486971692238765,2.009106546086845
220,220,220,220,11.0,-3.86,-11.7,6.76,1.33,-0.147,0.5529999999999999,-0.461,-3.66,2.26,0.0,0.0,0.0,1.0,90.0,11000000000.0,-4.426018742818037,-11.341886076167865,8.312166141385564,1.1171594707674226,-0.04901320249565533,0.3514526443799392,-1.0009943725582249,-3.516809993165319,3.1889375847744286,1.2495586961268688,0.5293534373524182,0.2317882274209344,2.6049664192525497,3.589736266051883,2.5373408333962444,2.783077311427228,2.800186701227452,3.2539916754576237,-2.2155740511531703,-0.2254225804264437,0.4112465899142468,-0.9347797260336056,-0.6415340606692801,-0.12183050357126984,2.959680813440393,2.4096751252848603,3.1797922919655552,2.544361458194559,3.053150639466875,2.1045725862718325
221,221,221,221,11.1,-1.54,-7.98,4.46,1.47,-0.422,0.81,2.1,-0.457,-0.674,0.0,0.0,0.0,1.0,90.0,11100000000.0,-2.5070405654295724,-8.8541219740017,6.13753322290055,1.4247575487632818,-0.33964299670095577,0.7211351676402734,1.0099318902684666,-1.847643384590952,0.13706077365374458,1.2653041600161514,0.5019149409021548,0.2731583953230879,2.558397342443108,3.3200654134319447,2.933116852799828,2.756049734096631,2.74203098347696,3.3705089122275025,-0.3207350624605353,-0.9746471304707408,-0.38660525104398,-0.8014686559781583,-0.6736100023120658,0.0032296706077029626,3.038862585686718,2.826863773534589,3.2863570170276484,2.511173515646789,3.2773780275708932,2.1105683023632977
222,222,222,222,11.1,-4.21,-8.71,9.19,2.01,-0.246,0.7390000000000001,-0.396,-1.73,3.45,0.0,0.0,0.0,1.0,90.0,11100000000.0,-3.6393762545372312,-8.74747309528748,7.860717957320322,1.9349581088381127,-0.2666767584096187,0.7355378775766995,0.09821612917630096,-1.7834673811561812,2.7544166745140304,1.2377976317492283,0.5228773545385913,0.2655137785787925,2.337035878394146,3.3151210930753385,3.19843166242141,2.7211901521166157,2.9325104099797863,3.1935745975753465,-1.3634119638201994,-1.032922261054966,0.6178182298594544,-0.7700125718851117,-0.6717404290151757,0.14790059720381754,3.1029779402782385,2.8960542600613914,3.1598128737197086,2.561410871891353,3.237928765674965,2.219937700806893
223,223,223,223,11.2,-2.87,-10.6,7.6,2.98,-0.853,1.25,1.09,-4.53,0.964,0.0,0.0,0.0,1.0,90.0,11200000000.0,-3.1278007679169506,-10.118325885233217,7.713536853332765,2.8460010030530447,-0.7235374409442371,1.1502990842862393,0.7413660745596049,-3.2817371685767363,1.3399151411723047,1.1803202469508132,0.5335986866544493,0.2626645006506389,2.1157312425482933,3.4580868600048773,2.9386395234122187,2.6037345768374167,2.9763634203810714,3.3444898469399496,-1.479606594657742,-1.7280327603369048,-0.028588513736641227,-1.2577346473376656,-0.7993089318229779,-0.2595980364071285,3.2770387931887885,2.5788582939399096,3.157719023656739,2.6148926323631763,3.100775772608756,2.3333144254163547
224,224,224,224,11.2,-3.29,-8.42,9.8,3.56,-0.7040000000000001,0.557,0.527,-3.71,2.1,0.0,0.0,0.0,1.0,90.0,11200000000.0,-3.2356506251688337,-8.861580739946211,8.891391529150642,3.468448441901036,-0.7083139431542279,0.6719792214122118,0.6023544187738629,-3.5153601975306623,1.9404128189871857,1.1706152416856987,0.529702344900689,0.2564325305576513,2.417868031228171,3.4176282657908237,2.8494108158522526,2.494827288556096,2.9097245535037755,3.2597031644200016,-1.7856104298960018,-1.680126316085354,0.6276280977816826,-1.5431206333802785,-0.4351468377560552,-0.3048716073259218,3.2567226748359195,2.5851999042703424,3.0789593254402927,2.336992611015788,3.022573658076652,2.3727193010357794
225,225,225,225,11.3,-1.33,-1.68,2.46,2.45,-0.976,0.534,2.34,1.65,-6.0,0.0,0.0,0.0,1.0,90.0,11300000000.0,-1.9685411021153159,-3.547278414192826,5.2607288647752,2.580589147849069,-0.91689384252435,0.5607398621208646,1.729179123957998,-0.6975882748184894,-4.33283417650083,1.1720164536862885,0.5280452172178114,0.24004293605489235,2.473138508448562,3.408174046854979,2.932917922507277,2.5116175823403437,2.807166255242203,3.5231189032253525,1.1425514138832684,-1.8800333348596299,-0.6243782794636583,-0.4817758084239495,0.2722139971736741,-0.5357789686169089,3.4413009912811914,2.6380237306781673,3.190581701777665,1.9048387777433093,2.9854906009654183,2.454564390146487
226,226,226,226,11.3,-1.47,-1.1,1.61,1.71,-0.391,0.7509999999999999,2.0,1.24,-7.26,0.0,0.0,0.0,1.0,90.0,11300000000.0,-1.637050036673189,-1.7363153939933529,3.1998117283047014,1.8216300913683965,-0.5071194934062253,0.7141282567103078,1.904800477457544,0.3593916223903497,-6.6454136433371485,1.065795202231504,0.5737560426661311,0.21168321473008547,2.4222365394330385,3.1907439232650416,3.0001151832613724,2.2681291101536205,2.7569487496767904,2.923896544916824,2.4027190497049653,-1.648472077848115,-1.2956490599112378,0.2697677357117847,0.08753171079591132,-0.6504975810289476,2.9985924564118385,2.519608633937443,2.922185363173161,1.8299335957341194,3.1145393389594576,2.419643829935539
227,227,227,227,11.4,3.22,1.46,0.00239,0.104,-0.153,0.475,6.58,3.21,-9.04,0.0,0.0,0.0,1.0,90.0,11400000000.0,1.5925107490142631,0.6289280010046727,1.3947964827983792,0.3242406830109932,-0.231191016814712,0.5213421944118692,4.936564005551117,1.9144360116434205,-8.537233599114021,1.161568627299512,0.6218816357066888,0.2235195003829248,2.3231185094959184,3.3574660069241733,2.7964347393653544,2.362015530939184,2.8563453678696304,2.6332625075357874,4.65310717932313,-1.2977445128203935,-1.682907464115631,-0.24236184177353426,-0.1324374869245037,-0.308762415481049,2.70426632924844,2.502393988642659,2.7548346188116777,2.1400743795329222,3.010136731225641,2.4016273478019357
228,228,228,228,11.4,1.08,-0.108,2.49,-1.67,1.08,0.128,4.71,1.86,-6.4,0.0,0.0,0.0,1.0,90.0,11400000000.0,1.251730963668264,0.08360820056674312,2.0130630834218093,-1.4142912808454366,0.7904837439521608,0.20422831260853985,4.789642279311772,1.8847404590145758,-6.848732766515652,1.1551503050861105,0.5664421790087906,0.22382090062140825,2.4305839792824626,3.5779216765278212,2.8884565782971854,2.249902688668624,2.721124728629197,2.7405410796065546,4.466728759855381,-0.01679167920787937,-1.0560551216569236,-0.2251784934402585,-0.6047261874106249,-0.2906285838030589,2.7753984334434953,2.7320637970880037,2.619031159372129,1.8577860804163377,3.011522746868879,2.420584321684585
229,229,229,229,11.5,-3.34,-1.64,4.17,-3.18,1.53,-0.514,0.831,1.34,-4.19,0.0,0.0,0.0,1.0,90.0,11500000000.0,-1.80141318394701,-1.1918456664472383,3.2307016955923453,-2.953594563232913,1.3667117918356548,-0.374809925685798,2.2225502202878893,1.5875773910174895,-4.7482264879870275,1.3117742494372444,0.5981702579827213,0.24296323333944056,2.3336019734556386,3.1891536072716584,2.7711350321240564,2.570620795724816,2.9309716130036922,2.9808100748305195,3.0959497477099323,1.333394148802684,-0.3827559699797366,0.4968363407524385,-0.31988447248820545,-0.4306541566649296,3.0746707446399513,2.621442059219773,2.6731625582748433,1.9045031527829088,3.0910190435419866,2.419585933739258
230,230,230,230,11.5,-4.44,-4.12,4.59,-3.67,1.53,-0.957,1.39,2.83,-3.17,0.0,0.0,0.0,1.0,90.0,11500000000.0,-3.5558683740349784,-3.358652282793053,3.9980557222380937,-3.578139995964558,1.493945279696955,-0.8441736637571525,1.6826597908923668,2.265335226102718,-3.5013638473345097,1.1295145141003906,0.5506261903582929,0.24109880439560225,2.0671324087837597,3.2797912859118097,2.7518103008197525,2.3448832607875096,2.9756292595598564,3.158614336671866,2.4151371291599952,1.991994295043153,-0.03967139059485923,0.7320484389886313,-0.04283824235452268,-0.20804306597833572,3.1245801238955475,2.380966177968191,2.4561808478785174,1.8657409241379166,3.0106009426293343,2.469556870055415
231,231,231,231,11.6,-3.32,-15.3,6.91,-3.6,0.8059999999999999,-1.58,1.48,-9.3,0.846,0.0,0.0,0.0,1.0,90.0,11600000000.0,-3.399034193467556,-12.195137562883167,5.64191255023642,-3.597196948862928,0.9579011008677784,-1.4373995275210356,1.5512394072539168,-4.0437073805120285,-0.06677072050303723,1.0949182888875575,0.5329114983033815,0.23053331768856444,2.149698888687265,3.361280298028792,2.7050705843388823,2.3166605760324037,2.992468734554848,2.954675856877288,-0.2126198533214779,2.705052540094527,-0.9073012238197284,-1.426162223762939,-0.2687212616759001,-0.33222225349412843,3.1606680317273654,2.3534450742797444,2.599594769328395,2.0123845177196142,2.965254506341316,2.487229400904483
232,232,232,232,11.6,-3.1,-13.0,7.93,-2.64,0.0794,-1.56,1.23,-5.73,3.0,0.0,0.0,0.0,1.0,90.0,11600000000.0,-3.2001996334327996,-12.790728205824768,6.933588397532986,-2.762735311953868,0.2733766050808444,-1.536240421649815,1.3429227627834823,-4.963602197260381,2.3561020755111404,1.226247491361364,0.5041785946694203,0.2230186687290579,2.4651508537462687,3.084891286712629,2.8410773675915,2.4803714997297557,2.9685232119137077,2.867637624415155,-1.1686606948108724,2.2414193203013304,-0.4921599157950624,-2.1046794021342485,0.02729339863292736,0.006084246705825679,3.213874157258297,2.503355101861389,2.4436836775107187,1.9315341020784258,2.820164894215933,2.3617528718520613
233,233,233,233,11.7,-7.48,-9.06,9.09,-1.26,0.273,-1.26,-3.61,-1.0,5.06,0.0,0.0,0.0,1.0,90.0,11700000000.0,-6.045934248117828,-10.030024688851963,8.150930501345169,-1.452686094672752,0.27308315741406075,-1.313534396099835,-1.868938130910801,-2.8014050592697783,4.492290653942193,1.1067575330843875,0.4879311907698944,0.22143783861333352,2.616969731841868,3.288566320276919,2.9909494545499022,2.2502646095780454,2.711472077741837,2.5906257612689267,-2.1965637258150887,1.7291912255512032,0.7576012725272314,-0.5879410986321928,0.4413053581599619,0.27036756625538977,2.908152568378351,2.66335253514448,2.5942202623761124,1.8409128522079037,2.9443897127245267,2.3778076588164367
234,234,234,234,11.7,-5.95,-10.9,7.79,0.34700000000000003,-0.168,0.0337,-2.32,-2.59,4.06,0.0,0.0,0.0,1.0,90.0,11700000000.0,-5.982145302656852,-10.673797964650845,7.947177233331544,0.11623780676797035,-0.07060704979953564,-0.2273891976543212,-2.16144174213612,-2.686080771678894,4.150763523451717,1.1122932918993194,0.5903702534695074,0.2321593759070708,2.3207674884149503,3.2274973144888874,3.0204553867410717,2.253393832811013,2.8601515582278245,2.1761903504423894,-2.4090177258088312,0.4713777014190453,0.4958066454973557,-0.3043875463916151,-0.06332032133658265,0.1922895145673316,2.6811554717901047,2.7543984462305446,2.662351140736075,1.957203955916371,2.8777424969196237,2.333557948266423
235,235,235,235,11.8,-5.24,-12.0,9.08,1.29,-0.0953,0.7759999999999999,-1.49,-3.92,5.0,0.0,0.0,0.0,1.0,90.0,11800000000.0,-5.488676206453363,-11.655175013048744,8.586680683409691,1.1394959750913811,-0.08984769376203128,0.5815467876642071,-1.726026616099475,-3.3591999839939213,4.821694657186509,1.1872941249420526,0.5707130095484935,0.2397128240673989,2.2061240758126734,3.211003086651507,3.192097182461335,2.2913846865429517,2.7647155114031734,2.310093876314125,-2.7982395380844234,-0.2896521529163883,0.6390178081036462,-0.6247097735893278,-0.7398639340554178,0.05465788884341601,2.552869909680599,2.675021115297408,2.68729396783548,1.9205861363554744,2.8206189672052857,2.3814316221039444
236,236,236,236,11.8,-2.96,-9.84,7.47,1.31,0.13,1.05,1.13,-2.28,2.75,0.0,0.0,0.0,1.0,90.0,11800000000.0,-3.807303092505815,-10.311962667264527,7.9562896346453025,1.2881373134686758,0.08145673467419501,0.9592154077421902,0.12604352872532745,-2.770482180732792,3.1849721617657307,1.2448477061877659,0.5378893151496189,0.2410698765951529,2.018880664825789,3.037018073290708,3.0818437992485688,2.3613709137501937,2.6515614092456423,2.503300736042712,-1.673308308423081,-0.6785144955323763,0.4965589764099988,-0.90715514715215,-1.1522925219003424,-0.06987785631721019,2.692666109094279,2.656638314953077,2.6794867932742106,1.7696867172213608,2.781567824775913,2.292388250600471
237,237,237,237,11.9,-3.04,-10.1,5.6,2.0,-0.687,0.9,1.39,-3.11,0.386,0.0,0.0,0.0,1.0,90.0,11900000000.0,-3.297106148232221,-10.155112566857158,6.626111995611009,1.908722417156092,-0.5173216209745499,0.9114757145963892,0.9456913600950838,-2.955693560119016,0.9736710546117472,1.2656145762209452,0.5540808795788043,0.25455165910493066,1.7858747638763406,2.8761739953882937,2.7121045290526062,2.492453815754226,2.7810628730026634,3.0246657798263925,-1.0311957537228773,-1.1844041943729282,-0.4444913312167679,-1.0049954801089278,-0.7832172512401809,-0.13484630856593818,3.078464148882324,2.2633766570124334,2.758820061591835,1.6162274917721087,2.640630560470592,2.329207126079371
238,238,238,238,11.9,-3.98,-9.96,6.72,3.19,-1.41,0.877,0.495,-3.86,0.482,0.0,0.0,0.0,1.0,90.0,11900000000.0,-3.7511774953280783,-10.010731128413171,6.679113731067683,3.0257100499623304,-1.212892970750438,0.8836812491834842,0.6534279755665351,-3.4490045615876066,0.5852310479895944,1.1524080418411886,0.5599166685049457,0.2423660592404195,1.6932311621313354,3.098931167093221,2.569556948672561,2.4686093522658195,2.9460845558531976,2.8869658161080296,-1.359903641998763,-1.8211802800134775,-0.701401351794551,-1.0734254309937148,-0.29559346525474445,-0.17826164230329833,3.3232072283733687,1.8412979370026494,2.7329815574990683,1.8057226585469088,2.6844098500068605,2.4715971496132547
239,239,239,239,12.0,-0.991,-5.08,6.09,3.7,-1.36,0.474,3.13,-0.28300000000000003,-1.41,0.0,0.0,0.0,1.0,90.0,12000000000.0,-1.9158739898229864,-6.362036354057072,6.3465460934957685,3.613540169546636,-1.3275181830072915,0.5533947635438541,2.259430280207665,-1.7219074217288792,-0.991082079935338,1.0215351165110906,0.499397478807719,0.2375871020135425,1.9448404840087548,2.9970050517693,2.8119993004363706,2.0596353362394884,2.7809490649372512,2.7764299139388187,0.030904751771991725,-2.2168918968378044,-0.39658099704110494,-1.297609320789425,0.08730086090656047,0.036449173985916884,2.9966577588737064,1.8835227060008517,2.767773380681399,1.5185810796189008,2.70584097822312,2.5001249323092662
240,240,240,240,12.0,-1.27,-2.08,6.49,2.81,-0.377,0.16699999999999998,2.52,1.35,-1.88,0.0,0.0,0.0,1.0,90.0,12000000000.0,-1.4864179736011152,-3.19336961917018,6.427528865597192,2.9130327481293112,-0.5868782694866014,0.2418819170416296,2.4284039730411475,-0.04614150062407396,-1.6933631537900349,1.1368745858285183,0.5175454158274594,0.22144178465382505,2.3319861970136566,3.2724052101874377,3.0556122490375555,2.314804010181578,2.822567392498324,2.5890243485054656,0.9293996376942496,-1.6838765882957336,0.32282413506285085,-0.9041814142868176,0.094931475740007,0.0018977315219619773,3.0657966183355647,2.36060712595967,2.669109183940161,1.5433892612814624,2.6311648610583958,2.5444282529192677
241,241,241,241,12.1,1.4,-1.13,4.84,1.46,-0.0336,0.373,5.25,1.23,-3.87,0.0,0.0,0.0,1.0,90.0,12100000000.0,0.4328256200106633,-1.66649547984526,5.531333814338171,1.646313095524064,-0.15576608286474494,0.3475897821260757,4.2581466447493765,0.6500104854325073,-3.4129941287927545,1.1776070510442425,0.5653014539841983,0.23538353291311764,2.505954443462812,3.1257182057269097,3.510925367085544,2.3099759113462253,2.76631128038956,2.4959358773470766,2.336574826400593,-1.3720940236694286,0.17332802157285596,-1.1733170031455844,-0.276230502449666,-0.12316784495428705,3.013131438468305,2.9382877363367785,2.587780234167234,1.7184657370906886,2.6024928479427274,2.3551702994829347
242,242,242,242,12.1,1.81,0.7020000000000001,1.18,-0.684,0.285,0.038,5.77,2.77,-7.55,0.0,0.0,0.0,1.0,90.0,12100000000.0,1.3485395056179987,0.08616894286344046,3.074909659085514,-0.3851989233541537,0.18767706012305616,0.09799738935377196,5.2385501242472206,1.8064926427225607,-6.681396092269553,1.1358179042849463,0.5634036965420623,0.2492720208241935,2.2904195777698466,3.2820831217863566,2.883929352213175,2.146049290289762,2.6929958435281116,2.152235944633341,4.13553938676248,-0.6152622806594121,-0.7411498197230086,-0.7095110033616518,-0.17208555712726284,-0.2614014452126882,2.6064100828457097,2.6421229083515025,2.557728555697001,1.5271777545136147,2.366981134852302,2.235561403888093
243,243,243,243,12.2,-3.0,-0.0718,3.11,-2.02,0.77,-0.508,1.19,2.6,-5.35,0.0,0.0,0.0,1.0,90.0,12200000000.0,-1.5429012811956944,-0.03072659167904565,3.0947188729927952,-1.8103799351098504,0.6414207204279276,-0.3905598906488473,2.6131548708486383,2.239361292321775,-5.62953930291899,0.9950940201710584,0.4896915991649495,0.23579868588231034,2.2542716517931245,3.2462379299017177,2.8214577943777126,1.8746186947734984,2.393948650999892,1.935671078693048,3.3613910572975896,0.5236836228489107,-0.5022970588841823,0.43874392700330017,0.2161270006199968,-0.2954193762913531,2.1700774135202456,2.4505723155766503,2.46271766301465,1.3852354946870042,2.4467175277523476,2.1984464315555585
244,244,244,244,12.2,-2.6,-0.716,5.52,-2.84,1.45,-0.65,1.91,3.06,-2.33,0.0,0.0,0.0,1.0,90.0,12200000000.0,-2.245789704203272,-0.5378224918513631,4.4638436699371535,-2.707978353390107,1.2714624558445586,-0.5997214173085751,2.1571744538106272,2.6870304712748743,-3.0227698604478475,1.0204924122112635,0.504154248581758,0.25499764971349115,2.11243687597015,3.1772955128846663,2.5608594462313428,1.9683514555733348,2.575677643073936,2.6734786276983606,2.7410947626449045,1.2855776685195863,0.4972341269935454,0.4567716945744243,-0.04629736184266749,-0.07366599815771946,2.383472520621927,2.420707792514976,2.6862946571930215,1.401775089144887,2.523861897041573,2.1333154757965938
245,245,245,245,12.3,-1.7,-5.31,3.63,-3.55,1.54,-1.36,3.12,-0.175,-3.2,0.0,0.0,0.0,1.0,90.0,12300000000.0,-1.8828820033895008,-4.0691889777954975,3.9931205505150134,-3.442032927626668,1.4807057924065232,-1.2126607467200088,2.781545469733431,1.1257552021104054,-3.1627888701558344,1.1982438023668496,0.5303008315830042,0.2572746550167035,1.79572682899486,2.9170291493561664,2.3600351505664072,2.3197001567669275,2.7897816135308933,2.878799056410738,2.5855331885290376,2.150152695982555,-0.2301807397915105,-0.15423215988893227,-0.13463791681035728,-0.04908244626302341,2.911019521739425,2.0865422690586706,2.656429192227953,1.6091364742609477,2.434713565393641,2.454694234842935
246,246,246,246,12.3,-7.05,-21.3,6.47,-3.44,0.433,-1.84,-2.31,-14.7,1.05,0.0,0.0,0.0,1.0,90.0,12300000000.0,-5.318613990617691,-16.819826710974528,5.39137363341935,-3.4402607191436423,0.6643376829896708,-1.7184239277394462,-0.5202092170479995,-7.507402337207794,0.16548453648672326,0.9281991187818399,0.5337216484993819,0.25934482659231417,1.560292257486186,2.9909176538541606,2.209842507884148,1.8480716871629947,2.883956441304153,2.7669235824446297,-1.8285084641652003,3.1490919991873567,-2.040555533525509,-1.4718990209686238,-0.09239179990362302,-0.7458030094753889,2.898563337281128,1.825565671705882,2.703590477497705,1.5309727318294997,2.5415671560409607,2.3701517809884622
247,247,247,247,12.4,-6.8,-11.6,11.7,-2.12,-0.162,-1.17,-2.67,-3.87,7.42,0.0,0.0,0.0,1.0,90.0,12400000000.0,-6.303620674932732,-12.957204259901,8.952732563626611,-2.2892884574889987,0.020458708370893697,-1.2762825572809628,-1.9143010830796656,-5.5231514514577205,5.8968449646239565,1.0910305427737237,0.5558092793176985,0.2434051821847077,1.7602997518925243,3.180298811055009,2.314267747547204,2.1218390741113526,2.803942934648174,2.534692788086229,-3.2850643182103405,2.0794101686819064,0.5072084637848294,-1.4124317603511751,0.29637970116687395,-0.018177966934080556,2.9043723152353604,1.7558312549445247,2.6649905124138926,1.357377735747181,2.655662367889344,2.468803954141982
248,248,248,248,12.4,-4.6,-9.67,9.16,-0.29,-0.0458,-0.532,-0.875,-1.43,5.37,0.0,0.0,0.0,1.0,90.0,12400000000.0,-5.170845274331006,-10.524704042586675,9.069739527024678,-0.5463559181869344,-0.031169809044369064,-0.6762392966398876,-1.2403372972314608,-3.2902834625276185,5.480616062591514,1.0363881210561188,0.6301005946486762,0.22412451520118604,2.4109786070376837,3.3141921510363708,2.915778122728665,2.0614080698083,2.7890198858147075,2.4268822842698468,-2.5533026488054493,0.9099296073334308,1.0619334500631792,-1.1411860645672152,0.04654853489524302,0.2823141183982773,2.6799580981339717,2.2602200353966975,2.7427576025188087,1.3956196444157,2.680796951244325,2.4463839199743136
249,249,249,249,12.5,-1.95,-8.75,5.57,1.27,0.0183,0.32299999999999995,1.69,-0.565,1.59,0.0,0.0,0.0,1.0,90.0,12500000000.0,-3.0292335345018984,-9.211439721864233,7.09405929820689,1.037100323180436,0.007376866160761394,0.12935101630520796,0.6599217223845555,-1.803605482553153,2.4068721814804874,1.1437565738222546,0.6627054183621504,0.2414861199304109,2.41480653136033,2.9860318210858785,3.3073662332892018,2.2133379119774865,2.76086477277093,2.463472124761978,-0.8658263376158865,-0.2739265393303201,0.2809214993947671,-0.946415136111146,-0.579255766967491,0.3371774722343797,2.666021097324244,2.815049973633974,2.8833182956205747,1.4075844706329168,2.598295744433154,2.5284376158216766
250,250,250,250,12.5,-3.6,-10.8,7.41,1.74,0.0281,0.624,0.234,-3.01,2.83,0.0,0.0,0.0,1.0,90.0,12500000000.0,-3.4087488085853703,-10.386959546587924,7.272414722187253,1.6498716946717362,0.023524248618774654,0.5281388099495734,0.3837208957576676,-2.4617095561894438,2.741160196239239,1.0788760150366492,0.5831405300683035,0.2356982474155908,2.181341953277025,2.968787330345992,3.2026566394727363,2.05706992377383,2.3988909213499623,2.251355122421125,-1.3216813107537781,-0.5849378711071325,0.17364039632228342,-0.9238732794161556,-0.9178850585181784,0.20459584609143855,2.4151244191806223,2.4152070641248065,2.7546083558565906,1.321022728831138,2.5102853133179366,2.3255103425739754
