,Unnamed: 0,Unnamed: 0.1,Unnamed: 0.1.1,Time (s),Acceleration x (m/s^2),Acceleration y (m/s^2),Acceleration z (m/s^2),Gyroscope x (rad/s),Gyroscope y (rad/s),Gyroscope z (rad/s),Linear Acceleration x (m/s^2),Linear Acceleration y (m/s^2),Linear Acceleration z (m/s^2),Still,Walk,Run,Cycle,SPM/RPM,Timestamps,Acceleration x (m/s^2)_kalman,Acceleration y (m/s^2)_kalman,Acceleration z (m/s^2)_kalman,Gyroscope x (rad/s)_kalman,Gyroscope y (rad/s)_kalman,Gyroscope z (rad/s)_kalman,Linear Acceleration x (m/s^2)_kalman,Linear Acceleration y (m/s^2)_kalman,Linear Acceleration z (m/s^2)_kalman,Acceleration x (m/s^2)_kalman_max_freq,Acceleration y (m/s^2)_kalman_max_freq,Acceleration z (m/s^2)_kalman_max_freq,Gyroscope x (rad/s)_kalman_max_freq,Gyroscope y (rad/s)_kalman_max_freq,Gyroscope z (rad/s)_kalman_max_freq,Linear Acceleration x (m/s^2)_kalman_max_freq,Linear Acceleration y (m/s^2)_kalman_max_freq,Linear Acceleration z (m/s^2)_kalman_max_freq,0,1,2,3,4,5,0_max_freq,1_max_freq,2_max_freq,3_max_freq,4_max_freq,5_max_freq
0,0,0,0,0.0484,2.49,3.63,8.8,-0.284,0.616,-0.006640000000000001,-1.86,-1.89,1.96,,,,,135,48400000.0,1.2072720795040597,2.064870217526196,5.990830379075852,-0.2728404431361119,0.568231780835971,0.09616161061234144,-1.5064746271625684,-1.3746481067745029,1.161780578387157,,,,,,,,,,0.6934026053061839,2.5875359508089635,-1.4794118985042166,0.7249212498514174,0.4595877004118688,0.5309175785977566,,,,,,
1,1,1,1,0.0984,1.19,3.03,9.38,-0.028999999999999998,0.64,0.0422,-2.85,-2.4,2.29,,,,,135,98400000.0,1.2039277566424598,2.5358000313913442,6.672829873771358,-0.1327546812757889,0.5827536906180999,0.06349599246575434,-1.8042131575270075,-1.9270460996633512,1.4289821854681222,,,,,,,,,,0.8855987020925041,2.699978912586721,-1.567138379800617,0.8199900613499911,0.5632664242608412,0.462670932887268,,,,,,
2,2,2,2,0.14800000000000002,-2.86,2.37,6.98,-0.6459999999999999,0.526,0.512,-6.81,-2.98,-0.228,,,,,135,148000000.0,-0.014951806779444963,2.4380565723382026,6.766645421321452,-0.46221355629094,0.5664891860154827,0.3656269320562038,-3.4754494271502026,-2.5902683423423047,0.8521013675743216,,,,,,,,,,1.032064269324615,2.5079977258830577,-1.5977047471550683,0.3652088108319323,0.4912144415032029,0.7467134544672334,,,,,,
3,3,3,3,0.198,8.61,2.06,7.49,-1.14,0.6729999999999999,1.95,4.61,-2.65,-0.132,,,,,135,198000000.0,2.9901184924840654,2.208970883476583,7.021477590444069,-0.9030144617712208,0.6013207309516372,1.4441996211328039,-0.4013145362699864,-2.6286128580940664,0.4660868574875587,,,,,,,,,,0.4241421034791454,2.692558755612537,-1.6305506517767494,0.9993405391890128,0.4498470730857847,1.5075887232870604,,,,,,
4,4,4,4,0.248,1.63,0.0718,8.4,-1.71,0.979,1.12,-2.44,-3.86,0.388,,,,,135,248000000.0,2.48908872041626,0.9085221922371598,7.5334296197674275,-1.4286707810756731,0.7315652314984439,1.2232639819558988,-1.211716245404719,-3.420994291797244,0.434218516765192,,,,,,,,,,0.32250766764454913,2.684598334765858,-2.0466787355485074,0.5969015420497279,0.5562438484789262,1.8099168726463188,,,,,,
5,5,5,5,0.298,0.328,1.01,9.2,-0.413,1.39,0.7040000000000001,-3.21,-2.19,0.63,,,,,135,298000000.0,1.6760122484159992,0.9703098799432356,8.164776207634343,-0.7669535986938101,0.9636107044521368,0.8693577181676708,-2.0184813960500883,-2.6286245460136133,0.5151976039206854,,,,,,,,,,0.7479044055644455,2.736361569986633,-2.31554971681383,0.7895469182462459,0.37128059828730736,1.1831859046957591,,,,,,
6,6,6,6,0.348,-1.22,1.19,11.2,1.94,1.24,1.3,-4.27,-2.29,2.53,,,,,135,348000000.0,0.5776159020808849,1.1040876303289464,9.323297261118867,0.9966882155366148,1.0618883437290587,1.1628667086242626,-2.9324432364575355,-2.4106493258013133,1.3523615811289478,,,,,,,,,,1.98174034755698,2.736119831168124,-2.2614795577369726,1.6938531144065638,0.22327946911251587,0.012672648298147805,,,,,,
7,7,7,7,0.398,0.563,-1.62,10.6,0.278,1.3,1.27,-2.53,-5.39,2.06,,,,,135,398000000.0,0.5720552966367346,-0.5547382368973646,9.811999413059477,0.5284451864112302,1.1468668617661926,1.2358846593032309,-2.7687665447820637,-4.328489331202261,1.6468457764846935,,,,,,,,,,1.858512471699505,2.70530888214428,-2.6306605353779378,1.5499754315241314,0.4204963032436629,0.4081000003357654,,,,,,
8,8,8,8,0.448,-1.77,-0.124,13.5,-1.11,3.77,-0.645,-3.73,-3.45,4.53,,,,,135,448000000.0,-0.3200304239381646,-0.2924407423019733,11.225242481376014,-0.5390424776266255,2.0844426466579042,-0.04605468933468626,-3.1599699102936034,-3.762995973556956,2.847305134801726,,,,,,,,,,1.4409838633051646,3.3006330894319085,-4.459061377217479,0.8228755842594607,0.20723408802330065,0.6726094315050445,,,,,,
9,9,9,9,0.498,-3.1,1.07,10.8,3.1,0.258,0.478,-3.85,-2.43,1.72,,,,,135,498000000.0,-1.3793954146028806,0.5372161102747908,11.062222233642919,1.83188394234158,1.4312170733223788,0.31112102544660336,-3.4408649835394485,-2.9049315614331275,2.377844726058549,,,,,,,,,,2.7013597003860372,2.9367043585546133,-2.9469301497036304,1.9167877312871242,0.2930674310835268,-0.8322264433231447,,,,,,
10,10,10,10,0.5479999999999999,2.5,-1.22,7.11,0.631,1.51,0.246,1.96,-5.71,-1.59,,,,,135,548000000.0,0.09918429367192694,-0.5328388193955826,9.546866617072997,1.0494782368325042,1.4594009663800331,0.2667370183181468,-1.242116828090738,-4.710585611307123,0.7253552266852137,,,,,,,,,,1.6128330953425365,2.5900879469504146,-2.8932148170167,1.798830176538324,0.1493756516717652,-0.3018577667924762,,,,,,
11,11,11,11,0.598,-2.54,-6.31,3.31,-2.25,2.49,-1.33,-2.2,-10.5,-5.54,,,,,135,598000000.0,-0.9067721234024362,-4.050835071068745,7.1553931061924825,-1.1002137278451494,1.8281278142024229,-0.8215381742956105,-1.6320923856584597,-8.437296612279773,-1.8840334213157373,,,,,,,,,,-0.032727906331001116,1.8074492522641492,-3.6322774793286903,0.1997150039312897,-0.12747870719038526,0.6930576111749244,,,,,,
12,12,12,12,0.648,-1.07,-4.87,5.73,-2.77,1.57,-2.53,0.602,-7.8,-3.48,,,,,135,648000000.0,-0.9689899645196972,-4.549664632669135,6.608825855949372,-2.1881209160714743,1.7357710403881137,-1.9859606934871288,-0.7225343824246491,-8.02706175500745,-2.548724647836986,,,,,,,,,,-0.9221328637155576,1.8671587669271497,-3.678698481023618,-0.5787065328453588,0.16636324546181794,1.1434509742968548,,,,,,
13,13,13,13,0.698,-5.0,-3.65,6.41,-1.8,1.46,-3.59,-2.32,-5.14,-2.9,,,,,135,698000000.0,-2.505511189323106,-4.001814848502799,6.532585328352464,-1.9352504749624728,1.6370998252373898,-3.0792127599997143,-1.372907133035694,-6.1686276233245625,-2.6950248721611585,,,,,,,,,,-0.8030422785411699,1.920520672712647,-3.4885037287104823,-0.9297678657496472,0.26703913602540563,0.6078698192828096,,,,,,
14,14,14,14,0.748,-15.0,-3.62,2.89,-2.43,0.431,-2.48,-11.7,-3.72,-6.35,,,,,135,748000000.0,-7.268118693211655,-3.7693090239721783,5.135818724388235,-2.257592113778669,1.2055525593481184,-2.6708121680118544,-5.577359721894192,-4.592418565977544,-4.217260798630107,,,,,,,,,,-0.2390560818722305,1.239753089711383,-2.686641091439017,-2.273351601461799,0.020492391044522253,0.7757693782295662,,,,,,
15,15,15,15,0.7979999999999999,-11.6,-6.1,8.17,-3.29,0.584,-2.32,-8.12,-4.5,-0.861,,,,,135,798000000.0,-8.919333234827079,-5.1885808114328436,6.299291422629638,-2.9302314513227987,0.9831579216215908,-2.4317119043312,-6.612541172269535,-4.532927698082677,-2.8194339605754206,,,,,,,,,,0.13542913422206773,1.4273115254523676,-2.7945503356799253,-2.852915343522715,0.5679564232280704,1.4154306932257277,,,,,,
16,16,16,16,0.848,-18.2,-2.1,7.22,-3.42,1.68,-1.48,-14.6,1.36,-1.22,,,,,135,848000000.0,-12.456914045653438,-3.3077926808883733,6.652342025532953,-3.2493278666251064,1.2324918221914318,-1.783061315326134,-9.864464515635305,-0.7395840084948064,-2.1532962484700926,,,,,,,,,,0.8801051389681479,1.571319990027739,-3.178733271469717,-3.7083288028633983,0.050480862913836494,1.6440158650440686,,,,,,
17,17,17,17,0.898,-6.94,-3.2,10.7,-1.77,2.45,-0.149,-2.64,1.53,3.22,,,,,135,898000000.0,-10.353990621561154,-3.242152469021136,8.204438572377956,-2.2855090319437856,1.6681231734780353,-0.6693473347363674,-6.923178039347862,0.7213726650423393,0.08459262770558684,,,,,,,,,,1.3842986929398928,2.1612291308101463,-3.7890717302047903,-2.2472408570107203,-0.15892827174780508,1.3719855190772388,,,,,,
18,18,18,18,0.948,-19.7,-3.07,7.42,-0.921,1.91,0.052000000000000005,-14.8,2.21,0.8059999999999999,,,,,135,948000000.0,-13.91647958931154,-3.1373203614269385,7.903641313991178,-1.3964975327909368,1.7546680811280633,-0.17770445258070014,-10.130058106913692,1.6796188081341188,0.3850468471297677,,,,,,,,,,2.5171409960594464,1.796772789382692,-3.7151134210252272,-2.456717168980396,-0.6207354666383246,0.694130289284534,,,,,,
19,19,19,19,0.998,-2.23,-5.28,11.5,0.341,2.06,1.72,3.66,-0.087,5.62,,,,,135,998000000.0,-9.461856152574953,-4.442103026346027,9.282684880114648,-0.2644747712761641,1.8639175869332696,1.1156986755610931,-4.515730120414731,0.5424264607446699,2.5653180887010083,,,,,,,,,,2.65575952432419,2.295842807885419,-3.857929529512688,-0.3125293096062409,-0.38074062284569976,0.5335696954410045,,,,,,
20,20,20,20,1.05,-6.68,-4.46,-0.867,0.6659999999999999,-0.362,1.78,-0.0967,-0.0679,-6.66,,,,,135,1050000000.0,-8.40147501294941,-4.453001393066267,5.390732221863464,0.3417526423311841,1.0674713769661641,1.568461148627632,-2.716616280347636,0.14955246855493787,-1.2768740510464314,,,,,,,,,,1.9357167619954203,1.210309349439604,-1.8636366835181788,0.0029026948963476558,-0.712649697066831,0.1923698998666621,,,,,,
21,21,21,21,1.1,-11.4,-3.23,3.05,-0.354,-0.486,2.24,-4.54,0.507,-2.89,,,,,135,1100000000.0,-9.544445239354845,-3.708255978503543,4.493165515597201,-0.11154747423462412,0.5116303054302934,2.0261564705164954,-3.4589680473338698,0.3796454739812208,-1.9487143377635519,,,,,,,,,,1.926355197493096,0.9552685390364688,-0.9993695485702822,-0.5574867096198404,-0.5095471042355677,0.6795231815450778,,,,,,
22,22,22,22,1.15,-6.46,-3.48,-1.81,-0.4970000000000001,-0.0538,2.13,0.693,-0.4970000000000001,-7.83,,,,,135,1150000000.0,-8.368724009833885,-3.5692597494337677,2.076181932635816,-0.3626793675099497,0.3093160599631902,2.096932344853474,-1.768582824308155,-0.1846610596293772,-4.398172385671064,,,,,,,,,,1.0038270153556152,0.40513043664939385,-0.29794445574474226,-0.5801105594449039,-0.845675615019618,0.8196137987071606,,,,,,
23,23,23,23,1.2,-10.8,-1.79,3.77,-0.652,-1.19,1.94,-3.59,0.649,-2.36,,,,,135,1200000000.0,-9.295471880561811,-2.4857813525203527,2.72568581199588,-0.551178947084505,-0.2271479496545292,1.9899732720669627,-2.5101339357560555,0.3519759114215221,-3.5493072970162385,,,,,,,,,,1.3413949148190798,0.6248649086946629,0.2922202363265104,-0.9406876781544852,-0.22379777376346865,1.0565883772143532,,,,,,
24,24,24,24,1.25,-4.82,-4.25,0.57,-1.3,-0.745,1.3,2.36,-2.13,-5.76,,,,,135,1250000000.0,-7.589522589257731,-3.5601004628145603,1.8990761865286423,-1.0390544178470686,-0.41243842108054496,1.5197137248376391,-0.5273628420824372,-1.2456999052395323,-4.47002429241604,,,,,,,,,,0.5014832424429965,0.47824635224466,0.5483421797551047,-0.9353102204633604,0.036994365686440434,1.3419716690176262,,,,,,
25,25,25,25,1.3,5.72,-6.07,3.62,-1.04,-0.00977,-2.0,12.7,-3.64,-2.86,,,,,135,1300000000.0,-2.516231604565399,-5.088501279792722,2.5589738774578055,-1.0396704632355005,-0.2683613226105942,-0.8791891533447853,4.857875679459038,-2.7869378088174717,-3.79947579413195,,,,,,,,,,-0.8559210699630071,1.109023040135056,0.09196145258729643,-0.02939912820050705,0.8159272416913683,0.8751224780946325,,,,,,
26,26,26,26,1.35,-7.43,-13.2,-0.235,0.6890000000000001,-0.546,-6.79,-1.06,-9.3,-6.6,,,,,135,1350000000.0,-4.389249682956397,-10.027989871971947,1.4876091731706902,0.08660125626752002,-0.3677020544859472,-4.9077727738994055,2.4485388670698254,-6.979469143353008,-4.9658477073985745,,,,,,,,,,-0.963584132545637,0.3590255375056584,0.1813860830004743,-0.5180990536573922,1.44647053885113,-1.218432250959412,,,,,,
27,27,27,27,1.4,-13.4,-12.1,0.807,-0.557,2.39,-6.61,-8.39,-6.3,-5.33,,,,,135,1400000000.0,-7.823945167325318,-11.289738516486025,1.2266258219948378,-0.33272092435808165,0.6190197871548054,-6.067946137853784,-1.9641411517586087,-6.542087354625693,-5.1175110748598875,,,,,,,,,,-0.8079218802998885,0.1333471835304002,-1.3910365687739534,-1.6871623198069787,0.6281034119504274,-1.6542400404470157,,,,,,
28,28,28,28,1.45,-10.0,-9.8,4.18,-0.401,-0.54,-3.29,-6.56,-2.49,-1.36,,,,,135,1450000000.0,-8.653408393028677,-10.382563912601992,2.359113385750896,-0.3772064323313577,0.20431577127942926,-4.17460378162239,-3.8352470141667774,-3.93371326447011,-3.552569945308134,,,,,,,,,,0.1885148729033576,0.40992757252383455,-0.9106754289092552,-1.7118461356498282,0.8205909824104896,-0.9797063265043788,,,,,,
29,29,29,29,1.5,4.26,-7.76,2.04,-2.39,-0.848,-3.93,6.2,0.269,-3.25,,,,,135,1500000000.0,-3.7311070752755287,-8.785556485314473,2.236747582023945,-1.6885914678652112,-0.17220891702064012,-4.007891201714694,0.2503896461077475,-1.2283795839130884,-3.4265545738699323,,,,,,,,,,-1.1736228137090765,1.118416204557685,-0.4884480269607897,-1.5052647732438131,1.3126641881600476,0.23920764161423025,,,,,,
30,30,30,30,1.55,1.64,-5.59,1.57,-2.25,-3.73,-4.95,1.13,3.2,-2.74,,,,,135,1550000000.0,-1.6837617044204205,-6.839625780424647,1.9810795617241093,-2.054363060798293,-1.4452072270837435,-4.649996562234446,0.6085042348537202,1.6222180732250928,-3.1406159676777854,,,,,,,,,,-1.4752939103204161,1.5240015698832925,1.2851312206023189,-1.7815253766930412,2.4969699877727995,0.5959263543395638,,,,,,
31,31,31,31,1.6,1.37,-6.77,-2.33,-0.451,-3.45,-3.99,-1.99,1.91,-5.43,,,,,135,1600000000.0,-0.5197363316186772,-6.797227222242976,0.3279723382100006,-1.0097322342291877,-2.162533736552873,-4.200168038202984,-0.449421333850021,1.8074665070380032,-4.094106431748853,,,,,,,,,,-1.1576194669983484,1.0330245330681609,2.7634191490632185,-1.304586893061634,2.5907002057628405,-0.0013350175890462373,,,,,,
32,32,32,32,1.65,7.49,-17.3,3.79,3.22,0.199,-1.46,2.67,-9.36,0.555,,,,,135,1650000000.0,2.533395163539681,-13.192879315990545,1.65550593901512,1.7460433176246937,-1.3175632560551909,-2.3325738484678604,0.8205845460623759,-5.381156766206024,-2.157830592596068,,,,,,,,,,0.16701215366189032,0.5266975666547188,1.6699287582488118,1.4770588283869668,2.10838178587512,-1.4216889282000928,,,,,,
33,33,33,33,1.7,-1.37,-19.1,3.84,-1.05,-0.506,0.21,-6.67,-11.8,0.096,,,,,135,1700000000.0,1.045508599794004,-16.790014544399913,2.4931622110127503,-0.07564827097159887,-1.0271812054242668,-0.5996523144491129,-2.22904718482162,-9.513038300694275,-1.219147475537953,,,,,,,,,,0.3127632385695638,0.2568249056495418,0.5942060310842306,0.4452479419973924,2.154209544605927,0.3298948957430967,,,,,,
34,34,34,34,1.75,2.68,-10.5,1.5,1.56,1.57,0.139,-2.22,-2.88,-2.35,,,,,135,1750000000.0,1.6685400345809875,-12.95971673027634,2.1123286794818825,0.9900171373308628,-0.0978946741525929,-0.09621501863376468,-2.2253638281749057,-5.2432771947287655,-1.6901287845011783,,,,,,,,,,0.5369463321471968,0.4966364905573633,-0.16929413758678555,1.2131191441192106,0.7191710230190779,-0.556748922587212,,,,,,
35,35,35,35,1.8,4.69,-13.7,5.72,2.69,1.52,0.135,0.0501,-6.59,0.754,,,,,135,1800000000.0,2.8202527300006324,-13.410511341205805,3.4957100792760576,2.0975982034799623,0.4809974256660002,0.06137233929087585,-1.298957273973029,-6.1101778734998735,-0.6721896189651662,,,,,,,,,,1.0185656197248718,0.7357835340555204,-0.9752536795565174,2.3070253760865245,0.4302198928621535,-1.2988118810960505,,,,,,
36,36,36,36,1.85,7.93,-11.7,-1.95,2.93,0.494,0.753,3.79,-5.38,-8.22,,,,,135,1850000000.0,4.767973553524426,-12.368897123054493,1.4075224737199583,2.639928677749067,0.4856498178947998,0.5327594366359065,0.7729031008724403,-5.6401542570925045,-3.815727756543112,,,,,,,,,,0.3185257228125453,0.20246684750971566,-0.29473827951838555,2.947350444945848,-0.3235942482871401,-1.6278869965161438,,,,,,
37,37,37,37,1.9,7.28,-3.29,-2.61,1.68,0.402,0.74,3.58,2.39,-9.7,,,,,135,1900000000.0,5.7255016921053885,-6.8403121403435625,-0.13301865315215755,2.0145112844423188,0.4557194310295221,0.6740067214078874,1.9157526879430065,-0.4710537925707587,-6.266429618593823,,,,,,,,,,-0.5955224663040534,0.39356443201734176,0.2647803026813407,2.5828862916586037,-1.0516917165005155,-1.2345176371526418,,,,,,
38,38,38,38,1.95,-0.206,-4.08,1.04,0.202,0.282,0.973,-3.69,1.19,-6.45,,,,,135,1950000000.0,3.464546474830076,-5.159422887218009,0.31678180919964705,0.8336152003979749,0.3935616120047424,0.8777891504982811,-0.3665099536294016,0.5981852082616599,-6.342883562949963,,,,,,,,,,-0.553927321175838,0.5247204336394153,0.11183385321979304,1.4187063276862983,-1.0132014803432206,-0.3695713896042344,,,,,,
39,39,39,39,2.0,-1.52,-8.49,-0.00239,-2.03,-0.173,2.0,-4.5,-2.64,-7.29,,,,,135,2000000000.0,1.5645493241185158,-7.187574216300561,0.19439361729183727,-1.0321011593966218,0.1908425807323013,1.6426453425800391,-2.0493722454567105,-1.4862710116223896,-6.737341858143295,,,,,,,,,,-0.877068225429545,0.22160696324945567,-0.0305455145600154,0.08840076765315101,-0.7266118296730458,1.1895037151916563,,,,,,
40,40,40,40,2.05,2.37,-6.87,2.29,-3.32,-0.0538,1.49,0.0518,0.139,-4.16,,,,,135,2050000000.0,1.8715689868620973,-6.994187657927048,0.9979654367269722,-2.5227239965615595,0.1033080445200044,1.5386080948360996,-1.1939247898628025,-0.4400658261385544,-5.663921593368392,,,,,,,,,,-1.4059288424723797,0.7341022093240561,-0.3586814307247784,-0.6068184695635486,-0.2417131950466423,2.332188756826304,,,,,,
41,41,41,41,2.1,8.41,-6.07,5.69,-1.35,-0.47,-0.5329999999999999,6.26,1.83,0.303,,,,,135,2100000000.0,4.363871970782006,-6.431404649478298,2.7971520094475735,-1.7586652211428926,-0.10182490156094473,0.1266788894018156,1.8407817654772032,1.021201044863884,-3.178797565085276,,,,,,,,,,-1.3438349337002509,1.6389089506690242,-0.2986511086793533,0.3088974726056444,0.6614599961601355,1.639592317621944,,,,,,
42,42,42,42,2.15,5.59,0.103,-0.809,-0.662,-1.47,-0.831,2.83,8.03,-5.88,,,,,135,2150000000.0,4.831244493541393,-2.452285735002075,1.4143531115659325,-1.0441606104772565,-0.5913659045741723,-0.5260385623124157,2.243520835415425,5.532843402063426,-4.3038036929749115,,,,,,,,,,-1.4598281369458053,1.7430948683679022,0.9366589807349208,0.4223665624432192,0.5369089878589521,0.9246063852396518,,,,,,
43,43,43,43,2.2,-1.09,-4.67,-10.7,-4.06,1.41,0.211,-4.12,3.63,-14.9,,,,,135,2200000000.0,2.574199077338778,-3.8027605763303085,-3.2309623806001166,-3.009054789074465,0.1247344225049568,-0.023701140629823425,-0.3472508718958527,4.307961827119966,-8.716943815107776,,,,,,,,,,-2.934390260808244,0.4007060137755195,0.30797768455692354,-1.3680885225881148,-1.1131737493192022,1.917180930488463,,,,,,
44,44,44,44,2.25,-2.87,-22.8,-15.9,-4.24,3.71,0.654,-5.24,-13.7,-18.5,,,,,135,2250000000.0,0.4989927151898903,-15.371109298411186,-8.088974635715118,-3.8110459971222417,1.407563273030468,0.4381941457918443,-2.339229208243969,-7.283965135113753,-12.79142470145144,,,,,,,,,,-4.085892773476184,-2.104092803439128,-1.3621117573541006,-2.0941520924660475,-2.6791698388429843,2.0129046610429056,,,,,,
45,45,45,45,2.3,-12.3,-44.9,5.73,-1.06,1.92,3.63,-13.7,-35.3,4.21,,,,,135,2300000000.0,-4.379695901534685,-33.35269750523952,-2.7900125310734034,-2.018671211326131,1.5909160933917632,2.6136075809129933,-6.964524596906112,-25.318200638205827,-5.710612853607882,,,,,,,,,,-0.5328270803801969,-3.1511373356126966,-3.194076686239434,-0.8990381537456134,-0.8854846991721781,1.6412802109594646,,,,,,
46,46,46,46,2.35,-0.752,-7.94,8.38,0.17600000000000002,-2.72,-1.05,-0.931,1.85,7.77,,,,,135,2350000000.0,-2.9968996959687537,-17.877661827811295,1.4931904702750778,-0.5887884456869772,0.048445279131208,0.11663216101575813,-4.508103769307747,-7.829725033424079,-0.09616085696787824,,,,,,,,,,0.6932763149788211,0.02449270420828439,-0.9852933483997682,-0.3652214327513386,0.921443911185472,0.4712642400018602,,,,,,
47,47,47,47,2.4,-2.33,-7.22,5.53,1.77,1.7,0.243,-3.07,2.5,4.47,,,,,135,2400000000.0,-2.7426924820614684,-11.387689615790462,3.041127445904665,0.9480207597480964,0.6393811629549089,0.20275966968943693,-3.9226104718046115,-1.1803651255557988,1.8055694335682253,,,,,,,,,,1.5978595047205142,1.0641882970893042,-1.471785480010074,0.656941934080731,0.16699622615269571,-0.6733279679278923,,,,,,
48,48,48,48,2.45,0.414,-6.27,5.23,2.99,-1.16,1.8,0.328,3.29,3.08,,,,,135,2450000000.0,-1.5394322088485235,-8.271277835910809,3.8804627154785134,2.278420923228638,-0.004447851007372439,1.2913778388614772,-2.1920650936262644,1.6972590405830281,2.3363486271968044,,,,,,,,,,2.3630103318144395,1.4262784703202116,-0.19872993301923064,1.7998027299832893,0.4250678723004108,-1.0784594612693754,,,,,,
49,49,49,49,2.5,-3.26,-6.19,2.53,2.67,-2.99,0.976,-3.1,2.98,-0.957,,,,,135,2500000000.0,-2.1952740014149645,-7.0038858974614575,3.3626203224340374,2.533544460506296,-1.072695745110571,1.0764283179071072,-2.561711382776388,2.5229738013298464,0.9647234571150018,,,,,,,,,,2.49894905944457,1.200241374548238,1.53759762603022,1.5487449866524967,1.0953165952548158,-1.1461124875071682,,,,,,
50,50,50,50,2.55,-0.28,-12.2,0.608,3.59,-1.11,0.6920000000000001,-0.13,-3.68,-4.32,,,,,135,2550000000.0,-1.4652145716241691,-10.168054059208927,2.306345948286296,3.2218514099567668,-1.086043429187797,0.8144165925603238,-1.571691967512689,-1.4699500775297405,-1.2362764153287753,,,,,,,,,,2.188612061327932,0.4181066286610862,1.8216353585031642,2.07278032639991,0.9772362419294636,-1.724823721962249,,,,,,
51,51,51,51,2.6,-8.24,-37.5,0.251,4.14,0.975,1.11,-7.82,-30.2,-6.25,,,,,135,2600000000.0,-4.047610520779312,-26.811814109964647,1.518212195081535,3.8200479179730897,-0.3485901168870552,1.0158749998628374,-4.115557356449513,-19.963806066962842,-3.324409257364416,,,,,,,,,,2.51100336962875,-2.0703330946449734,0.31031018031809304,2.325273116530969,0.9953785810162809,-2.2713925731386917,,,,,,
52,52,52,52,2.65,0.728,-8.28,-2.16,1.68,-0.82,0.943,1.52,-2.25,-9.85,,,,,135,2650000000.0,-2.2272550611919835,-15.526885021344588,0.10778139422413258,2.4257535489169166,-0.5172633071428201,0.9662061870064698,-1.8211604109849624,-8.561230345315263,-6.0422098919269445,,,,,,,,,,1.0473998798312791,-1.0829439859652041,1.2055069828591738,1.554711735470533,0.13656894379666795,-1.3447905896086627,,,,,,
53,53,53,53,2.7,4.0,1.19,-3.95,-1.14,-1.42,-0.643,4.46,7.05,-11.8,,,,,135,2700000000.0,0.1464346973525581,-5.347155241166249,-1.4481972964334364,0.10257661855884814,-0.8402677210751368,-0.13056749159469616,0.7360800686534175,1.4878939153032942,-8.440234198104053,,,,,,,,,,-1.0494520919014971,0.002602959727434215,1.9941092729975316,0.19234256982345385,-0.17141370847897372,-0.001496922144775855,,,,,,
54,54,54,54,2.75,-4.37,10.3,3.81,-3.17,1.37,-1.52,-4.62,17.0,-3.33,,,,,135,2750000000.0,-1.5751287217217962,4.181163783377507,0.5680874573464734,-2.02958832400137,-0.04942109768215075,-1.0775517801683416,-1.4445336224018392,11.47321065436768,-6.311906252085789,,,,,,,,,,-1.3924702718638766,1.7823063533475725,0.4526281019594387,-1.5659096464761646,-0.7005847996786284,1.0755481271767882,,,,,,
55,55,55,55,2.8,-7.28,-9.88,2.41,-0.741,2.66,0.8490000000000001,-7.03,-2.42,-3.96,,,,,135,2800000000.0,-3.7496975954900345,-4.381367346188503,1.2743790210998462,-1.1900410457767403,0.9200255305596023,0.2355125531305173,-3.718537187612079,2.5299950193814595,-5.332376263290966,,,,,,,,,,-0.3186096505168197,0.7373003796238878,-1.251038979965153,-0.9620237074471468,-1.1922320343153388,0.6660673757156325,,,,,,
56,56,56,56,2.85,0.855,-12.3,5.78,0.0467,2.31,0.618,2.42,-4.8,-0.327,,,,,135,2850000000.0,-1.9944902912316904,-9.203410580145238,3.0020843345012147,-0.384273557850608,1.4173664443564946,0.4962014156683724,-1.219362695230093,-2.18840514299516,-3.2477199390955582,,,,,,,,,,0.022338322727693916,0.8058129554895362,-2.3040233008791815,0.3404824453410293,-0.9042054552962064,0.2930649735850245,,,,,,
57,57,57,57,2.9,9.03,-6.46,40.9,0.7979999999999999,-2.18,-0.463,11.3,1.04,35.1,,,,,135,2900000000.0,2.207797684205402,-7.532813584210624,17.53424985753236,0.3860069950121584,0.1302078231828787,-0.1575537518107023,3.8776288257708496,-0.11024455294322476,12.72346971335982,,,,,,,,,,3.174870439067452,5.329655166499071,-3.059782156666629,2.628516115075947,4.123672255687852,1.031501487491001,,,,,,
58,58,58,58,2.95,-1.86,-21.0,8.51,-1.86,4.99,-0.233,-0.8029999999999999,-13.5,2.33,,,,,135,2950000000.0,0.6572445686024517,-15.733642743933007,14.07385152845114,-1.077322317802074,1.869069594306238,-0.20897503914418614,1.9720106630009453,-8.729380372893278,8.394761669534851,,,,,,,,,,1.6438806069690064,3.508987675090669,-5.493978651298916,1.5927641293171042,2.2961857505976697,1.4405258682297517,,,,,,
59,59,59,59,3.0,-3.43,-15.9,-3.83,-1.86,-0.7490000000000001,-2.33,-1.74,-7.99,-9.33,,,,,135,3000000000.0,-0.9007212825284734,-15.834945589679467,7.208520869548732,-1.5872562632562188,0.9323090903918968,-1.6545848523419118,0.4607447067277,-8.253432783369758,1.012692001143801,,,,,,,,,,-0.07718599693834681,1.6404735140322624,-3.0783004507761347,0.032176709853069994,1.6210899568888664,1.05048059329616,,,,,,
60,60,60,60,3.05,-11.1,-22.5,-2.89,-3.35,0.866,-0.767,-10.5,-13.8,-7.35,,,,,135,3050000000.0,-4.788457388372216,-19.893623540049926,3.3361872635230205,-2.7357274971848278,0.9085833117166396,-1.0496408209596362,-4.001688672903585,-11.82382045830646,-2.4702306852336844,,,,,,,,,,-0.5057120652889646,-0.012932878579523473,-2.8134131438444383,-1.6628162976990013,0.8405337331040811,1.6514667473372118,,,,,,
61,61,61,61,3.1,-2.89,-15.9,18.4,-2.05,3.82,-1.45,-2.1,-6.61,15.4,,,,,135,3100000000.0,-4.064808113286992,-17.461710407091076,9.112489255144132,-2.2889589818384315,1.950305080307129,-1.3225104280864453,-3.2274566600008767,-8.467625813984045,4.972424292020516,,,,,,,,,,0.8800438260540049,2.1090289251073004,-5.247689405724541,-0.7264600637087096,1.3296913303561229,1.4254862137983833,,,,,,
62,62,62,62,3.15,-3.69,-6.73,7.48,-0.453,0.509,-0.887,-3.47,2.81,5.22,,,,,135,3150000000.0,-3.921939700902607,-10.92664652911834,8.486502247115558,-1.0927861422853693,1.4345977566772232,-1.0256831169036191,-3.3262030183050038,-1.208091574657904,5.075535386974981,,,,,,,,,,1.4721181427540715,2.5928080563326747,-3.881333424600364,-0.2820083261677745,1.035922587662545,0.6580733240116474,,,,,,
63,63,63,63,3.2,-5.78,1.58,1.73,1.21,0.37,0.7390000000000001,-5.61,11.1,-0.79,,,,,135,3200000000.0,-4.6301906328792715,-3.3107371081255925,5.895684175536285,0.40753620977820737,1.0536785008221117,0.17705772878204673,-4.256002293071494,6.714765319462407,2.632637026978073,,,,,,,,,,1.9722217025414652,2.4107647906578937,-2.1402862879229847,0.12621152700090818,-0.22221445954937244,-0.2724729622688312,,,,,,
64,64,64,64,3.25,-1.33,4.06,5.49,2.23,1.66,2.05,-0.394,13.3,2.28,,,,,135,3250000000.0,-3.3722321057809803,1.1776655521984614,5.740122251503749,1.5949166153698735,1.2706238411134363,1.4535838448123866,-2.6836704457747738,10.953754895201442,2.485769533256644,,,,,,,,,,2.3703142054905317,2.7261451424045826,-1.8570199039507724,1.2330353610915337,-1.0764165082822306,-0.7973504661642766,,,,,,
65,65,65,65,3.3,1.54,-1.61,1.47,1.29,-3.74,1.16,3.2,7.1,-2.72,,,,,135,3300000000.0,-1.4997995755635631,-0.5198804948758822,4.1027203163710055,1.3962558475247844,-0.5222064604134018,1.25348825027286,-0.2882595218577868,8.473049567022747,0.3176527221427881,,,,,,,,,,1.6843956990572209,2.1299879864815883,0.8614731344688544,1.2163838941241507,0.3770033474228579,-0.3195787487383337,,,,,,
66,66,66,66,3.35,-13.6,-30.7,1.98,1.33,-0.0953,3.28,-12.0,-22.4,-3.03,,,,,135,3350000000.0,-6.11212433937596,-18.89803333963674,3.2887515021047773,1.3530885463423372,-0.3694568493170334,2.6346814894139285,-5.056444808680656,-11.400278602295801,-1.0765891851028424,,,,,,,,,,2.555335946289718,-0.6701281381157607,-0.07011694328502269,0.7789689506710539,0.8796807244625472,-0.002753295830284492,,,,,,
67,67,67,67,3.4,-10.1,-24.4,3.19,3.61,1.36,2.8,-6.41,-17.2,-2.35,,,,,135,3400000000.0,-7.632213114678379,-22.24844998218492,3.250884715509341,2.823522306946668,0.2493528563612363,2.7473562599995534,-5.607515867045505,-15.133624832420555,-1.6069436611613033,,,,,,,,,,3.2414086198743015,-1.351035391323948,-0.7457077521339412,1.5464397432221388,0.2676965849803066,-1.1792809699692772,,,,,,
68,68,68,68,3.45,-4.27,-9.14,-2.94,-0.5479999999999999,-0.109,1.19,-0.154,-2.94,-9.31,,,,,135,3450000000.0,-6.350612986980528,-14.266073209624874,0.8769557790718725,0.6268918565526542,0.1211321249770858,1.685921561251616,-3.3872332223599617,-7.284451747033143,-4.815139232726722,,,,,,,,,,1.1227965265643225,-0.7942451330180423,-0.15916492278563854,0.10839790570981236,-0.3187135481561369,-0.024007171883052916,,,,,,
69,69,69,69,3.5,2.71,-4.21,-3.54,-1.42,-1.04,-0.779,6.79,2.21,-9.73,,,,,135,3500000000.0,-2.8969108128216807,-8.142437911885951,-0.8167502789915762,-0.7067089642058919,-0.2943276763157203,0.0059248762073107475,0.7562101556841759,-1.1727666011761473,-6.8620971579066845,,,,,,,,,,-0.8845272465322851,-0.0781243571311266,0.7439750338839278,-0.412502602750068,-0.2142236392923597,0.5295397424364512,,,,,,
70,70,70,70,3.55,6.0,0.517,-1.16,-1.74,1.71,-3.33,9.43,7.74,-6.84,,,,,135,3550000000.0,0.4943917549322467,-2.86928219083134,-0.9483712662657844,-1.3799237266837332,0.4228324154785311,-2.2677144676519543,4.287558775386129,4.564481117651623,-6.852894121134199,,,,,,,,,,-2.4247272432079297,1.0534790436824994,-0.1917606457298219,-0.4140948702523107,-0.6412739230821706,0.27465119618746026,,,,,,
71,71,71,71,3.6,-7.25,6.22,13.7,1.33,-3.59,-2.75,-5.09,14.1,8.34,,,,,135,3600000000.0,-2.457596434759913,2.6656266171079217,4.6686274737290505,0.3856588699403905,-1.0129822874362864,-2.596421925730477,0.4696857111622066,10.702601860302249,-0.5253052617227025,,,,,,,,,,0.6144489130393166,2.7737569648621934,1.266426501496562,-0.14267694585179058,1.4450717290437558,-0.5644138317353365,,,,,,
72,72,72,72,3.65,-3.35,-7.65,-1.12,0.0846,5.33,2.25,-1.53,-0.285,-7.33,,,,,135,3650000000.0,-2.7977605931428617,-3.6160635394414133,2.448946317007601,0.18951154487136684,1.2565735701054996,0.7067147539600134,-0.3444436548026345,3.629759259620285,-3.3593478976499105,,,,,,,,,,0.26289019050698265,1.2112459709410672,-1.597319477299786,0.4819829385705402,-1.3564998433786395,-0.09757737409163043,,,,,,
73,73,73,73,3.7,8.69,-1.6,11.5,-1.26,1.84,0.455,12.6,5.7,6.19,,,,,135,3700000000.0,1.5811155576752438,-2.3883837586672367,5.9196228086700895,-0.7548811975013654,1.4653269455824722,0.5351555694622327,4.9256105882065615,4.962396330395112,0.6177973812712216,,,,,,,,,,-0.2740139041843332,2.8328220050086714,-2.6433671019553886,1.2851427951001688,-0.3803048714804369,0.9163619219434348,,,,,,
74,74,74,74,3.75,0.919,-22.0,-9.47,-1.45,-3.11,-0.07200000000000001,4.11,-14.6,-15.1,,,,,135,3750000000.0,1.3287319901792367,-14.33085706939847,0.01838689790087411,-1.207768381353368,-0.17175155878235104,0.12134145004279985,4.5935521911561725,-7.630137931339298,-5.928405088525668,,,,,,,,,,-1.6957776880712885,-0.13837200547475947,0.06489120405789517,0.4884341439735331,0.5325276083785757,1.1608279553750542,,,,,,
75,75,75,75,3.8,1.3,-19.9,-3.59,-0.369,0.531,-2.42,4.88,-12.1,-8.39,,,,,135,3800000000.0,1.3177799826980543,-17.722180631833446,-1.3652689415302417,-0.6612899546175781,0.07969703505940767,-1.610740184594959,4.710173352271924,-10.507438544222216,-6.953618746306118,,,,,,,,,,-2.132308272497935,-0.7071880073115002,-0.19380655077340408,0.537449026791617,0.4567193112174236,0.13218142423069232,,,,,,
76,76,76,76,3.85,-10.5,-20.6,-9.2,-2.79,0.8690000000000001,-2.41,-8.42,-12.2,-13.7,,,,,135,3850000000.0,-3.18689230677993,-19.474625974950712,-4.369539736238418,-2.0481973592456293,0.3621142243037585,-2.155485305188151,-0.6354966506080819,-11.596959221778588,-9.763374733956127,,,,,,,,,,-2.599475185247752,-1.8211301677850067,-0.5120343330886068,-1.5955243155226728,-0.364294387174421,0.5143899145411174,,,,,,
77,77,77,77,3.9,-11.9,-15.8,16.8,-1.69,4.56,-0.515,-10.1,-6.67,13.8,,,,,135,3900000000.0,-6.5081331083478835,-17.2369664258905,3.748036827473944,-1.8148229264633664,1.8641421040164927,-1.0373929652408322,-4.488767436517198,-8.425420337279263,0.05038069521814848,,,,,,,,,,0.2976717151614092,0.4984907122964681,-4.064471716176282,-1.2755962564503398,-0.08448760293761695,0.740506564745357,,,,,,
78,78,78,78,3.95,-4.29,-8.44,8.24,-1.42,-1.22,-1.93,-2.78,1.01,6.1,,,,,135,3950000000.0,-5.662630574537232,-11.880062615665945,5.47050481141929,-1.5575859623455002,0.7606181448449609,-1.6457599025379723,-3.793079216561469,-2.3517344029325944,2.569946909759732,,,,,,,,,,0.8396413295793071,1.6977732956941247,-2.6194556583643758,-1.212794997212039,1.13738721249146,0.7268117382315409,,,,,,
79,79,79,79,4.0,-4.93,-0.764,2.74,0.266,0.0819,-0.267,-3.99,8.8,0.799,,,,,135,4000000000.0,-5.383368189753269,-5.1109478475875525,4.423477674228323,-0.3694744444809093,0.5177688527173218,-0.7060496358267265,-3.873251316471518,4.826762282156847,1.8323768603656039,,,,,,,,,,1.3361114141617405,1.9980861451960912,-1.4771212494795154,-0.6494941721240401,0.33319214204197384,0.06438187799163038,,,,,,
80,80,80,80,4.05,-4.86,2.91,3.45,1.34,0.7490000000000001,1.09,-3.84,8.71,0.473,,,,,135,4050000000.0,-5.183872042119039,-0.2265999466874433,4.050192305260017,0.7442906072675373,0.6005047041689102,0.5180694424980314,-3.859713717382851,7.326445997246213,1.2662189061415403,,,,,,,,,,1.8934558484091941,2.072811753947085,-1.0171379602592303,0.0982851904331908,-0.4587382078590921,-0.4461388507663539,,,,,,
81,81,81,81,4.1,2.1,1.87,2.13,1.73,0.361,1.92,4.13,11.0,-0.737,,,,,135,4100000000.0,-2.407423659539909,1.0501224129297622,3.313884011268504,1.3865047545203448,0.5148085311520789,1.4735719092813937,-0.6068721768853322,9.691153927637572,0.4319114112902108,,,,,,,,,,1.583342782441741,2.1437732703823857,-0.4316186266998603,1.1747455652329752,-0.8321403358274759,-0.5664745742109344,,,,,,
82,82,82,82,4.15,-4.69,-6.85,2.64,1.67,-1.71,1.91,-1.96,1.8,-1.08,,,,,135,4150000000.0,-3.2774905132384804,-3.7606488548741552,3.0554795078985584,1.571208915386106,-0.28124089044206796,1.7710246582036937,-1.1577693190564078,4.611529571661492,-0.1977746710117333,,,,,,,,,,1.8925155697318208,1.3641059273143867,0.5601686918947212,1.138963483294141,0.028649266412888705,-0.4383452903614481,,,,,,
83,83,83,83,4.2,-18.8,-73.2,3.34,1.01,1.61,6.92,-0.423,0.759,-1.84,,,,,135,4200000000.0,-9.194322186679198,-46.04566764755617,3.1645804280817766,1.2055673715058843,0.3954560843423807,5.2803702799749725,-0.858623668983552,2.1316130615318105,-0.8817343379679256,,,,,,,,,,2.8698322616924816,-1.7055918364418048,-1.4125310718821569,1.3261798362870043,0.19375721758132453,0.6270175173912343,,,,,,
84,84,84,84,4.25,-5.89,-13.3,-7.15,1.17,-0.7979999999999999,1.55,-0.0816,-7.25,-12.2,,,,,135,4250000000.0,-7.934788736820417,-26.105227510808273,-0.7906024045383746,1.1823943182216845,-0.031569423059875035,2.7378918810763406,-0.5422750597537453,-3.9074365318148994,-5.595604467895223,,,,,,,,,,1.2186508977145871,-1.7853425241365763,0.25064429220245715,0.6032888297472453,-0.4602118360386571,-0.1883150130090266,,,,,,
85,85,85,85,4.3,1.86,-6.34,-2.86,-0.706,-1.19,-0.0409,7.73,-0.55,-8.17,,,,,135,4300000000.0,-4.2012352662799595,-14.069212870230105,-1.5841242942470823,-0.04794143107942528,-0.4460626289050017,0.8439731248435682,2.8256052645268266,-1.7462169721113256,-6.667797604893263,,,,,,,,,,-0.535561432763104,-0.6927081454089662,1.055210599013132,0.1366594174637582,-0.16861989008119033,0.313506755657355,,,,,,
86,86,86,86,4.35,9.24,-3.44,-4.95,-1.58,0.688,-2.37,14.6,2.89,-10.2,,,,,135,4350000000.0,0.9222616255198854,-7.5965647839434824,-2.8747878382924146,-1.0461156426240557,-0.04028842844176711,-1.3465485220301996,7.6192990509137175,1.2381679806662955,-8.138901327126737,,,,,,,,,,-2.7669231669398866,0.15955526241445564,0.7249885318926191,0.19984224689474092,-0.4948240581699231,0.3849090746841327,,,,,,
87,87,87,87,4.4,0.0144,2.53,5.91,0.416,-0.521,-4.43,4.4,10.1,1.44,,,,,135,4400000000.0,0.5762051653165655,-1.4300037095391218,0.4937874870658017,-0.09351100592426886,-0.2122898292764885,-3.4481115443978334,6.3086301590979925,6.942628930544834,-4.149447534255211,,,,,,,,,,-1.6885819458576077,1.7739861843756644,0.6312469831330422,0.3207423819625914,0.3836117508752698,-0.7216118199191994,,,,,,
88,88,88,88,4.45,-15.8,-6.57,4.53,0.544,-1.71,1.48,-13.3,1.31,-0.7390000000000001,,,,,135,4450000000.0,-5.6660364893942825,-4.559999208674814,2.0414955333117764,0.3218432568195376,-0.7481792365447409,-0.08929831757474105,-1.6746053730859105,3.3168424506574548,-2.729052625111671,,,,,,,,,,0.9702676232657872,0.9258366614057516,1.0981756259829532,-0.3704122835965675,0.5478162299786845,-0.07297798786146227,,,,,,
89,89,89,89,4.5,1.08,-3.56,-1.42,-0.404,4.43,3.09,5.68,3.77,-6.04,,,,,135,4500000000.0,-3.0945988864441336,-3.9510506958778113,0.7141659819370783,-0.15106164970595548,1.1046032933292909,2.0775903202456307,1.319665237441324,3.6085450375094568,-4.1080073591216895,,,,,,,,,,-0.019647996285696412,0.7880564199525488,-1.1257024807846452,0.5048210750708628,-1.72297638183391,0.4975668127720156,,,,,,
90,90,90,90,4.55,1.29,-1.64,-13.7,1.55,-2.92,-0.293,6.9,5.18,-18.0,,,,,135,4550000000.0,-1.4232882882337896,-2.5437387697991247,-4.813025449095468,0.9572222046256196,-0.3354231560221765,0.4618861985122802,3.591579528469807,4.620108118748932,-9.893792232349329,,,,,,,,,,-1.3372261752033447,-0.4877379316185093,2.152135114042184,0.6284769325321455,-1.6777079396840149,-0.7707902081952237,,,,,,
91,91,91,91,4.6,-1.51,-37.4,-6.22,-2.04,1.35,-1.43,3.19,-30.2,-11.0,,,,,135,4600000000.0,-1.4563408414864667,-23.769423718651108,-5.352537525925887,-0.9955424283565316,0.2676310419823027,-0.8275513739103477,3.4280850137241226,-17.793986664639444,-10.354509447955015,,,,,,,,,,-2.6375252005470093,-2.6181511456885533,-0.1250848022469774,-0.10856502041223187,-0.3724020110111454,0.26703149874368104,,,,,,
92,92,92,92,4.65,0.23,-18.0,-3.94,-0.29,-0.878,-3.4,4.59,-10.0,-7.76,,,,,135,4650000000.0,-0.8135455881329908,-20.256139146363953,-4.8108922371082485,-0.5358640191724684,-0.14228240298407546,-2.580834488480912,3.9011339751493503,-12.776909996807301,-9.273939325207367,,,,,,,,,,-2.6153541081653198,-1.8364886503264823,0.5004147994224049,-0.1247415661541259,0.1715615227093018,-0.4656458687664398,,,,,,
93,93,93,93,4.7,-10.5,-22.1,-4.55,-2.4,0.644,-2.29,-7.45,-13.4,-8.02,,,,,135,4700000000.0,-4.505804441852755,-21.378956527551203,-4.710851741943442,-1.7503949409614383,0.13905400312645755,-2.3826127472980723,-0.720237989215478,-13.177999777637622,-8.751694553074433,,,,,,,,,,-2.2532604906525315,-2.0399586509842607,-0.29225223580560883,-1.6352629651044537,-0.017456509004676313,0.2513146013604505,,,,,,
94,94,94,94,4.75,-10.1,-11.9,8.15,-2.15,0.7509999999999999,-2.46,-7.85,-2.68,5.84,,,,,135,4750000000.0,-6.638186282435098,-15.606755577536035,0.22071269717106026,-2.010747617319157,0.35801182868117243,-2.4353569785808964,-3.622968452470625,-6.420319571778141,-2.6744953574492305,,,,,,,,,,-0.6014811203681507,-0.07364841255032974,-1.4103276163460043,-2.0743322050915585,0.6381095121926803,0.5681882397365408,,,,,,
95,95,95,95,4.8,-5.56,-4.9,3.74,-0.526,0.354,-1.29,-4.26,4.69,2.15,,,,,135,4800000000.0,-6.227205866972054,-9.086887963522676,1.5702028416594551,-1.0433977078806744,0.3565763738572765,-1.6547252401000447,-3.882322350312835,0.7315178358606582,-0.6651728985728513,,,,,,,,,,0.3443556956447575,0.9414727759080672,-1.1432930949510909,-1.4311055819868888,0.3137507581796369,0.13184602794283398,,,,,,
96,96,96,96,4.85,-6.79,-1.84,1.63,0.687,-0.0379,0.67,-5.77,7.79,0.0778,,,,,135,4850000000.0,-6.441730334985831,-4.673903096461843,1.5931323902446382,0.08399933232149981,0.21543043697971687,-0.07028100813268856,-4.6508500274207005,5.275141979495854,-0.35573699123909264,,,,,,,,,,1.2858795295870504,1.1729268002351114,-0.44457111332474863,-0.7684919434407641,-0.27469318675006005,-0.2493692393465256,,,,,,
97,97,97,97,4.9,-2.47,3.66,3.33,1.18,1.01,2.34,-0.721,13.1,1.32,,,,,135,4900000000.0,-4.927795951488753,0.4010185777133897,2.2591438325194315,0.7980709360475979,0.4997320358656706,1.5724747083155792,-3.050895431422872,10.312091131044026,0.3421797360103861,,,,,,,,,,1.708800466712794,1.8223637725245985,-0.4536612542492453,0.22327340265131396,-1.032813537958991,-0.284553057402245,,,,,,
98,98,98,98,4.95,2.45,0.172,1.3,1.88,-0.00855,2.05,5.37,9.17,-1.27,,,,,135,4950000000.0,-2.1155458297610545,0.2615579565902588,1.8913548177002824,1.5029745717538698,0.3178657726099733,1.897937735082308,0.3774924522777563,9.576914304360104,-0.3292664172023898,,,,,,,,,,1.3632826155808728,1.7769482766670672,0.08915641267255522,1.3258433789158928,-0.9793810555515506,-0.5549047138093481,,,,,,
99,99,99,99,5.0,-17.9,-21.9,4.47,2.06,-1.24,3.31,-14.2,-13.6,0.973,,,,,135,5000000000.0,-8.132225078394448,-13.233699476976808,2.8801504651271115,1.86589042643362,-0.2395476479927372,2.8603455781729497,-5.5574225375128,-5.34232573362528,0.21310597489449712,,,,,,,,,,3.1591067633088703,-0.14838777969330566,0.07567321833244749,0.6679304566425573,0.265673957710379,-0.4536366999882146,,,,,,
100,100,100,100,5.05,-8.03,-31.2,4.02,2.12,1.77,3.5,-2.24,-24.4,0.017,,,,,135,5050000000.0,-8.09325907280925,-24.174259957043795,3.3172320533129778,2.031449046090239,0.4794801594968125,3.296309680234633,-4.206804726471677,-17.609964248443546,0.13143108439606105,,,,,,,,,,3.0927965426656754,-1.3127350978829455,-1.4374093069813738,1.3954534048080227,0.40785980367663177,-0.4435753976573005,,,,,,
101,101,101,101,5.1,-4.09,-9.29,-3.08,-0.171,-1.06,1.69,2.43,-3.48,-7.54,,,,,135,5100000000.0,-6.5673066898804215,-15.11050531514333,0.8641781424658843,0.5964988249484853,-0.07135475811540082,2.2015101939273825,-1.5047712391646528,-8.514347729865015,-3.0635929017806722,,,,,,,,,,1.28972619186319,-0.7133702880586984,-0.038591397489103035,0.3633976530329948,0.04132358935849535,0.24530843428536825,,,,,,
102,102,102,102,5.15,2.85,-6.78,-3.63,-1.29,-1.27,-0.605,9.33,-1.1,-8.31,,,,,135,5150000000.0,-2.977640938789339,-10.037652896396818,-0.8591393155773299,-0.6326019578466142,-0.5002369772341442,0.2886996775190576,2.9063746995035324,-3.741648919402736,-5.248634748560999,,,,,,,,,,-0.7745531510215105,-0.12324036682074868,0.8531329591493017,-0.06820689787996674,0.2601426016087249,0.6759261375721649,,,,,,
103,103,103,103,5.2,8.31,-2.37,-4.85,-1.48,1.02,-3.41,14.1,4.19,-9.25,,,,,135,5200000000.0,1.3249544145867254,-5.368443571115083,-2.389456835841667,-1.1847028272878748,0.04371263170282491,-2.2321932704554692,7.463620600107727,1.3640425232823032,-6.9151371102100185,,,,,,,,,,-2.8377490190761763,0.6128252810033149,0.4376217494318899,0.052921082240591874,-0.2766513315591108,0.2444088955429108,,,,,,
104,104,104,104,5.25,-3.28,5.68,9.07,0.934,-2.03,-3.4,1.34,13.4,5.16,,,,,135,5250000000.0,-0.4303507651668854,1.3594945447152824,2.0047350208418173,0.1956846611660452,-0.6982737760376161,-3.0281259435229684,4.970519122760495,9.111723153986947,-1.8860425405813783,,,,,,,,,,-0.7215429694074563,2.355183242873156,1.146871124578959,0.28788769255798285,0.9488017628683298,-0.6573362939013229,,,,,,
105,105,105,105,5.3,-9.54,-9.17,2.11,-0.191,2.41,3.17,-5.79,-1.42,-2.59,,,,,135,5300000000.0,-3.902744426519239,-5.0524302522766265,2.0450994178796664,-0.05624999292418782,0.4138846559465048,1.1962807868744156,0.5896033337205981,2.332334817033688,-2.179229128624706,,,,,,,,,,0.5146145653141541,1.054129207975186,-0.5653207251485803,0.2795775244353231,-0.5054528520833614,0.4027044884199713,,,,,,
106,106,106,106,5.35,3.2,-2.54,3.67,0.529,2.46,2.24,8.9,4.47,-0.133,,,,,135,5350000000.0,-1.1953377681596875,-3.5224884402795187,2.6681765439210667,0.3250548932098097,1.1459966178438568,1.9076400743046675,3.9730038937697714,3.708373745754254,-1.3270085841701724,,,,,,,,,,0.2597461884751969,1.5719804844085123,-1.4748402701452712,1.419535209355751,-1.1451623131099562,0.3243280220608291,,,,,,
107,107,107,107,5.4,4.09,-8.66,-10.4,-0.222,0.214,-0.0751,10.1,-2.08,-14.5,,,,,135,5400000000.0,0.8193143329097352,-6.6509706677641365,-2.3428877348324835,-0.031364949568121026,0.8125228180902011,0.5562799251228268,6.467479805321094,-0.017667333260946272,-6.813341354358499,,,,,,,,,,-1.7896093145961316,0.12140507371983653,-0.31893584229926203,1.1441906612375332,-1.5325854871590934,0.029293806232408418,,,,,,
108,108,108,108,5.45,-2.41,-34.9,2.27,-0.963,2.33,-3.43,3.29,-27.7,-1.15,,,,,135,5450000000.0,-0.4116277896724576,-23.85318862499927,-0.5740504795804124,-0.6383483079409733,1.3554849357650929,-2.16061675834342,5.173836672852708,-17.837095969352234,-4.454653459470287,,,,,,,,,,-1.9270261275355811,-0.9998211318483956,-2.5978053030425534,0.7386294751179727,0.20338644250787727,-0.22619765793241906,,,,,,
109,109,109,109,5.5,-3.66,-19.0,-6.7,-1.31,-1.7,-2.45,0.836,-10.9,-9.96,,,,,135,5500000000.0,-1.6498343470660917,-20.897844459950512,-2.9230795619737364,-1.075946018536559,0.2622146709304194,-2.3578493914401237,3.407779021708908,-13.371609211193604,-6.747539136867914,,,,,,,,,,-2.215725928228449,-1.3260188830177309,-0.603093649302759,-0.3151302147234352,0.3821330420646217,0.014279360763544557,,,,,,
110,110,110,110,5.55,-10.5,-21.4,2.3,-2.03,1.64,-2.93,-7.18,-12.6,-0.33,,,,,135,5550000000.0,-5.023318709816884,-21.203631321440586,-0.9202608936463744,-1.6975358485882328,0.7551942548973742,-2.7478055097705907,-0.9028092659286908,-12.874915949725215,-4.074740371030095,,,,,,,,,,-1.3265793550487033,-0.8821902403677917,-1.928833378159664,-1.3531840494645857,0.4889694232211717,0.22318730607573398,,,,,,
111,111,111,111,5.6,-11.9,-11.2,8.84,-1.61,-0.0476,-2.49,-9.93,-1.76,7.26,,,,,135,5600000000.0,-7.644555014640293,-15.111930317585616,2.82236507589212,-1.6405040798997312,0.4679498097069505,-2.572095095551956,-4.578037518724215,-5.7201198327231335,0.6459913771248882,,,,,,,,,,0.4127084597892305,0.6643345941311145,-2.0244818398892783,-1.895967423705456,1.1603195730377411,0.37661800537241785,,,,,,
112,112,112,112,5.65,-5.92,-2.66,1.99,-0.467,0.0904,-1.06,-4.75,7.01,0.858,,,,,135,5650000000.0,-6.987193407483548,-7.529340355091286,2.503190096993354,-0.8759370502616333,0.3328602970713064,-1.5415086053854108,-4.648048374466368,2.474401288225532,0.7342894493900003,,,,,,,,,,0.8713287271324649,1.3310507432566823,-1.2142047532547178,-1.4560949281971083,0.42943699335564695,0.0714160754011327,,,,,,
113,113,113,113,5.7,-6.66,-0.0455,2.11,0.595,-0.43,1.13,-5.62,9.64,1.02,,,,,135,5700000000.0,-6.862474571500195,-2.972063554767224,2.3524191438785764,0.08241496551094007,0.05990445164957215,0.2792899515781793,-5.0437576973758755,7.086977801022452,0.8532831541967194,,,,,,,,,,1.6940896439755877,1.5471302406973262,-0.3097221537988481,-0.8056885120682526,-0.09985903890138016,-0.08801829457451532,,,,,,
114,114,114,114,5.75,-1.0,3.23,4.26,0.922,0.211,2.54,0.924,12.7,2.79,,,,,135,5750000000.0,-4.627830942267806,0.8046766073183438,3.0838916397385256,0.6294254482092211,0.11396731437112187,1.820103828602885,-2.6141124521377384,10.700143048192585,1.6598936311192825,,,,,,,,,,1.9327282200723797,2.1509338403557496,-0.1093815375836804,0.2557243341230038,-0.4648034743563256,0.06621260772262455,,,,,,
115,115,115,115,5.8,1.24,-1.38,-0.431,2.0,-0.392,1.87,4.24,7.7,-2.58,,,,,135,5800000000.0,-2.3911455811734053,-0.525679937367898,1.7360870423748986,1.5223887865749035,-0.06707072429324551,1.854111162713333,0.17639311944283564,8.768917182427831,-0.10595181868458647,,,,,,,,,,1.484599779375772,1.6586414886656025,0.5796895058722775,1.2312201385713912,-0.580468432323652,-0.5089486724364045,,,,,,
116,116,116,116,5.85,-22.3,-28.2,1.6,2.87,-0.129,3.14,5.02,7.1,-3.56,,,,,135,5850000000.0,-9.979953420737894,-17.377928818082367,1.6839037239916947,2.4003908654806088,-0.08922937622280848,2.730524111492813,2.1483643234823804,7.694616404758244,-1.5445056607722394,,,,,,,,,,2.501672129816962,-0.036695605619714224,0.5080827134826861,1.248949651181542,-0.4766795477197122,-0.9333272031976848,,,,,,
117,117,117,117,5.9,-6.5,-30.5,-0.0479,1.87,0.622,3.23,-0.563,-23.6,-3.68,,,,,135,5900000000.0,-8.653473340213226,-25.368600415117307,1.0198340278966669,2.0548280553427576,0.16525261592428658,3.0709478748866177,1.0444901717299466,-12.4500795592803,-2.433903715494277,,,,,,,,,,2.12097057366284,-1.6520311381552257,-0.4111516669737896,1.5305793764815276,0.07593733461354846,-0.5332505443197929,,,,,,
118,118,118,118,5.95,-2.51,-9.65,-3.36,-0.457,-1.92,2.37,4.2,-3.78,-7.45,,,,,135,5950000000.0,-6.311719288243897,-15.796774810063429,-0.6596374641882503,0.4183097415559172,-0.5808628600442654,2.5932084106830127,2.3291886035474656,-6.86905204662089,-4.5230246682794055,,,,,,,,,,0.6421602116645581,-0.9883454774925232,1.0007710599008244,0.5316807008312019,0.12327664091166493,0.5829800991207005,,,,,,
119,119,119,119,6.0,3.38,-6.52,-2.63,-0.909,-1.35,-0.585,10.0,-0.885,-7.16,,,,,135,6000000000.0,-2.6174535382816884,-10.147692427289758,-1.4151838977633555,-0.4464654857435565,-0.8560646022600185,0.4270625680327291,5.45219582069168,-3.017050594494941,-5.621281160124059,,,,,,,,,,-0.9904857966908952,-0.1803976927695583,1.5291053404587147,0.2568737160622676,0.4486621906786024,0.686249447537345,,,,,,
120,120,120,120,6.05,9.31,-1.13,-3.99,-1.18,1.23,-3.01,15.4,5.21,-8.41,,,,,135,6050000000.0,1.9290240071483584,-4.6563780007272975,-2.402511347414636,-0.9243813940487636,-0.1096585706868204,-1.9155084217284928,9.502231918535504,2.2787942086999915,-6.782736310130409,,,,,,,,,,-2.8780419093969973,0.7384222519843356,0.7804215283759142,0.4899439897848731,-0.21986810399900755,0.23470796186680404,,,,,,
121,121,121,121,6.1,-2.71,6.97,8.28,0.838,-2.04,-2.92,2.31,14.4,4.27,,,,,135,6100000000.0,0.16073223850324592,2.423492661635413,1.6937564880404583,0.2238538264442161,-0.8003459264988471,-2.6001316921504207,6.574068102899412,10.08135013602316,-2.1794546864130933,,,,,,,,,,-0.8938475919108898,2.4147691956122346,1.4475759429153237,0.545057815881473,0.8573456571364234,-0.5108687934427777,,,,,,
122,122,122,122,6.15,-10.0,-4.5,2.16,-0.366,0.7340000000000001,2.06,-5.94,3.09,-2.51,,,,,135,6150000000.0,-3.7123106699450727,-1.7925609930533488,1.87254016902551,-0.1604505795733977,-0.2513480370597747,0.5760366174634917,1.4792322165728713,5.580939552330087,-2.3171213314746733,,,,,,,,,,0.3311681678828147,1.4253860378338494,0.4985483005564063,0.04068699206467246,-0.02328500467251731,0.434890767522002,,,,,,
123,123,123,123,6.2,0.6679999999999999,-4.66,-1.59,-0.0486,2.9,2.02,6.3,2.37,-5.47,,,,,135,6200000000.0,-2.042634635548838,-3.538684900789272,0.5448100170652224,-0.08757715044028885,0.8762226189858561,1.5601870738365324,3.4419050548658463,3.5140216607379853,-3.630242995525356,,,,,,,,,,-0.3246137788311519,0.9733846142870628,-0.8090798486694291,0.7641962540667632,-1.3581938194264496,0.4095359091874167,,,,,,
124,124,124,124,6.25,-3.08,-10.8,-7.08,-0.0382,-1.62,0.685,3.16,-4.2,-10.8,,,,,135,6250000000.0,-2.4380549830650127,-7.960455293594321,-2.3789654395488204,-0.0554067103624226,-0.0169403269101307,0.9636928845962048,3.327133460657082,-1.4515805140636882,-6.616328130835036,,,,,,,,,,-0.9244365310351602,-0.3333958597122977,0.7237443389666657,0.37939167910165,-0.8676223296559926,0.2374867771576369,,,,,,
125,125,125,125,6.3,8.68,-24.6,-2.53,-0.19,2.54,-3.11,14.8,-17.9,-6.17,,,,,135,6300000000.0,1.7998979694478372,-18.093088966888992,-2.4368804644121282,-0.14309757763437428,0.8979477520053385,-1.8127810272089269,7.998066396895956,-12.039612449779264,-6.430439887642177,,,,,,,,,,-2.5204361677621065,-0.7999103604163587,-1.1632786555568926,1.2800750296772012,-0.2839279038124462,-0.4575301927324278,,,,,,
126,126,126,126,6.35,-4.61,-22.7,-6.31,-0.799,-1.6,-3.77,0.0447,-14.8,-9.82,,,,,135,6350000000.0,-0.6434112142622603,-20.89846311311931,-3.9220495059159934,-0.5704343015608349,0.0041675366756034355,-3.146746954089215,4.760022939299498,-13.816505011342151,-7.842135413709945,,,,,,,,,,-2.5859499810007827,-1.53794551452294,0.018900702329591124,-0.006294833824901686,0.4990239742389079,-0.5422975342719581,,,,,,
127,127,127,127,6.4,-8.15,-21.3,-0.527,-1.71,0.6509999999999999,-2.96,-4.73,-12.6,-3.45,,,,,135,6400000000.0,-3.504754107997775,-21.14297811812722,-2.6201990378759645,-1.3128896631458962,0.2356079552461127,-3.0194673656999065,0.8963625443158172,-13.03342733140041,-6.012883770778176,,,,,,,,,,-1.884524448637637,-1.2804071071019645,-0.7827097426054347,-1.019339224973446,0.5821153918560215,-0.07092196064710134,,,,,,
128,128,128,128,6.45,-14.0,-12.6,6.83,-2.1,0.772,-2.77,-12.0,-3.25,4.82,,,,,135,6450000000.0,-7.50530610762693,-15.940740711544668,1.0035319139276844,-1.8257115216733344,0.4275321480209216,-2.8494398935443006,-4.354116344975154,-6.735725384014421,-1.5011670093420948,,,,,,,,,,-0.220732798191392,0.09627758694961913,-1.6974567384745278,-2.1350141354716143,0.8523051815484709,0.3261603533369786,,,,,,
129,129,129,129,6.5,-4.09,-3.61,3.83,-0.7390000000000001,-0.244,-1.48,-3.14,6.07,2.52,,,,,135,6500000000.0,-6.203468188975725,-8.431948917443298,2.08735667285129,-1.117692007555365,0.18725404608742746,-1.9160818101344481,-3.8598148188097214,1.5074638417930322,0.17358244859797778,,,,,,,,,,0.4496059226222113,1.2165236486097115,-1.0279719754981271,-1.5076998188269692,0.6354481184041584,0.17877607320964645,,,,,,
130,130,130,130,6.55,-7.31,-0.285,3.25,0.32,-0.0886,0.12,-6.79,9.45,2.14,,,,,135,6550000000.0,-6.6252532396438895,-3.4708728462058884,2.533178673808554,-0.18099998555341013,0.08855186620682265,-0.5283659644835745,-5.052777189586429,6.620163362644124,0.9925628371151448,,,,,,,,,,1.4377175241087077,1.6462820886736933,-0.5043428125232073,-1.0265164670234843,0.1300650428736956,-0.1192718623104248,,,,,,
131,131,131,131,6.6,-4.92,3.56,3.6,0.999,0.462,2.25,-3.94,13.2,2.12,,,,,135,6600000000.0,-5.975249035577347,0.8105698253390052,2.9422571630439887,0.5877993012063139,0.22217378086187486,1.3652625035962225,-4.599733719236067,10.855677911862431,1.462121696598598,,,,,,,,,,2.097006385459911,2.0356628980751696,-0.2885538225424697,-0.2101947621646656,-0.5887093360360127,-0.13994155334102526,,,,,,
132,132,132,132,6.65,1.86,-0.263,0.194,1.32,-0.0501,2.32,4.08,9.08,-1.78,,,,,135,6650000000.0,-2.9886280858017886,0.1568205899258137,1.888422787176388,1.0648462639797005,0.12475264192147965,2.01597518847326,-1.0659653329694443,9.712654067033386,0.11183171382009503,,,,,,,,,,1.5092509591517742,1.7723170457760518,0.21459006928191204,0.8201788139304151,-0.7763403411122674,-0.21033797417951414,,,,,,
133,133,133,133,6.7,-12.7,-14.3,2.57,1.8,-0.999,2.79,-9.46,-5.41,-0.114,,,,,135,6700000000.0,-6.690384859032718,-8.646645386896296,2.1497773057726164,1.5438171385601087,-0.27733258159379554,2.543521006629501,-4.483417491596589,-0.021967940223381888,0.017776544929822072,,,,,,,,,,2.607347775174161,0.41092923434870204,0.3871251049853435,0.5483532652637882,-0.029637429413560845,-0.3526849173419968,,,,,,
134,134,134,134,6.75,-5.2,-47.2,0.443,1.8,1.11,4.41,0.0524,-39.6,-2.97,,,,,135,6750000000.0,-6.122283553697067,-32.1236710410676,1.4953041230899922,1.7107266002196226,0.2190630749871127,3.815641927039452,-2.636756163215521,-25.498790277018088,-1.226582918154302,,,,,,,,,,2.358268936075802,-2.462044639475676,-1.1727077129523868,1.7307315863699628,0.7991403356302457,-0.004261160526899196,,,,,,
135,135,135,135,6.8,-4.68,-15.4,-2.59,0.306,-0.507,2.38,1.61,-8.98,-6.54,,,,,135,6800000000.0,-5.572517392819196,-21.939808723786307,-0.0712282586649271,0.7955123509153283,-0.04072651860529264,2.8371631229314493,-0.9077799824190274,-14.865459333269387,-3.439533122729012,,,,,,,,,,1.1668570220748908,-1.6045658083252563,-0.1869510702879189,0.8686535390699799,0.1854172115911164,0.2897771189274433,,,,,,
136,136,136,136,6.85,1.75,-9.35,-2.31,-0.493,-1.27,0.398,8.34,-3.52,-6.64,,,,,135,6850000000.0,-2.7813382342169843,-14.273258029282225,-0.929697617747034,-0.04398542724938948,-0.4805676996243626,1.1747223993890663,2.8572564148447404,-7.562259847347428,-4.772474519401406,,,,,,,,,,-0.3304166772194815,-0.6338088997271175,0.7699828355853028,0.5329352712094021,0.3311516112102718,0.5282883193258961,,,,,,
137,137,137,137,6.9,9.31,-3.54,-6.82,-1.01,0.293,-2.38,15.5,2.65,-11.2,,,,,135,6900000000.0,1.8276084762787592,-7.737251693541639,-3.1883666433285045,-0.6733678918152439,-0.2037806814482641,-1.2480411365743518,8.004479755416401,-0.9885135363763241,-7.44943235804524,,,,,,,,,,-2.6550546376177158,0.07474763122483025,0.9641429341580786,0.5828994051144212,-0.2798121326506802,0.19768697548391925,,,,,,
138,138,138,138,6.95,0.333,4.44,6.29,-0.0761,0.642,-3.63,5.68,11.8,2.69,,,,,135,6950000000.0,1.2578972972555418,-0.3219269063353876,0.4461653468835287,-0.2842330355261416,0.09884456331045338,-2.87149369392123,7.058117341692093,7.243596242260144,-3.2265266736056284,,,,,,,,,,-1.7571865793589805,1.994501893490304,0.1679918539223365,0.5130478975709446,0.08430502958757308,-0.4635322630306576,,,,,,
139,139,139,139,7.0,-15.5,3.96,-4.05,0.219,-3.57,1.37,-11.4,11.8,-8.34,,,,,135,7000000000.0,-5.129836752234742,2.285548052572252,-1.2779141449172589,0.04363577534448332,-1.213889295998729,0.019346936036100267,-0.4567112080393052,10.176604588659242,-5.356203694689608,,,,,,,,,,0.07480620586706166,0.9127310433800776,2.6004145454936505,-0.8046780804904924,-0.22136986093404168,0.013220822541668516,,,,,,
140,140,140,140,7.05,-5.41,-6.5,3.42,0.0938,4.26,2.74,-0.156,0.78,-0.521,,,,,135,7050000000.0,-5.236628631354812,-3.0644022955720622,0.5235269931507653,0.07631901334286834,0.7447001531260122,1.8736404947708,-0.33428305612758624,4.127904762672648,-3.3424214419280687,,,,,,,,,,0.5475785307578885,0.7402581445300238,-0.6262655102010386,0.09294602373679564,-1.4652288157748508,0.2667312505221042,,,,,,
141,141,141,141,7.1,3.07,-4.13,-7.72,0.105,-0.66,0.232,9.26,2.52,-11.4,,,,,135,7100000000.0,-2.0703283982558456,-3.713296978968637,-2.6374988517293807,0.0950053858806838,0.2420902743629589,0.7547608267823025,3.5718247066401583,3.092878413295715,-6.698269313014093,,,,,,,,,,-1.044515009629168,0.1253760906476796,0.6326134003549194,0.4134650884137551,-1.4242067955744395,-0.03365334213002448,,,,,,
142,142,142,142,7.15,4.32,-37.3,0.804,-1.44,0.83,-0.21,10.6,-30.7,-2.73,,,,,135,7150000000.0,0.3655213190100484,-24.16588438313052,-1.317837114142664,-0.9050887593740512,0.4524477811685363,0.09721658048026917,6.4331964991992585,-18.659977082743712,-5.045550869569562,,,,,,,,,,-1.8177792208139896,-1.3583844656570667,-1.1535459633007286,1.0056864833127146,0.5585786745655812,0.8221141728414927,,,,,,
143,143,143,143,7.2,-0.883,-13.7,-3.34,-0.321,-1.62,-4.16,4.85,-6.4,-6.4,,,,,135,7200000000.0,-0.11038697085767996,-17.792694858181545,-2.093246601057401,-0.5245404418365748,-0.2890860676510602,-2.804340063132168,5.788631780364367,-10.768092333878796,-5.6096565414309545,,,,,,,,,,-2.1169518448378764,-0.6635529763160984,0.24391991810725575,0.27537609791798723,1.0129450373934306,-0.2713499447974257,,,,,,
144,144,144,144,7.25,-3.28,-23.2,-5.83,-1.85,1.1,-2.41,1.13,-14.9,-8.74,,,,,135,7250000000.0,-1.318572253776302,-21.085468164362773,-3.5261252874835134,-1.3881102576264253,0.2079369998328084,-2.535572947256985,3.8919692325515847,-13.427847414744024,-6.91339265579084,,,,,,,,,,-2.5465737624508242,-1.3738689945935898,-0.5270217710019515,-0.4739463998799168,0.4171159832609557,0.1748384399374544,,,,,,
145,145,145,145,7.3,-12.3,-19.2,0.101,-1.77,0.304,-3.41,-8.99,-10.2,-1.97,,,,,135,7300000000.0,-5.504445928776208,-19.937314751473966,-2.135284074880423,-1.6369208909188857,0.242308895461686,-3.1315491951781267,-1.3526496337255591,-11.350045693291486,-4.854551492817238,,,,,,,,,,-1.4294135318457308,-1.0435100057223092,-0.977845845273061,-1.686488180131586,0.6383155365632154,0.06648706205802966,,,,,,
146,146,146,146,7.35,-9.23,-7.21,6.38,-0.942,0.116,-2.08,-7.22,2.32,5.24,,,,,135,7350000000.0,-6.924543286324649,-12.187029695373194,1.1299486472761826,-1.1841626641108067,0.19711483822050446,-2.414853244571704,-3.7414160806010366,-2.5504839398382284,-0.6503380646415531,,,,,,,,,,0.17487598997991954,0.5710973073491106,-1.1043027926586724,-1.6792696986053968,0.7563161030858401,0.038065615809357925,,,,,,
147,147,147,147,7.4,-6.39,-0.6679999999999999,1.76,-0.4320000000000001,-0.519,-0.8340000000000001,-5.22,9.03,0.951,,,,,135,7400000000.0,-6.7207873410965995,-5.172528533679423,1.371545312363777,-0.6941100269488367,-0.0591152058796067,-1.3374038508281918,-4.343389895045076,4.9040033382396295,0.016592709609082656,,,,,,,,,,0.778744134694248,1.3017640575026144,-0.325423455801215,-1.4549350606008309,0.3284609315329382,-0.0014148393418886474,,,,,,
148,148,148,148,7.45,-6.28,1.41,1.06,0.698,-0.18600000000000005,1.48,-5.09,11.1,0.17,,,,,135,7450000000.0,-6.552769187198006,-1.1641046503744343,1.2520815208348304,0.21288421700563664,-0.1045153233879749,0.5828313673985996,-4.647356333820826,8.892436156655892,0.08048430626315936,,,,,,,,,,1.5425145392690087,1.4657809525051275,0.23328073137539254,-0.7529502737166093,-0.3760620036730381,-0.13562270934603918,,,,,,
149,149,149,149,7.5,1.08,2.55,2.5,1.09,-0.308,2.31,3.26,12.0,1.21,,,,,135,7500000000.0,-3.6433289968060034,1.0975954841313404,1.730602749505505,0.7843469415238907,-0.17732332135552967,1.7600037144987049,-1.4280448955692568,10.892809870787943,0.5509089029747823,,,,,,,,,,1.5291841846392835,1.9042250376526075,0.5840406637524554,0.42703869666275396,-0.49765804444507106,-0.052502971701974696,,,,,,
150,150,150,150,7.55,-0.326,-2.22,-0.642,1.42,-0.274,1.78,2.74,6.89,-2.58,,,,,135,7550000000.0,-2.3788376958748625,-0.9226508524870324,0.8208151222275129,1.198490658168647,-0.2119147942795772,1.7736324019315344,0.2688856698266038,8.316156157809157,-0.7530627731662433,,,,,,,,,,1.1583226545935823,1.4377586997270526,0.8370515678305378,0.96904264326767,-0.5670264162974485,-0.3242515732740005,,,,,,
151,151,151,151,7.6,-29.8,-52.0,-4.67,1.96,0.8140000000000001,5.97,-25.8,-43.4,-7.44,,,,,135,7600000000.0,-12.831168566878064,-32.02614948670367,-1.284668271974506,1.6946329200060244,0.15516347852630702,4.633716656673707,-10.344504687386596,-24.974114820190053,-3.5380614113354545,,,,,,,,,,3.333893866545437,-3.7517876995006656,-0.6620007253476485,0.002365237545214289,-0.24466426097213856,-0.2265342591327464,,,,,,
152,152,152,152,7.65,-4.47,-21.5,-6.83,1.54,-1.17,2.62,1.66,-14.6,-10.1,,,,,135,7650000000.0,-9.644078829962107,-25.616261705767627,-3.4110563010612585,1.5938857097552246,-0.3189876915980398,3.2612439683462133,-5.4571267119554605,-18.29618095406481,-6.271000321821767,,,,,,,,,,1.7498640234185647,-3.2896830408916684,0.7288232212754416,0.2082818899894841,-0.4450759561990435,-0.482072196164891,,,,,,
153,153,153,153,7.7,-1.48,-11.0,-1.54,0.195,-1.33,2.12,5.26,-4.93,-5.33,,,,,135,7700000000.0,-6.532115361157698,-16.71570434344741,-2.6935894205732485,0.6824769446282836,-0.6807337800465592,2.483415449058612,-1.093877108560954,-9.692220189269044,-5.879089239670857,,,,,,,,,,0.6803228494635759,-1.7729840466952609,1.3771856146758286,0.18177261056219196,-0.1805170673498704,0.16901065548600794,,,,,,
154,154,154,154,7.75,1.93,-6.68,-2.43,-0.624,-0.596,-0.453,8.74,-0.982,-6.6,,,,,135,7750000000.0,-3.3065470736026565,-10.604472517817584,-2.5925146279818727,-0.1687252201465571,-0.6504155472781262,0.4820664631137919,2.90977607497949,-4.0853537168106415,-6.1793365928122865,,,,,,,,,,-0.7996625211586066,-0.6318362371844453,1.4011111792209447,0.05029721285178642,-0.024991918947313292,0.3050644029046186,,,,,,
155,155,155,155,7.8,10.3,-1.35,-5.69,-1.07,1.19,-2.95,16.7,4.91,-9.74,,,,,135,7800000000.0,1.879963126017782,-4.9689711188420835,-3.780262512267013,-0.7559281431754187,0.008095840025421963,-1.8570994107373384,8.52417186711905,1.7050563041244438,-7.662293839354444,,,,,,,,,,-2.991844682945484,0.3358400423944137,0.8358958468142574,0.4208546721616644,-0.6426733688094027,-0.01615369099614467,,,,,,
156,156,156,156,7.85,-1.4,6.34,9.55,0.568,-0.92,-3.43,3.98,13.8,6.19,,,,,135,7850000000.0,0.6297148629333564,1.9176151736347744,1.3313002970365355,0.10664391432240328,-0.3239822453059594,-2.9291286170317026,6.674109240895064,9.49070739428567,-1.8930428356885336,,,,,,,,,,-1.1600701182255275,2.4227024345593065,0.7321525221203773,0.5632628209306121,0.5208213830010161,-0.6414845455360757,,,,,,
157,157,157,157,7.9,-15.0,-8.82,-1.39,-0.6779999999999999,0.374,3.77,-10.7,-1.08,-5.61,,,,,135,7900000000.0,-5.3279813827725055,-4.621044231561089,0.28780268351803273,-0.4045710534452992,-0.07424014138972462,1.6367423972927568,-0.3993886136075133,2.686224409182397,-3.441093994664265,,,,,,,,,,0.414504819081017,0.5609530966113333,0.35362770769246704,-0.33598836535071425,-0.5665183091818023,0.7212948667285977,,,,,,
158,158,158,158,7.95,-0.182,-5.68,7.44,1.07,2.29,2.85,6.07,1.14,4.18,,,,,135,7950000000.0,-3.3664488624742597,-5.265894140724197,3.0303522427238727,0.5561486211315201,0.7716986924799409,2.463652525180549,2.2344850175770783,1.6909023984960636,-0.26703462834783576,,,,,,,,,,1.0861152574907529,1.299617277402889,-1.1184316146868605,1.2211873810785627,-0.720583895746315,0.3715485383690448,,,,,,
159,159,159,159,8.0,1.25,-11.3,-7.27,-0.617,-0.245,-0.0311,8.04,-5.09,-10.7,,,,,135,8000000000.0,-1.6067622464578877,-8.940356743377952,-0.9193746698059028,-0.20818681270446399,0.40791799644682863,0.7633241805332385,4.598076576952028,-2.6740406582111764,-4.612191848561103,,,,,,,,,,-0.8968992167876989,0.1316387241626621,-0.2603848077900042,0.7081165088972662,-0.6614016336637543,0.35092988262191915,,,,,,
160,160,160,160,8.05,8.45,-23.6,-2.78,-0.336,1.19,-4.35,14.8,-16.9,-5.92,,,,,135,8050000000.0,2.2266495635956627,-17.867331488262337,-1.6328417113431684,-0.2914602736193582,0.6877514979485582,-2.7217228499747903,8.751572136669763,-11.831450062202798,-5.156872317137923,,,,,,,,,,-2.5872763870817046,-0.3846565404947309,-1.1230888311817149,1.212486459202231,0.3432130769249198,-0.4871446633207338,,,,,,
161,161,161,161,8.1,-4.59,-23.3,-7.71,-1.23,-1.33,-2.51,-0.0229,-15.2,-10.8,,,,,135,8100000000.0,-0.3717041989999008,-21.175548862991253,-3.9631616143818666,-0.9029422124854836,-0.0342117168602859,-2.577420609291094,5.179232993669406,-13.999823330929726,-7.507141622109435,,,,,,,,,,-2.6479216867137967,-1.516711448434213,0.00618732207218294,-0.021459473999868462,0.5281039685987885,-0.11499319249151077,,,,,,
162,162,162,162,8.15,-6.77,-21.1,-1.03,-1.69,1.25,-2.57,-3.14,-12.3,-3.38,,,,,135,8150000000.0,-2.8105908385317058,-21.129543693752037,-2.8384245929113314,-1.4157299332286954,0.4252866905614103,-2.572362959004169,1.792234713413738,-12.90562810285676,-5.788255532688883,,,,,,,,,,-2.034392577875074,-1.235899271144719,-1.0219110519486725,-0.8095694837014302,0.3575055254371643,0.10604473535034599,,,,,,
163,163,163,163,8.2,-14.4,-13.2,6.14,-2.0,0.682,-2.74,-12.0,-3.8,4.66,,,,,135,8200000000.0,-7.228213155001116,-16.30085619337285,0.6044018220894554,-1.7963963834043208,0.5171401963012958,-2.6866179906491516,-3.8229794177090586,-7.044233093381783,-1.4367301977326417,,,,,,,,,,-0.31337352430922405,0.02403885537328573,-1.779696681243878,-2.005087822315513,0.7228394146061008,0.3232227551275833,,,,,,
164,164,164,164,8.25,-5.04,-3.45,3.2,-0.5760000000000001,0.0977,-1.28,-3.58,6.21,2.33,,,,,135,8250000000.0,-6.394115435372231,-8.475340710539326,1.5996982879913726,-1.0012778330330567,0.3670620590546321,-1.7279206991356937,-3.724055500254857,1.4876654914455882,0.1320505180029694,,,,,,,,,,0.4465219850664927,1.1077637985542692,-1.188905242980255,-1.424869912387242,0.34708727558295666,0.07530305757770035,,,,,,
165,165,165,165,8.3,-7.76,1.28,2.59,0.232,0.179,0.0819,-6.68,11.0,1.89,,,,,135,8300000000.0,-6.914760039430712,-2.5348361494980285,1.9794349124784545,-0.19776671901338566,0.2997723644177305,-0.4944158106880745,-4.927505173695049,7.6108619469902825,0.8642073583500578,,,,,,,,,,1.3370027745533644,1.6459826024991018,-0.6836248564243678,-1.0829183684382822,-0.23304575348483775,-0.19230374281983453,,,,,,
166,166,166,166,8.35,-3.63,3.92,3.08,0.789,0.16899999999999998,2.13,-2.03,13.5,2.1,,,,,135,8350000000.0,-5.66268333523139,1.3958296560665575,2.4014526405570544,0.4451362736620205,0.2529812531816638,1.2942861714966116,-3.747847743622256,11.40176619031494,1.3788944882358942,,,,,,,,,,1.8293188608695805,2.066088066053125,-0.2634190666518741,-0.22044408994086773,-0.6938672301470639,-0.08098944142243462,,,,,,
167,167,167,167,8.4,1.04,-0.333,-0.211,1.11,-0.321,1.65,3.67,9.01,-1.61,,,,,135,8400000000.0,-3.1077710117892487,0.3430606326694341,1.3996932579474382,0.8783115027126633,0.04760742520930245,1.5367271586115876,-0.7278292501433019,9.862159604321858,0.13406942623660445,,,,,,,,,,1.2763422214802518,1.776390484118824,0.3157217373904268,0.6111671661867445,-0.6778458770254575,-0.22605259265842406,,,,,,
168,168,168,168,8.45,-11.1,-10.4,-0.132,1.63,-1.1,2.04,-7.76,-1.4,-2.15,,,,,135,8450000000.0,-6.154229333526615,-6.198914732682258,0.8123570243437351,1.3680552126143102,-0.3630131821727225,1.879738741538696,-3.5908276454563355,2.612581116206456,-0.817207703626704,,,,,,,,,,2.02289359071344,0.5039419436227648,0.7728469562724287,0.3275887213220747,-0.2462358427077023,-0.4851809767928432,,,,,,
169,169,169,169,8.5,-2.84,-52.9,1.68,1.79,1.32,6.11,2.36,-45.1,-1.15,,,,,135,8500000000.0,-4.890919519990632,-34.6374929582978,1.1450594921658552,1.6429626894777738,0.2391787234349045,4.762923858857472,-1.1680751624895942,-28.10054172126894,-0.95581017384927,,,,,,,,,,2.224505236180859,-2.719715694989496,-1.2492002654022274,2.200388932812863,0.8235876685803706,0.3643963244299279,,,,,,
170,170,170,170,8.55,-7.86,-19.2,-3.25,0.7140000000000001,0.395,2.69,-1.41,-12.6,-6.67,,,,,135,8550000000.0,-6.0226663611527,-25.23684814356121,-0.540250328455492,1.0377204315854702,0.2949324846052285,3.350097912557174,-1.266569685462644,-18.122669338256365,-3.335675636995978,,,,,,,,,,1.3422566150956607,-2.100188344008892,-0.6972949146879323,1.0998020555604653,-0.08986055539437122,0.16518729835356125,,,,,,
171,171,171,171,8.6,-1.04,-11.4,-2.01,-0.179,-2.16,1.62,6.11,-5.92,-5.84,,,,,135,8600000000.0,-4.123385845734446,-16.810913626927864,-1.1038339485752622,0.2449968678770731,-0.5834566405157025,2.1709290440085254,1.7366433505256094,-10.2676742152571,-4.378685324269232,,,,,,,,,,0.26781063120275306,-1.1123846498591894,0.8715955714607317,0.6208015698989304,0.35666951079764897,0.5944408602198669,,,,,,
172,172,172,172,8.65,3.98,-4.78,-2.63,-0.517,-0.8420000000000001,-1.28,5.9,-5.91,-6.18,,,,,135,8650000000.0,-1.0345571647477767,-9.484701415776415,-1.689050788487917,-0.2514630171633849,-0.6759649581696124,-0.18109279487670624,3.431665231483351,-7.462590329738719,-5.128902984110384,,,,,,,,,,-1.020925530609805,-0.28525013481824835,1.169273338420477,0.3460875419936617,0.5054842972025483,0.3135053247660459,,,,,,
173,173,173,173,8.7,5.11,1.45,-2.8,-1.13,2.02,-3.91,11.4,7.89,-6.76,,,,,135,8700000000.0,1.3076100640477681,-2.8260263335583087,-2.115050377196184,-0.8238516637995681,0.2886669477034074,-2.7225740436557024,6.675802587131858,2.420044242080726,-5.808227974377964,,,,,,,,,,-2.583296747277532,0.9682982571408812,0.1043135485989173,0.12700575998276514,-0.443539423409097,-0.2234008302455936,,,,,,
174,174,174,174,8.75,-5.36,8.75,9.48,0.805,-1.75,-2.18,-0.202,16.3,5.97,,,,,135,8750000000.0,-1.2339331816356682,4.223182861218752,2.331135512812003,0.23738562817808395,-0.4407799210911095,-2.3527762769726355,3.8756519864268832,11.354727011273653,-0.9027911666193208,,,,,,,,,,-0.27988964199408456,2.672251206469396,0.8307445323024436,0.22277586946201447,0.5211101631247804,-0.5819890889985967,,,,,,
175,175,175,175,8.8,-11.7,-10.2,3.95,-0.8540000000000001,1.54,3.47,-6.97,-2.66,-0.225,,,,,135,8800000000.0,-5.2233627010832855,-4.559799223400576,2.9518980539648703,-0.4736791789223981,0.2679546198855052,1.6158063778907223,-0.5399237620104662,2.3332899277435875,-0.6205023679641979,,,,,,,,,,0.9769151373281071,1.3018786039712813,-0.6531839295061675,-0.11341203559865895,-0.17197200055955306,0.8779537957126398,,,,,,
176,176,176,176,8.85,-0.5670000000000001,-4.98,16.3,1.89,1.51,2.0,5.8,1.61,12.8,,,,,135,8850000000.0,-3.448461815572666,-4.815680060845044,8.070301126919146,1.0663164637110256,0.7123656638224747,1.8776581243420027,2.0412410245107786,1.8677000948466431,4.968914694261126,,,,,,,,,,2.457052597657684,2.6833492064071085,-1.9052868638698641,1.7628711159241748,0.6319925479066767,0.19505491314625206,,,,,,
177,177,177,177,8.9,0.62,-17.5,-7.18,-0.556,-0.0593,0.745,7.33,-11.4,-10.9,,,,,135,8900000000.0,-1.897655551644805,-12.539783493935662,2.2224890522158027,0.009337025183867144,0.43625920900724297,1.1056814707102602,4.194446384189021,-6.672867079817093,-1.6402253160296647,,,,,,,,,,0.05191515055568872,0.4702442088622727,-0.9936219920996898,1.1495450666225169,0.2465633554336609,0.5269837280815193,,,,,,
178,178,178,178,8.95,8.04,-15.7,-1.2,-0.125,0.529,-4.77,14.5,-9.1,-4.56,,,,,135,8950000000.0,1.8903555197723108,-14.464193931991167,0.9101167165713162,-0.07818688098932483,0.4694423967746703,-2.8989593175870154,8.39013268847339,-8.235240019545897,-2.8562630944383387,,,,,,,,,,-1.8404747911032997,0.5941544347869624,-1.075919237122168,1.2985766164534032,0.9036772111380448,-0.5056676206989932,,,,,,
179,179,179,179,9.0,-5.36,-28.1,-6.82,-1.69,-1.04,-1.32,-0.667,-20.1,-10.2,,,,,135,9000000000.0,-0.8733172045496544,-22.767704085834964,-2.0540392702841777,-1.1283231707581567,-0.07064484178440122,-1.8228007939730784,4.7027143336936525,-15.872719392110545,-5.914807818438781,,,,,,,,,,-2.080418932585736,-1.3062636814403066,-0.3655199821621331,0.043838837092991016,1.0016974581344686,0.4075012940920957,,,,,,
180,180,180,180,9.05,-6.51,-16.5,-1.33,-0.813,0.122,-3.1,-2.47,-8.03,-4.02,,,,,135,9050000000.0,-3.0218941675202537,-18.950992202247832,-1.7764024322448213,-0.9228823138618648,-0.0017153985581041947,-2.6932910844055535,1.7824966980015056,-10.824272748914144,-5.125651733537593,,,,,,,,,,-1.5400418652321606,-0.8438853062518177,-0.395306559364154,-0.6200971159325963,0.7815410929219835,-0.13375412485936716,,,,,,
181,181,181,181,9.1,-13.1,-13.2,4.96,-1.81,1.58,-2.96,-10.6,-3.91,2.99,,,,,135,9100000000.0,-6.863441891277198,-15.448931366554733,0.8067082763236653,-1.5008614674995449,0.5642315686041847,-2.875069753577526,-3.2587728296705665,-6.373477854644157,-1.7456171837572456,,,,,,,,,,-0.33243302635259697,0.12095268980386292,-1.7432226865835352,-1.770781239068666,0.6442030239049225,0.07273311604359749,,,,,,
182,182,182,182,9.15,-4.66,-4.0,1.69,-0.289,0.275,-1.26,-3.11,5.57,0.221,,,,,135,9150000000.0,-6.023539275811201,-8.477116519734041,1.1454113850012462,-0.7113036457844667,0.4607428364379629,-1.7742996892794851,-3.198203103160603,1.314672961728248,-0.9265536950134988,,,,,,,,,,0.2785788776127731,0.9183423784829016,-1.1214852189664923,-1.1984223294480196,0.08605523080931579,-0.18110661301537734,,,,,,
183,183,183,183,9.2,-8.57,2.09,2.76,0.0968,0.109,-0.0506,-7.45,11.7,1.43,,,,,135,9200000000.0,-6.9941927913255055,-2.0422819589133607,1.7645342974211466,-0.18480406363918733,0.3348872066782007,-0.5994916026976183,-4.929231427639447,7.99982438121665,0.05491187083777094,,,,,,,,,,1.2050488494029996,1.5713203447257782,-0.6239469054335819,-1.1353564798118356,-0.3920629038444911,-0.2589168886062682,,,,,,
184,184,184,184,9.25,-4.53,6.37,2.37,0.459,-0.665,2.47,-2.86,15.9,0.841,,,,,135,9250000000.0,-6.054897927641362,3.0803683200691414,1.996703419035084,0.2346502575468623,-0.0228782481122361,1.4925570366390737,-4.086787952485743,13.085255824759546,0.3823045669711607,,,,,,,,,,1.733530581144676,2.033522405509593,0.28822736114049724,-0.5152331144603491,-0.7448029226195911,0.13569739024217595,,,,,,
185,185,185,185,9.3,1.62,-0.395,1.22,1.01,-0.624,1.38,4.21,8.87,-0.691,,,,,135,9300000000.0,-3.1293992221895075,0.9640463900059792,1.6988722169942112,0.7398098528431087,-0.2379631051871523,1.415842442299594,-0.7089277191023151,10.371848279754227,-0.06470900409787744,,,,,,,,,,1.2585015251458755,1.8707013776990467,0.6900240914594772,0.4709585533958491,-0.39363088037751703,-0.07900435760431042,,,,,,
186,186,186,186,9.35,-14.2,-14.9,0.8640000000000001,1.25,-0.715,2.0,-11.0,-6.0,-1.59,,,,,135,9350000000.0,-7.34926350850133,-8.696347925576527,1.3787358659386242,1.072211396714793,-0.4086496660705684,1.8139819945565496,-4.898718256809888,-0.16689415693719134,-0.699967457842946,,,,,,,,,,2.220968241484297,0.25763176963338674,0.5571075096541018,-0.0372685202776283,0.07456952767428304,-0.266273516629826,,,,,,
187,187,187,187,9.4,-2.98,-45.7,2.72,2.04,2.43,5.64,2.4,-38.1,-0.325,,,,,135,9400000000.0,-5.683798404643476,-31.229683830773663,1.893051012167508,1.702749667565377,0.6070356873159792,4.421650118296178,-1.9272007847085602,-24.58485903127023,-0.5437997164256063,,,,,,,,,,2.4179873600841946,-2.2152523251986915,-1.7214821740340955,2.022944067477031,0.4269918424201364,0.13538801057025726,,,,,,
188,188,188,188,9.45,-9.88,-14.0,-2.33,0.284,-0.479,2.46,-3.31,-7.59,-5.79,,,,,135,9450000000.0,-7.283296245258138,-20.73768578383612,0.2736988218506018,0.7783990516167508,0.21844581295253893,3.0846641043345486,-2.4901779623919738,-13.645077681608207,-2.728755237680333,,,,,,,,,,1.6147573757433682,-1.4823136590532535,-0.5957324128997391,0.5648122921853425,-0.11895651713689848,0.26811955130409226,,,,,,
189,189,189,189,9.5,-0.728,-9.62,-2.26,-0.622,-1.31,0.782,6.31,-3.96,-6.09,,,,,135,9500000000.0,-4.784564549867447,-13.967582520371304,-0.6978619723776761,-0.13399567496475195,-0.32844095140934515,1.5152559175799378,1.0926267357803172,-7.410684531873468,-4.128658080031388,,,,,,,,,,0.14789327022291165,-0.6661169770928039,0.4671258745470786,0.14848050796823092,0.1511374212064971,0.6025552760364219,,,,,,
190,190,190,190,9.55,3.54,-4.42,-3.39,-0.486,-1.13,-1.52,10.3,1.48,-7.42,,,,,135,9550000000.0,-1.6114275365857225,-8.153592122165794,-1.7301771984408112,-0.36333523045943983,-0.6152434305140169,-0.5534589496450055,4.841212415264378,-1.6876511292143013,-5.499447514410959,,,,,,,,,,-1.2570669582286431,0.0850468084720064,1.2528307111156554,0.19084606045395494,0.2535086257127092,0.2509778648205518,,,,,,
191,191,191,191,9.6,7.0,1.44,-4.04,-1.38,1.74,-3.06,13.0,8.15,-7.93,,,,,135,9600000000.0,1.6710552185255343,-2.311584143501909,-2.6158914860430977,-1.0257175584864378,0.2274763450379621,-2.26182186571996,8.162888727376483,4.644955039681934,-6.51173230141341,,,,,,,,,,-2.8876058043004464,0.9936579962841572,0.3658836975914239,0.1933837586879443,-0.6519763842539886,0.0595923476125149,,,,,,
192,192,192,192,9.65,-6.39,9.26,13.7,1.04,-4.94,-1.76,-1.41,16.9,10.1,,,,,135,9650000000.0,-1.4016379199969975,4.7349201236382985,3.640527086034712,0.3201486774455369,-1.6214767100175744,-1.91979918006994,4.265491315924088,12.533664741833716,0.4067792583976262,,,,,,,,,,0.33930089518155804,3.0166945457676926,2.3099433085616763,0.26024846201964874,1.7776175880060767,-0.16015356004434514,,,,,,
193,193,193,193,9.7,-10.5,-7.16,1.9,0.303,5.73,3.27,-5.85,0.255,-2.57,,,,,135,9700000000.0,-4.869729185990402,-2.508479019985762,2.973112358984646,0.3089758904762857,1.0089243405768795,1.6173703506927992,0.1471848612292268,4.6297504726706435,-0.8329999772501011,,,,,,,,,,1.061452512966499,1.4979282082350367,-1.3871815879796698,0.4952623750762176,-1.0872967115133505,0.1513601543156186,,,,,,
194,194,194,194,9.75,4.24,-8.1,-5.53,1.1,0.505,0.794,10.7,-1.68,-9.15,,,,,135,9750000000.0,-1.3973051217565249,-5.913430136924803,-0.2874530880996065,0.8243477467062335,0.8286172844216246,1.056192485792094,4.443538342054562,0.5680933291262464,-4.296892592162698,,,,,,,,,,-0.36465221092112304,0.49015816928697603,-0.5535099215639155,1.3767556380642536,-1.3094929845809882,-0.38792823113698777,,,,,,
195,195,195,195,9.8,5.95,-38.1,-5.77,-0.297,0.253,-0.304,12.4,-31.8,-9.56,,,,,135,9800000000.0,1.4033224896539551,-25.513407446335567,-2.389765954846476,0.09376186360403184,0.6226580753153174,0.12913707711688582,7.682841814025393,-20.26761103932089,-6.488889841329403,,,,,,,,,,-1.9403522581937371,-1.8573267174813568,-1.0009312483088924,1.8036067359982773,0.12074554468895493,0.05258999464529487,,,,,,
196,196,196,196,9.85,-1.02,-12.8,-4.89,-0.42,-0.996,-4.17,4.71,-5.68,-8.36,,,,,135,9850000000.0,0.4796063942726524,-17.771591322151085,-3.34849444820288,-0.2409667336400642,0.043492822204818316,-2.8009911370730265,6.4725127051921705,-10.877402023687246,-7.268176092455925,,,,,,,,,,-2.5257555753784477,-1.0159528492197918,0.11822637346696095,0.5257476720171628,0.3505465398285369,-0.6128555808698753,,,,,,
197,197,197,197,9.9,-2.15,-23.3,-5.42,-1.54,1.42,-2.36,2.2,-15.2,-8.8,,,,,135,9900000000.0,-0.5227405358153773,-21.138109571447337,-4.1428247148846316,-1.0873191240279985,0.5360150659889402,-2.500428295223964,4.733050323036666,-13.659906719626315,-7.906155461246284,,,,,,,,,,-2.8220963944060458,-1.5522292045311283,-0.7644579294187248,-0.1147560243092342,-0.07221016401854416,-0.11598984116684555,,,,,,
198,198,198,198,9.95,-13.3,-17.5,-0.421,-1.83,-0.0293,-3.7,-10.1,-8.57,-2.95,,,,,135,9950000000.0,-5.393144925408713,-18.922686532169426,-2.7156704869662374,-1.5711941761392638,0.3337420534153077,-3.3180107336067266,-1.3059098349281797,-10.383476456866703,-5.841998809105803,,,,,,,,,,-1.6538807369288375,-1.1204003517036625,-0.9104180039580544,-1.7238343617295029,0.3297940829602682,-0.10160722592221708,,,,,,
199,199,199,199,10.0,-9.32,-6.75,5.79,-0.805,0.269,-1.96,-7.38,2.72,4.13,,,,,135,10000000000.0,-6.889973762168963,-11.51014173007657,0.5458757933322014,-1.071999657985733,0.3105769686435748,-2.3924423434981827,-3.778846112474576,-1.9486216166557764,-1.6888264011443803,,,,,,,,,,0.015169806426191406,0.4230472962852523,-1.0591648846686577,-1.6637605095403414,0.4004521750632282,-0.10837516726190052,,,,,,
200,200,200,200,10.1,-4.7,-0.479,1.89,-0.716,-0.12,-1.19,-3.6,9.18,0.6,,,,,135,10100000000.0,-6.05520488046973,-4.792739449123385,1.0612876337319457,-0.8400570581998948,0.15651403062940752,-1.5729034585472634,-3.706032694312872,5.21499718223901,-0.7355680998002317,1.2707995586344552,0.9921990526628996,2.238256742289076,2.741062395242515,2.9888126502588963,2.9159366142613274,2.742226594926088,2.4065455442386767,1.4200231652098685,0.3793363813345084,1.3016416333103755,-0.5468552878515578,-1.434788103097967,0.0733583066286431,-0.011745291852561651,2.547859420273151,2.348780128088025,2.612542995457177,3.3916948501843294,3.5710213458286266,3.3036785467982277
201,201,201,201,10.1,-7.07,0.943,0.539,0.282,-0.732,0.8029999999999999,-6.24,10.7,-0.584,,,,,135,10100000000.0,-6.442022052088803,-1.299966866403336,0.8610135481414588,-0.1090090317342136,-0.16140144515890398,0.046421869167536434,-4.7376833320183565,8.74575491728882,-0.6724424927388402,1.1745647400558124,1.0861782218592717,2.286942415838303,2.659956534247512,2.9286650030555013,2.65753631913486,3.0291908713661586,2.57286372012664,1.4687019450335863,1.1745931795651352,1.383271954324632,0.30957614417218954,-1.0579932411047819,-0.3126965323237217,-0.07300150200752177,2.6157338206442233,2.565175182845741,2.7047015780865413,3.2257621995189,3.3461369188183823,3.3945045649680052
202,202,202,202,10.2,0.716,3.96,3.19,0.779,-0.26,1.94,2.22,13.6,1.84,,,,,135,10200000000.0,-3.713544814816783,1.903084508859182,1.7540762797931806,0.4695508827110464,-0.19668057705486,1.33701267299581,-1.9050109813598468,11.870487189254884,0.3739482114780226,1.1691464476622553,0.9062529048090352,2.444459663242556,2.676236302649063,2.9402722641054684,2.3745961165390903,2.801287338974168,2.552803271656628,1.6107079019833792,1.352820882104158,2.0328291711851167,0.569368777538078,0.09724617457527394,-0.4527704410950958,0.03749488527350469,3.101826910465012,2.435496867135399,2.623926956468656,2.977495857987061,3.450578633286414,3.4219071471915994
203,203,203,203,10.2,-0.5770000000000001,-3.23,0.802,1.2,-0.293,1.53,1.69,6.13,-1.05,,,,,135,10200000000.0,-2.5179643899071027,-1.2227019751413533,1.3889973700580345,0.9454566435528614,-0.2311442302611875,1.4685454684907842,-0.4413789300762505,8.17527124852124,-0.2191026171049452,1.2945669123994643,0.883342391523996,2.435124550865557,2.9994339878312437,3.0359770551249725,2.7214969437805867,2.8562543803403764,2.8776789207226807,1.6126125754318392,1.2082071850053209,1.5864417901424381,0.6693815993412897,0.7338822040024177,-0.3266124580187338,-0.20438990752499928,3.150396457621251,2.7189344075018003,2.6235946655205833,2.9872427538670028,3.7241176576162465,3.5400106382486394
204,204,204,204,10.3,-25.9,-48.1,-3.11,2.5,0.522,5.95,-22.6,-39.3,-5.82,,,,,135,10300000000.0,-11.430671033640866,-29.76858291780532,-0.3361679632958321,1.9582802242865682,0.03833515278184102,4.522934136711983,-9.462788939801113,-22.385093055521487,-2.55178369356148,1.1903498820446594,1.0072160922808362,2.4585257631578314,3.2188751372273186,2.9595082675102184,2.8478115712321594,2.583106128337349,2.3887221940313728,1.6395600104168924,3.4487728821277672,-3.160710352378484,-0.5015045832830898,0.3955062139875231,-0.032425119057406936,-0.3364730675799846,2.9829058590902724,2.3889800379889343,2.6209871534801445,3.05339931890867,3.6570664819165692,3.505572680637182
205,205,205,205,10.3,-6.13,-22.9,-7.03,1.81,-0.453,3.03,-0.395,-15.7,-10.5,,,,,135,10300000000.0,-9.410174337956876,-25.585966262210803,-2.902954884553208,1.861671940545042,-0.13746742043290427,3.50540704612636,-5.771032122245996,-18.081823523352405,-5.862084156837982,1.3146434666790678,1.0131535592579073,2.6792058549761566,3.1633854123052787,2.944236659850415,2.8504463203740618,2.717758491903449,2.3337319536250316,1.778900044144671,1.993320391932208,-3.1884648822934407,0.4620545100714503,0.4585236573189426,-0.5781070804365206,-0.6167481308274202,2.9322413373066176,2.579885897671884,2.669451323832592,3.1985088681128855,3.278135638776875,3.53912026679789
206,206,206,206,10.4,-3.22,-13.9,-1.09,0.187,-1.32,2.79,3.41,-7.76,-4.91,,,,,135,10400000000.0,-7.050618929142594,-18.469809029941498,-2.2077673403404665,0.7705816098554339,-0.5605844610291917,3.017812813270232,-2.0331707194852786,-11.437550053509336,-5.465556809184181,1.229305798116623,0.9164850135863516,2.708993903204272,2.9424790121122464,2.993287734348632,2.63239911303076,2.4085799809344812,2.5963372780389773,1.6501893920181316,1.0465391964887056,-1.938502835080244,1.0772520161130723,0.255962161751727,-0.1882632394293145,0.2508381312521757,2.8515905222952007,2.7238521931866537,2.6499080809123448,3.1593985718851036,3.3403009391948304,3.439175435316491
207,207,207,207,10.4,1.85,-7.74,-2.95,-0.544,-1.43,-0.0042,8.59,-2.14,-7.34,,,,,135,10400000000.0,-3.6579029016473954,-11.935902842614105,-2.4923805686941782,-0.08590095634744288,-0.8716663692520973,0.9581239288757244,2.291826674895124,-5.452612829176941,-6.246231419540278,1.1465878041250646,0.7637648832083345,2.7093602227746643,3.0030867958429583,3.1189334732640672,2.7005761240393467,2.3140961816455827,2.8703891943250217,1.5212325748247526,-0.5376187901295059,-0.8605496934429167,1.6739090778186627,0.07307462259419988,0.16385980060522146,0.4305642647026037,2.67091267066737,2.810638836354289,2.834945279886,3.0931831233080844,3.7176655622885226,3.4688930660587953
208,208,208,208,10.5,13.1,-1.41,-7.88,-0.99,1.01,-3.11,19.3,4.68,-12.4,,,,,135,10500000000.0,2.7298334295188744,-5.5261652350139805,-4.558293020255563,-0.6749439293796832,-0.19839522226235884,-1.8145543947223164,9.216341294905373,1.0698636306353864,-8.809173963455603,1.2223368327354642,0.9091628641262544,2.7904933125177522,2.7471019087983253,3.225315275723512,2.8734496350775203,2.7436717079670303,2.4408094335551374,1.4713920202780182,-3.296575635993673,0.06527182522790849,1.299299119590951,0.5681366487970835,-0.6319095490115679,-0.03739131919700568,2.3865370317659553,2.479355456532991,2.981060465284857,3.275229486136556,3.796267060498164,3.28568063786378
209,209,209,209,10.5,0.00239,5.65,7.87,0.179,-0.615,-3.7,5.23,13.1,4.15,,,,,135,10500000000.0,1.690193255485361,1.279549017802205,0.2074044919312925,-0.11857826102768265,-0.3474588336307797,-3.0996023722405117,7.593387485849368,8.813797640334268,-3.4118925814866388,1.1780779305349631,0.9525147399770976,2.5908261690223853,2.528314054134564,2.9864771924298386,2.608807344441995,2.977712133811224,2.2665766841450643,1.2733490722597658,-1.7969284586572332,2.125278261156387,0.9326410602166256,0.5544197860331295,0.3643393898910527,-0.5596367612916059,2.26923395171476,2.4958484313655505,2.7740841960397553,3.324702949554338,3.553508172778899,3.3851162965828663
210,210,210,210,10.6,-17.7,-1.13,-2.42,-0.438,-2.7,2.23,-13.9,6.62,-7.05,,,,,135,10600000000.0,-5.700913179926414,-0.18774334734249387,-0.8000882916062746,-0.3266894478714313,-1.1892117370337258,0.5328517179513974,-1.1571865510633863,7.401625410253311,-4.927104150979086,1.1176730539592306,0.9560765744006322,2.842339277648564,2.5079524947729683,3.1625699553174806,2.39089183384934,2.8381599876223613,2.500624884784315,1.4040693884470117,0.24083842381228215,0.7047456619319935,2.2975337588082794,-0.966868350609882,-0.018642526729035883,0.4556256142411118,2.634891725663114,2.736829431253299,2.908346552710838,3.0796846314398496,3.3508648168783988,3.4550186502090785
211,211,211,211,10.6,-2.43,-6.4,4.65,0.25,3.45,2.45,3.03,0.677,0.616,,,,,135,10600000000.0,-4.454114569378954,-3.9706906322449065,1.2897781819177954,0.04903804093878394,0.4707251711743357,1.8395070330252488,0.5475371154834985,3.072908571650495,-2.618493071401065,1.1859775733117546,0.7761810163035907,2.884275645851772,2.6584844449067804,3.229480063125965,2.471407685589159,2.8011747867326844,2.7629405671012037,1.4792045289613402,0.5898063724808656,0.8950219720411167,-0.4271791397872583,0.3025510083949486,-0.9183288524430432,0.4334383440401271,3.1679865977018533,2.8500101617599443,2.9741627263863957,2.8477402583576494,3.5327390249235417,3.6860493232061646
212,212,212,212,10.7,-2.84,-8.27,-7.08,-0.0687,-0.251,0.504,3.28,-1.69,-11.0,,,,,135,10700000000.0,-3.8388503175475215,-6.588750878478501,-1.9196594293301543,-0.02767121542876648,0.2124877197627488,0.9292762880350828,1.6600010751006269,0.006970845411097493,-6.109251903193421,1.0974864714741446,0.9196873535726079,2.9016352606642632,3.0394662803638512,3.3703489990651545,2.8518458075522832,2.5968252566309147,2.615750153866843,1.4770936170954418,-0.5397735647244595,-0.16428827082017364,0.3636315222130933,0.07970185382000207,-1.1120231036811483,0.11611753074479353,3.0655860935507593,2.687630223912077,2.9494571523339603,2.853261718329907,3.743769814350671,3.6439273474862084
213,213,213,213,10.7,12.7,-24.2,-3.98,-0.0174,1.93,-1.39,18.9,-17.6,-7.82,,,,,135,10700000000.0,2.465387870602708,-17.313103176915096,-2.7097084004324965,-0.02097926380297634,0.8270235653973295,-0.6514541245235911,8.678898697793556,-11.326834090943912,-6.821750225750586,1.221772318990368,0.985541689469183,3.031928544353795,3.1457021923101203,3.4730283234270583,3.0992940572975463,2.4697983064043547,2.2781936873423856,1.5849459731264006,-2.4488857870085328,-0.862495427724167,-0.8654172199222744,1.638311304092965,-0.5476247067339305,-0.1913344182965513,2.9144483741334404,2.5421950064644605,3.035511534724689,3.302700850709638,3.7276398895170786,3.5855245497832318
214,214,214,214,10.8,-2.52,-20.7,-3.27,-0.967,-1.42,-3.7,2.74,-13.2,-6.79,,,,,135,10800000000.0,0.5650699987212661,-19.37555093897304,-2.924555299479293,-0.6373352587881943,0.02302550459168096,-2.7292269665968387,6.261002792558324,-12.532611881533349,-6.808526766645165,1.365607033184453,0.9176099314010944,3.0799047444119254,3.1582710494456943,3.317133449625417,2.961930547597275,2.517625804861084,2.2595232305365056,1.539052936820907,-2.5634116826132387,-1.0377782149239387,-0.09529321278717016,0.3748830100584289,0.6247797111077028,-0.26183710853090875,2.856320916402401,2.5875869478029547,3.1466389451186982,3.3713027894757555,3.3210812420155538,3.5815168391611865
215,215,215,215,10.8,-4.54,-23.3,-2.74,-1.8,1.98,-2.37,-0.29600000000000004,-14.9,-5.66,,,,,135,10800000000.0,-1.3808680049405049,-21.765339647997347,-2.85378655490548,-1.3948401641406487,0.7232423465371178,-2.484391464055422,3.5914589858395387,-14.056525930922945,-6.33018432524194,1.2354759208713808,0.8090417690156987,3.1225607914947298,2.9685351563364684,3.4588742796953262,2.622157053597012,2.2732522155710195,2.7994266394792717,1.4661540645627644,-2.4452644214239325,-1.266845399184493,-1.3935049955407437,-0.3636730506067241,0.1394538890721007,0.12303612009891425,2.5127421876012344,3.036427189723652,3.227379982644061,3.1739849929426645,3.376835274814876,3.5054341960812625
216,216,216,216,10.9,-13.6,-18.0,1.92,-1.88,0.202,-3.66,-10.5,-8.93,-0.219,,,,,135,10900000000.0,-6.038526812144651,-19.472439985945293,-1.023251768164282,-1.7109338358390458,0.5367388115372121,-3.2856415448479592,-2.1455779243914326,-10.756523863858911,-3.784977258181645,1.2459397104252414,0.7454890712920432,3.1810867591222567,2.8317217291007215,3.4981952490040524,2.619313473770586,2.421239661927812,2.833002969730277,1.5501333117189462,-1.150164648701074,-0.7118317421104764,-1.6000798602536987,-1.7843335700878182,0.6193484533869649,0.05606021904578703,2.3561601969035166,2.879786624815845,3.253494027150459,3.0969343131755562,3.646881027844416,3.4280271393056307
217,217,217,217,10.9,-8.67,-5.38,4.01,-0.746,-0.0941,-1.91,-6.88,4.17,2.68,,,,,135,10900000000.0,-7.0415853147458485,-10.890863384735574,0.9067764909307204,-1.0822554867002985,0.3110210231582874,-2.348056616259105,-4.073096918714518,-1.148152921714999,-1.0924212671624924,1.2806810512048543,0.9095994464756428,3.283869895237053,2.501310185824863,3.373208892759544,2.807291545806482,2.858426617917801,2.337093098488125,1.5828096181239288,0.1766517496435502,0.6037316747355631,-1.1168860524387263,-1.696941849051886,0.4487237996161606,-0.07871505348977495,2.5512842440712413,2.686899422668609,3.2647335272057085,3.3748384874349124,3.7719043964333636,3.4534749983655972
218,218,218,218,11.0,-7.02,0.524,2.35,-0.433,-0.669,-0.5579999999999999,-5.96,10.2,1.32,,,,,135,11000000000.0,-7.033357470323508,-3.939794206685642,1.4601884747270488,-0.6592494214053329,-0.039636198741653306,-1.1280221938396315,-4.841309270117748,6.156780322256608,-0.08768773902873228,1.0409358956028911,0.8657070026482622,3.1419082338314426,2.391387673119614,3.3260567137451784,2.528650413798585,3.0282678159937766,2.1651406271110782,1.4093268663207008,0.9086442333834124,1.3860127250452614,-0.2804896780091957,-1.5152787845904778,0.17005089750613306,0.009528539138698838,2.617677366315441,2.553859553806771,3.1170532158460484,3.125718754903795,3.451395356824768,3.6191338519537823
219,219,219,219,11.0,-4.61,2.87,1.6,0.642,-0.15,1.78,-3.35,12.5,0.474,,,,,135,11000000000.0,-6.109628084718982,0.20702282243857967,1.5137999849192252,0.1885468865912117,-0.07912500965051374,0.8539750046140286,-4.234154476355143,10.239982002408867,0.14624590519094435,1.0559488346842951,0.8573094797065138,3.3012132949369226,2.5568117367327625,3.313062012132805,2.446120557890835,2.753827479247858,2.7608602584565904,1.4606553121574373,1.53412455148863,1.6749575845781188,0.24841870744961225,-0.6376507727654284,-0.4758736397925332,-0.02050447357320105,2.8733347578970325,3.0810117176365512,3.118547939276574,3.0599021944320763,3.264323636836538,3.3969844526652158
220,220,220,220,11.1,3.81,1.68,2.4,1.24,-0.545,1.79,6.05,11.1,0.867,,,,,135,11100000000.0,-2.328488686048265,1.1039907106262787,1.853618308615701,0.8735946934206142,-0.2458177916750087,1.4919339806880827,-0.0471802975345561,10.79358548277775,0.4464280427044893,1.1283177767195782,0.7364035252940258,3.2483250254638247,2.6862654311043834,3.502732582811132,2.5446869668961587,2.659398214059859,2.7766133197302305,1.4517331229927537,1.2640925973964665,2.022904142914779,0.696954835398439,0.7362168221643537,-0.3332104645444006,-0.11762529239534215,3.16586816364332,2.9515680756296447,3.1289153497900566,2.822767319313467,3.48644613035065,3.5287893019681436
221,221,221,221,11.1,-1.13,-3.5,-0.8240000000000001,1.6,0.687,1.32,1.77,5.61,-3.02,,,,,135,11100000000.0,-1.8716517164415687,-1.699604643673411,0.8268707888070415,1.3468657956835717,0.08794982103688526,1.374750360784005,0.6926458865781914,7.45685343145229,-0.9972818225196124,1.1170861570131796,0.9450598445448656,3.23269599480527,3.0519450219941726,3.6940337580655074,3.0775621404806297,2.460425038224204,2.626850327707458,1.4804471964350172,0.9729549606395268,1.3913786332960767,0.4163526889917539,1.1561888643189615,-0.7331734018545542,-0.5900966978487698,3.067551735597031,2.836271342004918,3.271893234541007,3.024899839243743,3.7724395299051947,3.555515772899076
222,222,222,222,11.2,-26.5,-64.6,0.113,2.0,1.56,7.88,-22.5,-56.2,-2.84,,,,,135,11200000000.0,-11.259424903197887,-40.00273403957862,0.553133093904244,1.7723989406884717,0.6146579001683989,5.808480935864494,-8.749745112886393,-33.519777870116634,-1.764743390913854,1.329940854090357,0.9252583964549326,3.379331536834904,2.8928016234062404,3.705778490424196,3.1354343033254017,2.3782426772186973,2.123039147671491,1.5762155750360218,3.6198322992632015,-4.105406561004778,-1.9259289555427024,1.0133171132009562,0.20987941198764729,0.21446644958842206,2.9578085132916376,2.5177318507518334,3.421052614826044,3.396725413071486,3.581447525010871,3.46599586412631
223,223,223,223,11.2,-7.69,-19.4,-7.67,0.932,-1.37,2.18,-1.51,-12.7,-11.4,,,,,135,11200000000.0,-9.898840324995426,-27.456720344241663,-2.6000727074540384,1.2248581598810633,-0.09546421958994344,3.3354465129490705,-5.802237333192023,-20.11785312569269,-5.777668042729024,1.3685850623088245,0.8717089307209342,3.4576281555538584,3.0530148570003344,3.5442863153031063,3.0364089610092813,2.3793963183345817,2.5783786396673842,1.5827693037619208,1.7818177404815767,-3.2853165983821038,0.1285175831131916,0.08176001403019496,-0.3291349250345099,-0.1836026219832291,2.7347130435918947,3.000045557312529,3.402091190670243,3.6077740982149162,3.3018054108036075,3.388717988492388
224,224,224,224,11.3,-2.27,-13.4,-1.99,-0.234,-1.38,2.02,4.48,-7.54,-5.98,,,,,135,11300000000.0,-6.9908977377165975,-18.896894879708565,-2.3661369641664534,0.27437586134033964,-0.5550785771248563,2.438888236207525,-1.6160437481997785,-12.0213479153341,-5.861935960108948,1.2852565852495463,0.7395981137205254,3.4311402714269854,2.407179881420498,3.5834640032944693,2.5510630856761347,2.454808219764971,2.8721770799437456,1.5571768607511676,0.6130819558482745,-1.9480822395700652,0.9643253844592844,-0.07090116860255319,-0.04823994718595191,0.445897015449916,2.430083779370583,3.174059930187689,3.5128328891679255,2.9902384371253006,3.661564616902808,3.2745776764405465
225,225,225,225,11.3,1.04,-6.79,-2.56,-0.643,-0.415,-0.332,7.84,-1.15,-6.82,,,,,135,11300000000.0,-3.929699917157367,-11.52441381271765,-2.4404747933343893,-0.3233172860841478,-0.5049576460571289,0.5503563116534345,2.2337827983699303,-5.023339265796858,-6.260953837966848,1.3097533894714637,0.8350739980129761,3.4293660118023634,2.288409151243836,3.6111111734947854,2.4589911268415063,2.6785853136734565,2.808425866627144,1.4826049787779054,-0.7408989673573376,-0.7517906084038811,1.1077518923289318,-0.12012765940203884,-0.09645702505313412,0.3971924206261657,2.4331286117876623,3.015758300978027,3.439772550561702,2.985436779973481,3.7962132950639442,3.27033710088671
226,226,226,226,11.4,11.3,-1.28,-5.65,-1.05,0.555,-2.53,17.6,4.86,-9.84,,,,,135,11400000000.0,1.8755196886843064,-5.286088659980028,-3.67118498524204,-0.7967690795114197,-0.12569864445336354,-1.5490972606851874,8.489810476800669,1.3386772007587124,-7.751567356345903,1.2086165781142264,0.8890133685022694,3.475940178715536,2.027390635699635,3.336518205865034,2.5413839318533693,3.0506943188554083,2.1197703782005632,1.3891109272615556,-2.921434543622219,0.27815140455194065,1.0101821556281143,0.4375654080072648,-0.5406799871519463,0.14276460600850838,2.6501742147173397,2.4193157206064293,3.1222739757968303,3.153825377699204,3.834062387272912,3.49624147750115
227,227,227,227,11.4,-0.268,5.83,13.0,-0.0602,-0.256,-3.5,5.26,13.2,9.71,,,,,135,11400000000.0,1.0584581265486632,1.4830419204261058,2.721472913269816,-0.31687604135526004,-0.17232123024642115,-2.878758296288918,7.1748621365349186,8.973943652875537,-0.4791137130423335,0.981541289623518,0.9137243754216632,3.335521567123786,2.340312964967669,3.4133821068917727,2.6958808150387563,3.1923169558296687,2.3740949576589863,1.2475574799990827,-1.1156973828932109,2.8301458555971206,0.16034572905910707,0.5807838118340564,0.8275179225471238,-0.23319478607962316,2.880009110254235,2.746946618510401,3.0564302296431065,3.024394614738536,3.3093101077118927,3.6389778949953158
228,228,228,228,11.5,-16.6,-3.17,-4.16,-0.87,-1.63,2.46,-12.3,4.54,-8.4,,,,,135,11500000000.0,-5.672549628920362,-1.3504231635186756,0.08273420118006937,-0.6772500321418828,-0.6938871545012595,0.7599361361650865,-0.7539125989618459,6.1197643482539466,-3.778031516934624,1.0530275816289514,0.8011740802520544,3.5269739673746443,2.474041260347892,3.4231317780625408,2.4955166000282385,2.691703434526345,2.855714191923345,1.3549580320330534,0.2478203448118905,0.8935172825283675,1.3109549053921925,-0.9056188702252312,-0.1256006185890449,0.7477999150222914,2.928937933329735,3.15759057673483,3.056246909373769,2.8356533575362017,3.3827247136369483,3.382428138019231
229,229,229,229,11.5,-3.31,-5.53,2.67,0.7829999999999999,3.45,2.93,2.7,1.44,-0.7120000000000001,,,,,135,11500000000.0,-4.771998753945981,-3.8955722583832433,1.0748355813002168,0.2741391024612032,0.7888197426094605,2.238969096204309,0.6522742521251412,3.107347565194916,-2.5010801710500083,1.0980114693641776,0.8081291570317038,3.5093015878236566,2.675030090978648,3.56298593279836,2.5419784641974243,2.5271679375245144,2.911494350602969,1.3861003299376025,0.7172791445122985,0.8248731653791954,-0.7823478988842771,0.4995519576248966,-1.335075204138415,0.2983275029159014,3.225861081638282,3.097744857732973,3.2240442424824427,2.7762115262943827,3.604568962157825,3.2372479439651554
230,230,230,230,11.6,1.47,-10.8,-6.93,-0.392,-1.7,0.331,8.35,-4.63,-10.1,,,,,135,11600000000.0,-2.3926890199770825,-8.100016466005211,-1.99466273888606,-0.15986704978918506,-0.10169442649909932,0.9385699974091856,3.7862392285890873,-1.873269952477203,-5.665904594937012,1.122070895426444,0.9236013173169316,3.5284091722693454,3.1631337300493496,3.7013189533232485,2.9488876360180343,2.3668770633059584,2.3678915509256337,1.448258918723651,-0.8496155191509682,-0.17077168708789775,0.6923975326223041,0.40290986011093577,-0.5922974405613167,0.3677433594502187,3.1819857839440764,2.6602368888831935,3.3835876051319693,3.0899703707843638,3.8696723670886555,3.529784652642399
231,231,231,231,11.6,9.85,-27.0,-3.01,-0.562,2.17,-3.7,16.3,-20.3,-6.27,,,,,135,11600000000.0,2.273949196009776,-19.60914177982248,-2.3839994121155934,-0.4218666326311399,0.7111310542822673,-2.222902753428651,8.880949657545838,-13.73476234860502,-5.917500318934149,1.293964753392061,0.9059376254286776,3.501395913305759,3.3936409645057863,3.641980036874973,2.8392975011939323,2.389286230257849,2.093662819267604,1.5171613432371347,-2.751892960091824,-0.8001242170400703,-1.0990832427655342,1.229554063042871,0.18938036423637286,-0.28720692588422225,2.6403583112965667,2.4315869632907887,3.5248863867459117,3.5457931264254654,3.475632492632122,3.433877465019696
232,232,232,232,11.7,-6.46,-22.4,-6.75,-0.902,-1.43,-3.06,-1.54,-14.5,-9.76,,,,,135,11700000000.0,-1.0552360782477206,-21.30863175773507,-4.058166435500791,-0.7346854449810591,-0.05497804790498917,-2.7934363291230486,4.6382823321662014,-14.227354411095805,-7.517837896779878,1.3642909008130015,0.8083743154583227,3.4607399070585365,2.6512136126640256,3.514337294747328,2.5648568137512715,2.4875223715744235,2.6263884849618178,1.4596303122024352,-2.5036088717671894,-1.6041679499034789,0.05156194244934245,-0.107299199341547,0.5381043877534787,-0.3224426167278642,2.439491059920067,2.9608915047341307,3.4959097674903394,3.3790343871809934,2.9744634325512966,3.2126721856167393
233,233,233,233,11.7,-7.4,-21.8,-0.833,-1.56,1.76,-2.56,-2.5,-13.8,-9.07,,,,,135,11700000000.0,-3.473717611415593,-21.607849473164272,-2.8214585662799507,-1.2723983247312372,0.5944316305665047,-2.634334975191835,1.732082962999372,-13.952261704355633,-8.16428758071514,1.3639536999470507,0.7703188482074079,3.4696893577690284,2.0002200062749704,3.5372691426792104,2.219306386724985,2.6677973874237755,2.873622121979277,1.3614957704105493,-2.2130036005023808,-1.6293497585859709,-1.0679008168100637,-0.8237464672751845,0.005868951881047483,-0.05188726106879811,2.468854895193822,3.1135829124484182,3.496953339728584,2.628913511682839,3.5542559059691663,2.9154104495629145
234,234,234,234,11.8,-15.9,-13.5,5.35,-1.61,0.8059999999999999,-2.73,-13.1,-4.18,3.88,,,,,135,11800000000.0,-8.210337204997561,-16.67058297002825,0.3119322864208609,-1.4923542048151714,0.6701320193029531,-2.6995366271016725,-4.30648335496317,-7.661747085881037,-3.14804121801696,1.3046797060737036,0.8807273709551865,3.5540859744530784,2.095681689254643,3.2686788256293013,2.210388669017535,2.7881741998843883,2.6104593057023897,1.3678580091620318,-0.2983776614204081,-0.3614679343544533,-1.7857559470982858,-2.0209164144157765,0.3422612461069853,0.025579931038449952,2.5159999922029446,2.7761044950587244,3.2198608211680404,2.78437046462888,3.89718896182495,2.9004188108093563
235,235,235,235,11.8,-6.7,-2.22,2.88,-0.597,0.0171,-1.65,-4.87,7.36,1.92,,,,,135,11800000000.0,-7.634630513531055,-7.8709155189245426,1.296672069420051,-0.9090087194112032,0.4364733720728518,-1.9842124020263736,-4.535907088786813,2.007920149556514,-1.0372859991066323,1.1114807603548569,0.8976549630449524,3.48904141006194,2.282961050833684,3.2460830775363667,2.3880984586429657,3.1077783298172315,1.9911469569794589,1.2748407974928817,0.4598140762512177,0.9117616888439224,-1.1361568395449693,-1.695629536066925,0.07806002575557733,-0.14296411735572725,2.948148096182065,2.3221360074076416,3.10081598562163,3.168543014301661,3.643797806872793,3.013017428961695
236,236,236,236,11.9,-7.83,1.35,3.26,-0.34700000000000003,-0.853,-0.123,-6.58,11.1,2.6,,,,,135,11900000000.0,-7.709100944484707,-2.2558485904830032,2.0495209972518893,-0.5428460914348225,-0.02490768083988837,-0.7156808880931878,-5.3681158794915085,7.860594211797784,0.4775833436493586,0.9980144648355966,0.8736666182345407,3.4278263373698654,2.7577967466336615,3.1984134795818764,2.608738867827633,3.0916072981033027,2.449360333255874,1.18311182879873,1.2932675889608043,1.625778840391124,-0.2867023618884665,-1.5158695013165508,0.07251940825364027,0.04807669758892124,3.087911830292461,2.777830842850161,3.0328764301607585,3.075563600055944,3.240922557060384,3.35299659695086
237,237,237,237,11.9,-4.52,5.8,5.16,0.35700000000000004,-0.513,2.17,-2.85,15.4,4.41,,,,,135,11900000000.0,-6.493487287780943,2.649752145381852,3.242251280506084,0.043425967105804486,-0.19954995021249802,1.2510893984032954,-4.342918679788822,12.713794067406585,2.1153696937336006,0.9891804882458456,0.7197346469545498,3.5644236818589197,2.8757533905323065,3.265764771268868,2.281993206542249,2.7009927777526244,2.739692704644627,1.383438756813078,2.061124106572916,2.3812114908022384,0.18277936748283344,-0.6549909144879955,-0.14419016254687034,0.3223030097061117,2.971039607190733,3.109919062049816,3.03523980871142,2.758586190939546,3.33613569794332,3.578557631665907
238,238,238,238,12.0,1.69,-1.32,1.34,1.14,-1.03,1.73,4.36,8.04,0.181,,,,,135,12000000000.0,-3.374125721709091,0.23237567373074786,2.5128225403974227,0.7578711573546417,-0.4966897887332093,1.5774966451661974,-0.7997109460234544,9.705220359728974,1.309736748506761,0.9647343105750972,0.8691202317768634,3.5328932371619453,3.0722871194805936,3.461380884812215,2.386541754270638,2.4707078589285123,2.8063497358940053,1.4895295842407743,1.6353366977736223,2.0361946794967025,0.8274032233135622,0.518634588334697,0.11075326313049112,0.0700114952989789,3.4131099156767792,3.109024723382999,3.1619078514488685,2.6008285872847217,3.9013614325249155,3.6748472414077136
239,239,239,239,12.0,-14.7,-19.0,3.11,2.11,-0.5710000000000001,1.77,-11.4,-9.98,1.15,,,,,135,12000000000.0,-7.691294532689318,-11.479159487834165,2.7418134931524065,1.6388165900390337,-0.5232784065456151,1.7086995901546966,-5.11539234100086,-2.966376567600882,1.2432090281829462,0.9858727170836488,0.9565281997040064,3.393655827642574,3.568083387018425,3.464369708427605,3.0156348592540487,2.300224812647689,2.063423878735172,1.5277982848471288,2.911025468079802,0.3096258104952115,0.3869955715713744,0.3675612374041154,0.7104173917789017,-0.5730725590882749,3.007554853058143,2.4451309580885927,3.2868294834034995,3.1392456580785324,3.792599568630035,3.485508108172998
240,240,240,240,12.1,-4.72,-40.9,-0.0575,2.78,0.162,5.29,0.645,-33.3,-2.98,,,,,135,12100000000.0,-6.558703715294096,-29.394950644204012,1.6684012831072907,2.3823258873384257,-0.2780818143223787,4.149577582213331,-2.770171494705396,-22.49246983591808,-0.5156876005262898,1.0752319216776238,0.8947233191987046,3.3479823240938122,3.2511315805074688,3.5986317770281304,2.9179120958041387,2.322378626832,2.092848559855637,1.5998468266473045,2.959927068181087,-2.195349481478946,-0.2664374913606588,1.9711095861384476,0.9945291982030641,-0.3027867105963721,2.5886922171707702,2.2894139432970686,3.4173284121779988,3.3000266179992797,3.2471132435596104,3.3527921709956505
241,241,241,241,12.1,-11.4,-18.0,-2.83,0.723,-0.189,2.53,-4.97,-11.8,-6.68,,,,,135,12100000000.0,-8.404096972944872,-22.456007302109622,-0.0565354883859861,1.3012338804862027,-0.2462078224402822,3.0457351405318915,-3.6657846558448792,-15.60960715131355,-3.083021557829181,1.0429243090907951,0.7533709977278591,3.3010861595013816,2.4006484961142185,3.47965128714973,2.3214858896583923,2.4690380828106973,2.6950104338323344,1.4722145843998231,2.056763750533745,-1.933889082013732,0.11292285528100912,0.5433216033676896,0.24400488644755874,-0.06987016286588008,2.40518444321401,2.958383076891338,3.3851056607330063,2.984993502828152,2.9674235488080383,3.253041500427693
242,242,242,242,12.2,-1.25,-11.1,-3.26,-0.478,-1.66,1.08,5.66,-5.73,-7.7,,,,,135,12200000000.0,-5.6771158954967245,-15.540778699971488,-1.2849216330982598,0.1420188561180289,-0.7520708590000121,1.70596493418249,0.13100955586944396,-9.249993186949316,-5.005916538969212,0.9614650701936522,0.7876812929843203,3.510895254164831,2.0501480238535987,3.515152437334975,2.17930316865027,2.7189145524454235,2.836426505843386,1.5176742980488729,0.3842842896607049,-1.1750664416119954,1.1607823869837388,0.05404126609720239,0.3744065418302244,0.4902301929606821,2.5237669376741794,3.325726505450439,3.3563291429981255,2.243510396189071,3.989075216712424,3.0952441660929497
243,243,243,243,12.2,6.68,-4.51,-5.04,-0.331,-0.458,-0.917,13.4,0.8809999999999999,-9.68,,,,,135,12200000000.0,-0.9668609355524403,-8.823597623893871,-2.7248271442598795,-0.1661646691999351,-0.6468506000398743,-0.08174810488781947,5.5331957899187785,-2.7285592098686022,-6.952595021301539,0.9194971465824614,0.9122216204816792,3.4977139495421583,2.403044612726569,3.1729847957981465,2.356826794133941,2.915159045822592,2.182667705714906,1.5460379638250126,-1.5025400926702106,-0.3315206300509449,1.558790157783989,0.4620673741859578,-0.03434307223424874,0.2167062587041365,2.7039683228479863,2.617423608822151,3.049659490385109,2.680362068830912,3.896977480536371,3.193166508697588
244,244,244,244,12.3,5.38,3.51,-1.93,-1.55,3.11,-3.85,11.7,9.79,-6.07,,,,,135,12300000000.0,1.4524199394452744,-1.31306618567781,-2.4200462686646094,-1.067767703157645,0.6973723164561229,-2.650045073000125,8.043878488758066,5.329777792460121,-6.58500888285151,0.7803039823273756,0.8507588159931533,3.5137042026505267,2.6236348790287938,3.275154051577116,2.51740314768533,3.238788953710653,1.8343792241802328,1.453932342577554,-3.011008043557561,1.1465501418169632,-0.29058715905249444,0.12759283288456635,-1.0459301890373651,-0.12503415089163045,3.084857534630639,2.2193981722147615,3.052312042601734,3.1141694552662336,3.644174242416054,3.5571847163472925
245,245,245,245,12.3,-9.26,8.93,9.53,0.208,-2.86,-1.39,-3.92,16.3,5.9,,,,,135,12300000000.0,-2.6309140163533487,4.92443849938997,2.162264828450724,-0.2365733770011672,-0.5754761121586681,-1.7912463118265585,3.1730405587610493,12.391432426841348,-1.3852094044288537,0.6646494674514797,0.885127304359232,3.3822751443437418,3.0095652468622767,3.399325415671904,2.620024212764247,3.0697312559803662,2.5890039943646364,1.2264740999675814,-0.21538690547324507,2.5875355311486303,1.0388351367300013,-0.2621605526854806,0.42427095451089175,-0.10117748795664128,3.025228547540177,2.998870971763029,3.1804946306121296,2.926430790458252,3.2759997861547023,3.7780002190835176
246,246,246,246,12.4,-12.1,-9.2,3.2,-0.111,3.77,2.88,-6.97,-1.96,-0.913,,,,,135,12400000000.0,-6.240317052969638,-3.676623516838848,2.5601901260025346,-0.15475920606613175,0.9793604603836212,1.392497416419218,-0.9564819358493102,3.1532543200287275,-1.1885420024586228,0.7846482103922435,0.7173992718721113,3.4995338755479684,2.9198855835868884,3.5535848679962148,2.4619141518398253,2.5671385939950317,2.67663422490079,1.394731083059701,0.9801561392059248,1.2164091121791207,-1.4633865086452778,-0.08943368702851437,-1.019056259400157,0.3651574837700329,2.723019817075524,3.2207420181420123,3.3529529229532775,2.637544008191452,3.573716705812273,3.877706998786882
247,247,247,247,12.4,6.56,-1.6,13.0,1.28,0.384,1.38,13.2,4.83,9.66,,,,,135,12400000000.0,-1.36112372294446,-2.412065800821217,6.563392844288671,0.7800220089927916,0.7663370326553546,1.3839796499187196,4.807027603677184,4.232594278905704,3.3296960181159885,0.8187516208053316,0.8523719209517708,3.4176553504518283,2.9074875657961203,3.71894703214676,2.541678545438628,2.4173610710925213,2.3995839564180166,1.5826643062785088,1.3804335321694652,2.778819940843805,-1.6206680928039787,1.893710998961624,0.24536452696575345,0.21951312240944865,3.2330312972681647,2.87315181814426,3.5277672812574488,2.5604112402264763,3.86894391373887,3.6764649005152696
248,248,248,248,12.5,1.43,-25.8,-4.66,-0.748,-1.13,0.513,8.02,-19.5,-8.34,,,,,135,12500000000.0,-0.2972100713634651,-16.65412353937635,2.25972096960102,-0.2155222723866768,0.08781663542737916,0.7903530868176385,6.1151209582395145,-11.044342948101034,-1.5305391781612403,0.9229935317977136,0.8581986409178926,3.3524046944167183,3.5306102821000507,3.591049457524621,3.216163798405517,2.3251402532070045,1.6754972682537648,1.7848867689696175,-0.3764646710572231,0.20760902566844985,-0.7648573795102204,1.4255591958755989,1.0271504444520985,0.7833235622227203,2.8758732796731614,2.1582237256508825,3.425345350682017,3.213656774810545,3.7814914278502463,3.5814994657075383
249,249,249,249,12.5,3.3,-13.2,-4.34,-0.35200000000000004,1.1,-4.01,9.63,-6.5,-7.69,,,,,135,12500000000.0,1.0739655924944354,-14.550738486803384,-0.27097852159198377,-0.3044408980825424,0.4499817277473932,-2.4813849821229588,7.546129023081678,-8.119098402971966,-4.095852629050393,1.0566864367977613,0.8885586951799034,3.2637079657887407,3.0349201445467715,3.67304748455899,2.7170903923302014,2.3348198582716884,2.0989750363336945,1.715053993521179,-1.978814764518264,0.19607902325524015,-0.8596025819110931,0.9539188319004419,0.5380959769904693,-0.3330065370682093,2.61991359919146,2.352961684178598,3.4440021012952546,3.453799812839099,3.1652268064230324,3.5088494508435932
250,250,250,250,12.6,-5.38,-24.6,-8.65,-1.78,-0.337,-2.16,-0.384,-16.7,-11.7,,,,,135,12600000000.0,-1.3861411720448868,-20.6702260646128,-3.4839604088757667,-1.2658042579483784,0.1683950925228233,-2.2623412720395617,4.317546164970172,-13.642721533411365,-7.2628539992945305,1.04778780597608,0.7122061752035039,3.222881772661357,2.4223115136350684,3.5002763263766616,2.255717195173104,2.5281055854766343,2.6965339999453883,1.4314477855917451,-2.5043077959643587,-1.4254061257598214,-0.3931586713608233,-0.33687467596997445,0.3616415534277827,0.19027366649653524,2.3820832295884578,3.2609727392312085,3.3800122548361218,2.7634763041945476,3.242040146821502,3.548214246202341
251,251,251,251,12.6,-12.3,-17.5,0.441,-0.935,0.998,-2.58,-8.11,-8.85,-1.73,,,,,135,12600000000.0,-5.546259093070687,-18.73972020014305,-1.978912670857788,-1.0502770748351251,0.4652325536687865,-2.478845315645396,-0.7420639970452969,-10.557593151562338,-4.9585119446966415,0.9852801846660096,0.7924710855846304,3.2727872559340763,2.516146599641638,3.4145468796433978,2.14825358734858,2.820757005514152,2.618801005129229,1.4112984634196626,-1.1390465256311233,-1.0167953959919762,-1.076392948767931,-1.1768222322000967,0.2039892366337188,-0.19776557159491068,2.519649355491682,3.1043681166991184,3.27460542541808,2.270701954189044,3.7466150654079717,3.6745926279389
252,252,252,252,12.7,-11.3,-9.2,5.65,-1.32,0.299,-2.7,-8.5,0.0935,4.34,,,,,135,12700000000.0,-7.739455964346428,-12.930517391055467,0.9464360368219458,-1.2260082893189188,0.4057535791584089,-2.62957596156884,-3.9005421390805797,-3.7013649780913234,-1.0858356464322307,0.9802074704088984,0.8901189271305742,3.403461193307139,2.7757548157193788,3.3034347363016505,2.3763425303728334,3.0422553628043274,1.700871311189495,1.5217373450884113,0.10705490951836044,0.374746731337634,-1.4067487699337715,-1.8203498884194642,0.5863096895566644,-0.058525728428698326,2.722030330864721,2.2362063142400785,3.188234327093549,2.936125451589291,3.8257245724064184,3.7973720273847347
253,253,253,253,12.7,-5.57,-1.8,1.29,-0.422,0.00611,-1.11,-3.68,7.79,0.421,,,,,135,12700000000.0,-6.9125081444628576,-6.15260037437322,1.0781775201620871,-0.7021769273138377,0.2627587865025207,-1.5938908466733408,-3.810753139201328,3.695755571691678,-0.4582635524199778,0.7256770454343575,0.8187091033885071,3.1384907320376314,2.7204904243292454,3.214768481878324,2.552210476121463,3.3263791191493417,1.5655199516799967,1.3352635716330126,0.5496948744448228,1.1248565586781305,-0.7631695126531187,-1.4224210245924631,0.07459491324411997,-0.14174932133272936,2.963989929698894,1.9651232992602294,3.1325549706338505,2.8950849322364767,3.2879249745956836,3.7650453310270575
254,254,254,254,12.8,-8.03,1.71,2.55,0.506,-0.348,0.823,-6.34,11.3,1.76,,,,,135,12800000000.0,-7.338470837950823,-1.3646780316155267,1.6425559554350766,0.0849803164759314,0.044225750686881886,0.05336995200925077,-4.840482103779913,8.590693155788067,0.4656064771019156,0.6396668214552502,0.7919195505550736,3.1128692761025687,2.688589893190254,3.2057350775506386,2.5345613294355105,2.8841936806765345,2.548196941794839,1.3548641749287251,1.5555905792836309,1.5576653355850083,-0.11760544137962944,-0.971423748497656,-0.305512626926791,-0.2148597808007456,2.6705953861149774,3.0171871263141403,3.1170345749197828,2.4883595284125417,3.2813410324349856,3.8236726237249297
255,255,255,255,12.8,1.09,5.7,4.28,0.981,-0.08800000000000001,2.27,3.58,15.1,3.15,,,,,135,12800000000.0,-4.125727054233684,2.9373501911179467,2.653898512039743,0.6687593836787851,-0.003085390337588777,1.5641405918801117,-1.4122624820807914,12.780807254120235,1.5836119635608743,0.7620995697325224,0.6980602844309349,3.2566737852899914,2.298767254251536,3.495582188371124,2.2892238005715733,2.480934830038484,2.5426642351839446,1.4180324453649196,1.6966018613051097,2.3721042758740576,0.2157245937261967,0.32369916316789765,-0.5035710938574454,-0.0198426885628128,2.7370200474648683,3.076879799100004,3.2828967030463754,2.0784847462642904,3.6857877149546505,3.8623266993733587
256,256,256,256,12.9,1.53,-3.06,-0.213,1.75,0.192,1.42,4.84,6.0,-1.96,,,,,135,12900000000.0,-1.9698909457194045,-0.7147299346511158,1.5545704540523633,1.3732144817726737,0.06671729543558982,1.4658998226852218,1.1332128688816088,8.415925541137812,0.1077562496916713,0.8181875171863262,0.8715452691050155,3.2185599986876166,2.5554165204975963,3.57391067979496,2.7017465110512227,2.3827036814493474,2.0578952160342565,1.5786380856276545,1.1929193074077518,1.7281738753314604,0.3422854330687177,1.2533775422950917,-0.5750483231427669,-0.523820238277715,3.132101122446922,2.49954187455118,3.367593686384025,2.2918285869209805,3.8588932375433527,3.7064570338472063
257,257,257,257,12.9,-32.8,-37.9,3.0,2.24,-1.45,3.78,-28.8,-29.4,0.378,,,,,135,12900000000.0,-13.721635749306708,-23.358662391099767,2.108828391434996,1.93794676686286,-0.4759729748074506,3.043102385483364,-11.053455868978078,-15.92660979470293,0.22030829258421286,0.9631059984670772,0.863960030629784,3.2320507690921803,2.9754181799318866,3.3517265107618965,3.288009244611396,2.3352781734603165,1.5300474115485287,1.7783622922433329,4.266891480111515,-1.8500071190667624,-0.07414812718232819,-0.3478545949344036,0.8223333132172604,-0.5840073781006931,2.7730142099101807,2.0060001725973793,3.2817553245087225,3.178109766444549,3.451446451143786,3.5338198533212393
