,Unnamed: 0,Unnamed: 0.1,Unnamed: 0.1.1,Time (s),Acceleration x (m/s^2),Acceleration y (m/s^2),Acceleration z (m/s^2),Gyroscope x (rad/s),Gyroscope y (rad/s),Gyroscope z (rad/s),Linear Acceleration x (m/s^2),Linear Acceleration y (m/s^2),Linear Acceleration z (m/s^2),Still,Walk,Run,Cycle,RPM,Timestamps,Acceleration x (m/s^2)_kalman,Acceleration y (m/s^2)_kalman,Acceleration z (m/s^2)_kalman,Gyroscope x (rad/s)_kalman,Gyroscope y (rad/s)_kalman,Gyroscope z (rad/s)_kalman,Linear Acceleration x (m/s^2)_kalman,Linear Acceleration y (m/s^2)_kalman,Linear Acceleration z (m/s^2)_kalman,Acceleration x (m/s^2)_kalman_max_freq,Acceleration y (m/s^2)_kalman_max_freq,Acceleration z (m/s^2)_kalman_max_freq,Gyroscope x (rad/s)_kalman_max_freq,Gyroscope y (rad/s)_kalman_max_freq,Gyroscope z (rad/s)_kalman_max_freq,Linear Acceleration x (m/s^2)_kalman_max_freq,Linear Acceleration y (m/s^2)_kalman_max_freq,Linear Acceleration z (m/s^2)_kalman_max_freq,0,1,2,3,4,5,0_max_freq,1_max_freq,2_max_freq,3_max_freq,4_max_freq,5_max_freq
0,0,0,0,0.0521,2.09,3.53,7.91,-0.0504,-0.0886,-0.132,-0.0514,-1.53,-0.221,0,0,0,1,60,52100000,1.708596393,3.068312389,7.440501925,-0.150483962,0.200824615,-0.018782717,0.027722976,-1.395771561,-0.263146111,,,,,,,,,,2.403383839,1.376360859,1.594182139,2.139617589,-0.353392487,0.491925362,,,,,,
1,1,1,1,0.102,1.62,3.84,7.7,-0.675,1.08,0.288,0.0103,-0.903,-0.726,0,0,0,1,60,102000000,1.656482384,3.598582154,7.552232103,-0.550787894,0.857787505,0.206795057,0.01903112,-1.193334087,-0.523652993,,,,,,,,,,2.429833024,1.911849922,1.677559926,1.918787196,-0.115485686,-0.127618279,,,,,,
2,2,2,2,0.152,1.34,2.37,8.27,-0.512,2.34,0.844,0.426,-2.16,-0.375,0,0,0,1,60,152000000,1.448896744,2.695982885,7.924496839,-0.520299184,2.004508711,0.691776728,0.255870875,-1.682234523,-0.429509683,,,,,,,,,,2.104453598,2.130783929,2.015024186,2.226206857,-0.094294768,-1.479551578,,,,,,
3,3,3,3,0.202,1.05,1.38,9.96,-0.118,1.74,1.06,0.569,-3.15,1.28,0,0,0,1,60,202000000,1.184129843,1.724826253,9.020045782,-0.203658252,1.79951449,0.972573288,0.442493652,-2.457086365,0.668931594,,,,,,,,,,1.850075123,1.364846373,3.247927103,2.72725286,-0.596314738,-1.834058684,,,,,,
4,4,4,4,0.252,0.795,0.804,8.49,-0.115,0.456,0.376,0.617,-3.6,-0.269,0,0,0,1,60,252000000,0.925502041,1.045074941,8.732571254,-0.13387309,0.758199434,0.517594233,0.546895651,-3.066029123,0.065162434,,,,,,,,,,1.751502756,1.021838719,2.875440173,3.415809159,-0.39685833,-0.805490024,,,,,,
5,5,5,5,0.302,-0.00239,1.53,10.8,-0.0883,2.28,-0.256,0.773,-2.85,2.05,0,0,0,1,60,302000000,0.308703941,1.403052753,9.855645352,-0.098001253,1.937703536,-0.07239416,0.682250256,-2.950699178,1.343146454,,,,,,,,,,1.114927321,1.835177528,4.293333428,2.915879629,-0.876558564,-1.187059588,,,,,,
6,6,6,6,0.352,-2.06,2.48,9.43,0.218,0.332,-0.814,-1.01,-1.93,0.729,0,0,0,1,60,352000000,-1.265872114,2.198070041,9.624348567,0.150732068,0.693168328,-0.637986519,-0.330894755,-2.405550038,0.947702263,,,,,,,,,,1.014854005,1.212824472,4.138592029,2.212618352,-0.105970705,0.321236891,,,,,,
7,7,7,7,0.402,-1.27,2.19,11,-0.37,0.323,-0.286,-0.726,-1.64,0.628,0,0,0,1,60,402000000,-1.268616084,2.192112667,10.37193338,-0.259150549,0.40626138,-0.369540846,-0.567446818,-1.996636096,0.741847684,,,,,,,,,,1.31803906,1.167942783,4.765931815,1.956047181,0.05067656,0.285449044,,,,,,
8,8,8,8,0.452,-2.49,2.76,9.2,0.165,0.203,-0.633,-1.25,-1.71,0.559,0,0,0,1,60,452000000,-2.080522517,2.611334946,9.735047935,0.074710085,0.248719252,-0.570470351,-0.976096855,-1.843528054,0.624112983,,,,,,,,,,1.114707002,0.921173202,4.216584735,1.618976953,0.414874495,0.665838926,,,,,,
9,9,9,9,0.502,-1.03,1.69,8.65,0.969,-0.425,-0.256,0.33,-2.91,0.0916,0,0,0,1,60,502000000,-1.382194976,1.931192784,9.145378372,0.778630398,-0.273461418,-0.330636719,-0.194125915,-2.413191785,0.281230513,,,,,,,,,,1.605254491,0.253057572,3.458914758,2.441410237,0.161124403,0.70010049,,,,,,
10,10,10,10,0.552,-0.615,-0.0431,7.88,-0.296,1.54,-0.177,1.61,-4.36,-0.644,0,0,0,1,60,552000000,-0.872207467,0.473742536,8.457708062,-0.067240915,1.132101,-0.213464295,0.886019192,-3.453094509,-0.314520829,,,,,,,,,,0.97463151,1.520329106,2.62654425,3.481450447,0.004946793,-0.598564201,,,,,,
11,11,11,11,0.602,-0.333,-2.88,5.61,-1.13,2.05,-0.776,3.46,-6.24,-2.79,0,0,0,1,60,602000000,-0.513773063,-2.00203669,6.91011987,-0.903767982,1.843538412,-0.642487226,2.427082818,-4.941741801,-1.908469588,,,,,,,,,,0.24304862,2.84900702,0.736239184,5.181518359,0.038868798,-1.028886427,,,,,,
12,12,12,12,0.652,-4.34,-4.71,6.25,-2.63,4.13,-2.57,1.55,-6.47,-1.39,0,0,0,1,60,652000000,-3.057230863,-4.0010927,6.551377411,-2.26253304,3.615709948,-2.112522125,1.90196605,-5.758072823,-1.574629578,,,,,,,,,,-2.506904424,4.832612501,0.718536035,5.084830884,0.388197964,-1.118053381,,,,,,
13,13,13,13,0.702,-9.97,-3.68,5.62,-1.3,4.14,-3.56,-2.67,-3.83,-0.93,0,0,0,1,60,702000000,-7.652446162,-3.764057676,6.045219847,-1.504896624,4.022072175,-3.216454099,-0.835307897,-4.728177513,-1.159555788,,,,,,,,,,-4.403168773,4.449900025,0.689930167,2.917351156,1.937847239,-0.089394573,,,,,,
14,14,14,14,0.752,-12.7,-1.52,3.6,-1.31,1.77,-2.43,-5.2,-0.53,-2.68,0,0,0,1,60,752000000,-11.00777228,-2.107463237,4.716363892,-1.351488055,2.27655497,-2.616657859,-3.448485058,-2.485687942,-2.138562332,,,,,,,,,,-4.196430645,2.706390496,-0.648087099,0.36117949,3.89952043,1.071018202,,,,,,
15,15,15,15,0.802,-12.4,-2.03,6.4,-2.72,-0.341,-0.696,-4.81,0.152,0.524,0,0,0,1,60,802000000,-11.9332457,-2.050278783,5.631336798,-2.428681681,0.247762452,-1.151850857,-4.263635284,-1.076746173,-0.424151634,,,,,,,,,,-3.733533696,0.840519181,0.376684507,-1.193461505,3.407157323,1.105692149,,,,,,
16,16,16,16,0.852,-12.3,-2.22,5.64,-2.22,1.44,-0.602,-4.37,0.67,0.629,0,0,0,1,60,852000000,-12.17704319,-2.175569355,5.636044747,-2.264422581,1.171831963,-0.732502155,-4.327316651,-0.143707949,0.253967495,,,,,,,,,,-3.731480459,0.933274057,0.403888189,-2.195243564,3.132022929,0.158283332,,,,,,
17,17,17,17,0.902,-12.3,-3.74,5.83,-2.28,1.6,-0.303,-3.99,1.16,1.67,0,0,0,1,60,902000000,-12.258778,-3.330453709,5.741449781,-2.276683976,1.503692868,-0.404938477,-4.125362387,0.552677894,1.165743787,,,,,,,,,,-3.825208132,0.776201106,0.48914254,-2.880078542,2.481185901,-0.427443817,,,,,,
18,18,18,18,0.952,-12.5,-3.64,3.3,-1.42,1.91,0.425,-3.89,-0.267,0.0842,0,0,0,1,60,952000000,-12.41912864,-3.558965141,4.414642696,-1.602364289,1.818609962,0.228021575,-3.984449041,0.114840502,0.469343098,,,,,,,,,,-3.706459826,0.221760861,-0.942880684,-2.496744823,2.920908334,-1.175144098,,,,,,
19,19,19,19,1,-8.61,-3.16,1.4,-2.22,0.475,1.34,0.316,-0.123,-1.31,0,0,0,1,60,1000000000,-9.887036689,-3.264443617,2.776333658,-2.088522463,0.777216031,1.076081945,-1.409734611,-0.012203876,-0.676367077,,,,,,,,,,-1.971679171,0.223650847,-3.086331957,-1.395405461,2.087317545,-1.435795189,,,,,,
20,20,20,20,1.05,-5.38,-1.72,6,-2.92,-0.659,1.78,3.74,1.06,3.7,0,0,0,1,60,1050000000,-6.891015527,-2.124313992,4.528236684,-2.74300149,-0.335954214,1.612931358,1.673454114,0.560522232,2.14155405,,,,,,,,,,-0.234496507,0.122818921,-1.26462082,-1.314506597,-0.935941851,-1.648337157,,,,,,
21,21,21,21,1.1,-2.94,-2.86,2.87,0.723,1.81,-0.0616,6.35,-0.146,1.28,0,0,0,1,60,1100000000,-4.264605521,-2.667407504,3.627067097,-0.014815858,1.327313914,0.33583496,4.473340772,0.183127823,1.586803644,,,,,,,,,,0.819220346,1.188700214,-2.494744339,-0.090128738,-2.193490146,-1.760166735,,,,,,
22,22,22,22,1.15,-3.61,-5.13,1.87,0.211,0.31,-0.673,5.5,-1.83,0.357,0,0,0,1,60,1150000000,-3.829460992,-4.485327441,2.67218814,0.162930046,0.53882279,-0.433562077,5.088010146,-0.89220027,0.794939161,,,,,,,,,,0.485621846,1.173244824,-3.613365154,1.209630092,-2.334756441,-0.680903668,,,,,,
23,23,23,23,1.2,-12.8,-5.55,-4.03,0.825,1.92,-2.31,-4.14,-0.91,-4.3,0,0,0,1,60,1200000000,-9.792564425,-5.271283595,-0.970119347,0.68406361,1.60933399,-1.864644289,-0.436875799,-0.90170815,-2.485667065,,,,,,,,,,-2.922857473,1.256643214,-6.977834571,-0.227438432,2.205958417,0.771475523,,,,,,
24,24,24,24,1.25,-11.4,-3.3,2.23,-0.971,-3.15,0.984,-2.97,1.7,1.97,0,0,0,1,60,1250000000,-10.86109577,-3.816054736,0.768987064,-0.618682748,-2.079490707,0.307899914,-1.953478234,0.488014759,0.383314919,,,,,,,,,,-2.057192159,-2.101667365,-4.85324979,-2.0093829,1.556381429,1.327311122,,,,,,
25,25,25,25,1.3,-6.42,-4.34,-0.232,1.67,0.591,-1.38,1.81,0.964,-0.841,0,0,0,1,60,1300000000,-7.90890835,-4.202838492,0.225000165,1.182802712,-0.009669179,-0.97939213,0.299747289,0.742266014,-0.40501541,,,,,,,,,,-1.102238453,-0.244330896,-5.776572082,-1.296749305,0.470906802,1.087155654,,,,,,
26,26,26,26,1.35,-4.04,-6.94,0.335,0.529,-1.55,-0.682,3.55,-0.94,-1.24,0,0,0,1,60,1350000000,-5.337078454,-6.22344903,0.284779633,0.668176501,-1.20353582,-0.752583334,2.24570045,-0.156329615,-0.94265786,,,,,,,,,,-0.186256284,-0.30901609,-6.171281217,0.467359296,-0.664447402,1.353034596,,,,,,
27,27,27,27,1.4,-7.49,-14.1,0.879,-1.65,-3.87,-3.26,-0.963,-7.12,-1.32,0,0,0,1,60,1400000000,-6.7682179,-12.03802821,0.607708982,-1.156524323,-3.270236397,-2.664887194,0.324624943,-3.876028892,-1.18562663,,,,,,,,,,-3.674387417,-0.507337644,-5.577586149,3.394676084,-0.176813884,4.126512212,,,,,,
28,28,28,28,1.45,-6.35,-10.2,1.48,-0.687,-1.15,-0.0854,0.259,-3.24,-0.656,0,0,0,1,60,1450000000,-6.490210401,-10.68117022,1.081755966,-0.786948723,-1.626901356,-0.69761809,0.285334749,-3.536289059,-0.844602676,,,,,,,,,,-2.920716409,-0.935135707,-5.113451038,2.884743902,0.070100974,1.321675627,,,,,,
29,29,29,29,1.5,-5.68,-8.06,1.35,0.664,-0.255,0.265,0.855,-1.13,-0.988,0,0,0,1,60,1500000000,-5.951628568,-8.746186407,1.227533329,0.355133129,-0.56357957,0.036531241,0.626398059,-2.250950819,-0.936935488,,,,,,,,,,-1.635890928,-0.999578674,-5.095095285,1.880625993,0.130489447,0.13483463,,,,,,
30,30,30,30,1.55,-5.4,-8.4,1.2,0.0565,-0.325,-0.0427,0.834,-1.14,-1.06,0,0,0,1,60,1550000000,-5.584937384,-8.49062653,1.212570354,0.120070732,-0.378663311,-0.023895177,0.750691054,-1.657527688,-1.016176081,,,,,,,,,,-1.40570411,-0.579762588,-5.180694181,1.481363725,-0.000163309,0.122957955,,,,,,
31,31,31,31,1.6,-5.37,-8.04,1.33,0.0541,0.0825,-0.0097,1.06,-1.02,-1.02,0,0,0,1,60,1600000000,-5.442059179,-8.157967763,1.276387575,0.068143344,-0.021228722,-0.013069098,0.935876845,-1.316987246,-1.018638271,,,,,,,,,,-1.248692876,-0.250955953,-5.145555513,1.217589242,-0.072909921,-0.111795507,,,,,,
32,32,32,32,1.65,-5.34,-5.46,1.01,-0.238,-0.0849,-0.205,0.971,1.66,-1.4,0,0,0,1,60,1650000000,-5.374216152,-6.16629066,1.131619114,-0.172830554,-0.070578521,-0.159446925,0.956905378,0.273193902,-1.264195185,,,,,,,,,,-0.487729306,0.298078303,-5.350286755,-0.077063779,0.025472568,0.259113706,,,,,,
33,33,33,33,1.7,-5.33,-5.89,1.13,-0.155,-0.0599,-1.01,0.589,1.58,-1.17,0,0,0,1,60,1700000000,-5.344823722,-5.962328974,1.130739203,-0.158795633,-0.062301903,-0.808128869,0.736637376,0.971234686,-1.203543344,,,,,,,,,,-0.536831571,0.751051741,-5.334703512,-0.654595333,-0.075492215,0.950990107,,,,,,
34,34,34,34,1.75,-4.08,-8.08,1.75,-0.808,-0.922,-0.729,1.25,-0.299,-0.926,0,0,0,1,60,1750000000,-4.504040915,-7.525622968,1.467276781,-0.669802369,-0.728629478,-0.747780504,1.043991827,0.292728835,-1.024834558,,,,,,,,,,-0.661145114,0.54947592,-5.083918635,0.191219319,-0.587920663,1.187235327,,,,,,
35,35,35,35,1.8,-3.35,-10.6,1.21,0.709,-2.21,-1.59,0.83,-2.26,-1.96,0,0,0,1,60,1800000000,-3.736900194,-9.795170911,1.327459611,0.415491105,-1.876797732,-1.390106802,0.915873139,-1.070831357,-1.626982981,,,,,,,,,,-0.819491795,-0.383668096,-5.373738907,1.787730996,-0.626828413,2.488870752,,,,,,
36,36,36,36,1.85,-3.19,-9.51,1.8,-0.309,-0.999,-3.11,-0.357,-0.584,-1.11,0,0,0,1,60,1850000000,-3.373352138,-9.584653968,1.584261887,-0.154775871,-1.196441647,-2.701798735,0.153793463,-0.810786552,-1.294100208,,,,,,,,,,-1.690854733,1.018578031,-4.888769292,1.436535795,-0.755424095,3.393765524,,,,,,
37,37,37,37,1.9,-1.08,-9.4,1.7,-1.09,-0.63,-2.19,0.841,-0.115,-0.793,0,0,0,1,60,1900000000,-1.848862311,-9.448339572,1.647159846,-0.890916677,-0.757408808,-2.311470871,0.565229715,-0.439126691,-0.971444254,,,,,,,,,,-1.353506932,1.616375672,-4.881545974,1.352494236,-1.375889057,2.779826255,,,,,,
38,38,38,38,1.95,-0.553,-10.4,1.51,-1.2,-0.997,-1.68,0.913,-1,-0.894,0,0,0,1,60,1950000000,-0.987446851,-10.15086819,1.572620257,-1.134204747,-0.943109121,-1.829873893,0.773442655,-0.738721583,-0.921578278,,,,,,,,,,-1.184858429,1.365579427,-5.042470301,1.804332511,-1.671334508,2.431010263,,,,,,
39,39,39,39,2,-1.71,-12.3,1.62,0.171,0.561,-0.327,-0.408,-2.87,-0.808,0,0,0,1,60,2000000000,-1.467759048,-11.73738717,1.598368804,-0.106841987,0.222683138,-0.683693598,0.066103167,-1.877160661,-0.848445805,,,,,,,,,,-1.701062714,0.33346257,-4.994947484,2.488004559,-1.165688215,0.591655622,,,,,,
40,40,40,40,2.05,0.5,-12.1,1.06,0.17,0.117,-0.297,1.63,-2.67,-1.43,0,0,0,1,60,2050000000,-0.159704931,-12.00507326,1.305791987,0.111068,0.140771138,-0.388778241,1.002421137,-2.300662074,-1.222905639,,,,,,,,,,-1.090750537,0.27874094,-5.476029566,3.276297565,-1.537636637,0.29659719,,,,,,
41,41,41,41,2.1,-0.0958,-8.84,1.2,0.246,0.434,-0.391,1.22,0.528,-1.37,0,0,0,1,60,2100000000,-0.117224572,-9.668572501,1.248299307,0.217276715,0.368044491,-0.390472688,1.13268742,-0.789709968,-1.317618973,,,,,,,,,,-0.2228915,0.713901558,-5.553883796,1.992608548,-1.450718411,0.341691262,,,,,,
42,42,42,42,2.15,-1.64,-8.87,1.74,0.245,0.665,0.951,-0.2,0.459,-0.903,0,0,0,1,60,2150000000,-1.129478919,-9.079055147,1.51551429,0.239098483,0.59820629,0.632613502,0.334796433,-0.122701716,-1.050647867,,,,,,,,,,-0.075790532,0.009311047,-5.244021885,1.061234312,-0.960179173,-0.629765263,,,,,,
43,43,43,43,2.2,-1.72,-9.28,1.84,0.0449,0.0623,-0.0402,-0.303,0.0603,-0.798,0,0,0,1,60,2200000000,-1.522023712,-9.227395221,1.691856224,0.086239486,0.182840543,0.119486235,-0.04705757,-0.024949909,-0.887969142,,,,,,,,,,-0.397355289,0.054461444,-4.987575588,0.889123926,-0.939396962,0.135671313,,,,,,
44,44,44,44,2.25,-0.759,-9.76,1.62,0.0394,-0.0409,0.0447,0.684,-0.423,-1,0,0,0,1,60,2250000000,-1.014809018,-9.620571607,1.652805927,0.049370831,0.009425602,0.062449841,0.390632655,-0.237571502,-0.960105257,,,,,,,,,,-0.26362873,0.104742933,-5.099857598,1.259973112,-1.201115372,0.232796129,,,,,,
45,45,45,45,2.3,-1.02,-9.93,1.75,0.168,-0.142,0.107,0.453,-0.61,-0.92,0,0,0,1,60,2300000000,-1.018259674,-9.848996153,1.705626093,0.142747129,-0.107940086,0.096426421,0.427972506,-0.436507123,-0.934281691,,,,,,,,,,-0.281803114,-0.064458051,-5.05033002,1.443684818,-1.225902657,0.247703304,,,,,,
46,46,46,46,2.35,-1.57,-9.94,1.44,0.0596,-0.0904,0.102,-0.0606,-0.614,-1.18,0,0,0,1,60,2350000000,-1.385025247,-9.916176142,1.561271496,0.077299724,-0.094345266,0.10067716,0.135460103,-0.531316352,-1.09249846,,,,,,,,,,-0.489532282,-0.104623996,-5.173849454,1.431335184,-0.967592497,0.260849069,,,,,,
47,47,47,47,2.4,-0.747,-9.83,1.65,-0.0706,-0.0715,0.132,0.789,-0.485,-0.89,0,0,0,1,60,2400000000,-0.960902395,-9.852559665,1.609491031,-0.039116242,-0.076638552,0.124565805,0.526739832,-0.506576116,-0.962110695,,,,,,,,,,-0.321919519,0.04669267,-5.147474113,1.511765246,-1.2525994,0.181744815,,,,,,
48,48,48,48,2.45,-0.23,-9.58,1.41,-0.119,-0.272,0.133,1.3,-0.217,-1.06,0,0,0,1,60,2450000000,-0.475040123,-9.651352293,1.501077516,-0.10199496,-0.228057674,0.130998221,0.989697064,-0.351896751,-1.025141097,,,,,,,,,,0.016330519,0.159757128,-5.325800137,1.552197533,-1.494600042,0.25308596,,,,,,
49,49,49,49,2.5,-0.0718,-10.2,1.82,-0.133,-0.155,0.074,1.42,-0.85,-0.578,0,0,0,1,60,2500000000,-0.206989061,-10.05637148,1.674396122,-0.126399886,-0.171432746,0.087528016,1.247322966,-0.617962534,-0.737229164,,,,,,,,,,-0.079420082,0.200475735,-5.130540781,1.81463871,-1.794719023,0.174611199,,,,,,
50,50,50,50,2.55,-0.555,-10.2,2.26,0.0272,0.0263,-0.0421,0.903,-0.77,-0.145,0,0,0,1,60,2550000000,-0.438326913,-10.1623999,1.992642826,-0.005497167,-0.01817571,-0.011333957,1.041173956,-0.699174533,-0.355895734,,,,,,,,,,-0.315747718,0.15019492,-4.716009855,1.746962994,-1.85576209,0.149798156,,,,,,
51,51,51,51,2.6,-1.69,-9.34,1.98,0.0553,0.147,0.0233,-0.223,0.0448,-0.439,0,0,0,1,60,2600000000,-1.270367915,-9.555293028,1.985772087,0.042357966,0.109847292,0.015079941,0.284302546,-0.301774682,-0.409406166,,,,,,,,,,-0.491978005,0.055753969,-4.637086678,1.143633556,-1.357761238,0.172843886,,,,,,
52,52,52,52,2.65,-1.65,-9.82,1.64,0.0675,-0.0122,0.0624,-0.17,-0.437,-0.804,0,0,0,1,60,2650000000,-1.522725683,-9.750703152,1.797862072,0.062147958,0.015251902,0.051169008,0.012307852,-0.374006353,-0.663483195,,,,,,,,,,-0.601061448,-0.083663888,-4.846010603,1.175144118,-1.102917475,0.238024996,,,,,,
53,53,53,53,2.7,-0.666,-9.78,1.07,0.0608,-0.129,0.0428,0.784,-0.391,-1.38,0,0,0,1,60,2700000000,-0.95322326,-9.772330293,1.402305107,0.061086944,-0.096553646,0.04478631,0.474326313,-0.383083645,-1.124844816,,,,,,,,,,-0.272995532,0.067128628,-5.377283829,1.433247724,-1.175552027,0.310732143,,,,,,
54,54,54,54,2.75,-0.108,-9.85,0.874,0.0125,-0.0727,-0.0873,1.29,-0.451,-1.56,0,0,0,1,60,2750000000,-0.391366989,-9.829667427,1.115197449,0.022842817,-0.078065363,-0.055950504,0.962676875,-0.419361703,-1.405039048,,,,,,,,,,-0.058425642,0.338342787,-5.759710462,1.674772798,-1.347362467,0.362871815,,,,,,
55,55,55,55,2.8,-0.476,-10.1,1.22,0.138,0.308,-0.0329,0.913,-0.674,-1.23,0,0,0,1,60,2800000000,-0.447626201,-10.02923095,1.172152461,0.113486218,0.221162935,-0.038370831,0.932934912,-0.555378767,-1.292332284,,,,,,,,,,-0.214806184,0.388306074,-5.673989952,1.732686089,-1.361964252,0.130077475,,,,,,
56,56,56,56,2.85,-1.31,-9.71,2.04,0.157,0.371,-0.0628,0.0454,-0.311,-0.416,0,0,0,1,60,2850000000,-1.020883137,-9.793570275,1.643784604,0.147737124,0.337297383,-0.057001955,0.401560417,-0.42484192,-0.72806627,,,,,,,,,,-0.507915771,0.23679004,-5.039746987,1.343802326,-1.307417106,0.101064349,,,,,,
57,57,57,57,2.9,-1.46,-9.62,2.46,0.217,0.321,-0.0726,-0.106,-0.23,-0.0287,0,0,0,1,60,2900000000,-1.312783038,-9.665438212,2.087357275,0.202255844,0.324665752,-0.068897944,0.097679797,-0.320765577,-0.277747791,,,,,,,,,,-0.633653396,0.077806255,-4.493912328,1.099553185,-1.351254986,0.130043054,,,,,,
58,58,58,58,2.95,-1.25,-9.71,2.29,0.133,-0.0421,0.0196,0.155,-0.334,-0.237,0,0,0,1,60,2950000000,-1.271048451,-9.698334369,2.197483541,0.147742655,0.040396032,-0.001404191,0.131997877,-0.327834844,-0.251510492,,,,,,,,,,-0.529990168,-0.088221512,-4.401148464,1.144217417,-1.395774271,0.241132137,,,,,,
59,59,59,59,3,-0.912,-9.51,1.81,0.0699,0.0941,0.134,0.559,-0.149,-0.7,0,0,0,1,60,3000000000,-1.032373495,-9.559303501,1.986905393,0.086470547,0.082020451,0.101863035,0.38764759,-0.232308807,-0.540290658,,,,,,,,,,-0.303654598,0.036584705,-4.695388377,1.178390856,-1.379616297,0.121117048,,,,,,
60,60,60,60,3.05,-0.472,-9.96,1.97,0.0162,0.0898,0.0868,1.02,-0.601,-0.549,0,0,0,1,60,3050000000,-0.65986912,-9.855103229,1.977718164,0.031158656,0.088050159,0.090375077,0.766242199,-0.429248115,-0.545898576,,,,,,,,,,-0.242078697,0.140089636,-4.749165165,1.467659954,-1.598695577,0.059578515,,,,,,
61,61,61,61,3.1,-1.14,-9.52,1.99,0.165,0.178,0.0606,1.05,-0.618,-0.593,0,0,0,1,60,3100000000,-0.979032768,-9.607725727,1.984392739,0.136508885,0.157767729,0.067666848,0.936130313,-0.530071404,-0.576226946,,,,,,,,,,-0.243621615,0.147315281,-4.723495585,1.496177472,-1.52266372,-0.01400077,,,,,,
62,62,62,62,3.15,-1.67,-9.74,2.05,0.127,0.309,0.147,-0.0633,-0.401,-0.478,0,0,0,1,60,3150000000,-1.438348393,-9.705372256,2.020047011,0.129024182,0.274983556,0.12817099,0.337763117,-0.461126894,-0.512979092,,,,,,,,,,-0.528127157,0.016674191,-4.62441868,1.258374101,-1.255734029,-0.075406266,,,,,,
63,63,63,63,3.2,-0.919,-10.1,1.7,-0.0174,0.145,0.128,0.725,-0.792,-0.785,0,0,0,1,60,3200000000,-1.093115187,-9.996692198,1.846117335,0.013769658,0.17423699,0.128040587,0.569605057,-0.637865365,-0.688132025,,,,,,,,,,-0.478325587,0.084273906,-4.858597722,1.539229131,-1.349247207,-0.038921839,,,,,,
64,64,64,64,3.25,-1.57,-9.78,2.11,0.0388,0.195,0.0496,0.0467,-0.392,-0.231,0,0,0,1,60,3250000000,-1.410121079,-9.836726822,1.989524439,0.033471733,0.190329804,0.068217169,0.256537473,-0.50653444,-0.393786981,,,,,,,,,,-0.64432653,0.008559327,-4.623297674,1.275976418,-1.319962796,0.038420922,,,,,,
65,65,65,65,3.3,-2.03,-8.74,2.63,-0.0907,0.184,-0.028,-0.449,0.685,0.414,0,0,0,1,60,3300000000,-1.822181254,-9.027107739,2.337591253,-0.064267273,0.185423753,-0.005163721,-0.16587365,0.129933059,0.12634306,,,,,,,,,,-0.659624723,0.025824583,-4.140103615,0.515367678,-1.334606372,0.195229936,,,,,,
66,66,66,66,3.35,-2.02,-9.55,2.47,-0.285,-0.00855,-0.0751,-0.438,-0.112,0.309,0,0,0,1,60,3350000000,-1.953679874,-9.413114181,2.409548866,-0.238012105,0.035080205,-0.058501251,-0.328797943,0.00070261,0.24395495,,,,,,,,,,-0.882761906,-0.034312997,-4.03944078,0.580235295,-1.355120178,0.324299867,,,,,,
67,67,67,67,3.4,-1.3,-9.38,1.68,-0.0131,-0.0959,0.181,0.347,0.0368,-0.524,0,0,0,1,60,3400000000,-1.519150701,-9.388668919,2.013075155,-0.060977566,-0.066438832,0.124156527,0.075807878,0.019984315,-0.250527434,,,,,,,,,,-0.460627015,-0.102320276,-4.586608421,0.788503204,-1.331552771,0.228417739,,,,,,
68,68,68,68,3.45,-1.17,-10.2,1.56,0.132,-0.179,0.106,0.484,-0.802,-0.659,0,0,0,1,60,3450000000,-1.287055176,-9.987604608,1.766851213,0.090920413,-0.153681801,0.110309288,0.320195877,-0.419085068,-0.513540884,,,,,,,,,,-0.48475265,-0.202419646,-4.903273036,1.292632497,-1.357271321,0.242784964,,,,,,
69,69,69,69,3.5,-1.92,-9.69,1.47,-0.0266,-0.217,0.0215,0.467,-0.797,-0.654,0,0,0,1,60,3500000000,-1.70780081,-9.767908459,1.605527294,-0.001583154,-0.202757933,0.042578086,0.408088725,-0.620951298,-0.603981803,,,,,,,,,,-0.624513174,-0.162416786,-5.024421912,1.377650879,-1.215370146,0.291059615,,,,,,
70,70,70,70,3.55,-0.991,-9.71,1.61,-0.0565,0.014,-0.0708,0.619,-0.276,-0.538,0,0,0,1,60,3550000000,-1.231312463,-9.725159662,1.607957996,-0.044809722,-0.034755014,-0.04389073,0.534363061,-0.436692844,-0.561496439,,,,,,,,,,-0.515556991,0.094176962,-5.045699549,1.316940586,-1.405379052,0.285556915,,,,,,
71,71,71,71,3.6,-1.52,-10,2.19,-0.141,0.00367,-0.0586,0.6,-0.263,-0.49,0,0,0,1,60,3600000000,-1.423215479,-9.928050602,1.924269034,-0.120523752,-0.004972877,-0.055108888,0.573660454,-0.343913451,-0.515460242,,,,,,,,,,-0.533028753,0.145926631,-4.755605523,1.227566742,-1.42313199,0.232078744,,,,,,
72,72,72,72,3.65,-2.2,-8.86,2.48,0.029,0.112,0.0263,-0.596,0.583,0.371,0,0,0,1,60,3650000000,-1.939577609,-9.139600617,2.226281306,-0.002829472,0.085689481,0.006978333,-0.126624947,0.151204666,0.055327114,,,,,,,,,,-0.637442664,-0.070315413,-4.275906361,0.50596265,-1.30633301,0.241698852,,,,,,
73,73,73,73,3.7,-0.733,-8.98,3.27,-0.0296,-0.164,0.0825,0.902,0.457,1.18,0,0,0,1,60,3700000000,-1.137513537,-9.021780895,2.793490722,-0.023901295,-0.107837749,0.064575614,0.489221325,0.314547643,0.779498384,,,,,,,,,,-0.246140721,-0.103332717,-3.691435975,0.513055092,-2.049689727,0.227820403,,,,,,
74,74,74,74,3.75,-2.16,-9.67,0.97,-0.146,-0.36,0.016,-0.589,-0.212,-1.09,0,0,0,1,60,3750000000,-1.817204346,-9.500305263,1.802513827,-0.120008561,-0.30328156,0.027528986,-0.156318695,0.033288077,-0.424262392,,,,,,,,,,-0.587696808,-0.194154779,-4.798465385,0.740412393,-1.147953991,0.504053714,,,,,,
75,75,75,75,3.8,1.32,-10.8,1.54,-0.247,-0.365,0.00802,2.83,-1.32,-0.381,0,0,0,1,60,3800000000,0.26823042,-10.45975804,1.65985054,-0.21996703,-0.351117778,0.012650282,1.63161497,-0.689581427,-0.39640596,,,,,,,,,,-0.050348052,0.213021773,-5.145337352,1.980404933,-2.259086659,0.294315385,,,,,,
76,76,76,76,3.85,-1.12,-9.49,1.03,-0.397,-0.407,-0.142,0.254,0.0552,-0.757,0,0,0,1,60,3850000000,-0.654586083,-9.743869069,1.317557945,-0.359314589,-0.394430505,-0.10529515,0.806825494,-0.291750567,-0.628590696,,,,,,,,,,-0.323302539,0.21930745,-5.393112878,1.371858288,-1.659830085,0.589429049,,,,,,
77,77,77,77,3.9,-2.84,-10.1,3.04,-0.22,0.249,-0.227,-1.54,-0.564,1.4,0,0,0,1,60,3900000000,-2.107324701,-10.00677013,2.253619889,-0.249656222,0.104274206,-0.198114447,-0.598238323,-0.43717475,0.677608795,,,,,,,,,,-1.437348619,-0.139854945,-4.054550724,0.789244667,-1.478237677,0.384206985,,,,,,
78,78,78,78,3.95,-1.32,-9.65,1.38,-0.277,-0.164,-0.0836,-0.0776,-0.0421,-0.161,0,0,0,1,60,3950000000,-1.583956126,-9.743397203,1.778850737,-0.271179274,-0.103657516,-0.110778974,-0.286527853,-0.226142464,0.137632745,,,,,,,,,,-0.991229232,-0.067961106,-4.674067392,0.849229015,-1.444082363,0.491348234,,,,,,
79,79,79,79,4,-1.68,-9.31,2.02,-0.298,-0.248,-0.17,-0.516,0.326,0.6,0,0,0,1,60,4000000000,-1.647800587,-9.423457701,1.90990341,-0.292290615,-0.215533273,-0.155944423,-0.42391471,0.068788781,0.435348747,,,,,,,,,,-0.952998801,-0.118991129,-4.48361773,0.530415606,-1.54177906,0.64417033,,,,,,
80,80,80,80,4.05,-2.05,-10.1,1.23,-0.301,0.147,-0.155,-0.94,-0.454,-0.0652,0,0,0,1,60,4050000000,-1.915159813,-9.922890868,1.540409585,-0.299146012,0.065455972,-0.155224151,-0.732899242,-0.210462958,0.113047886,,,,,,,,,,-1.314813119,-0.057981435,-4.861573653,0.699437835,-1.233283875,0.484403146,,,,,,
81,81,81,81,4.1,-1.8,-10.1,1.4,-0.21,0.0305,-0.289,-0.792,-0.376,0.197,0,0,0,1,60,4100000000,-1.838608098,-10.05363556,1.464103915,-0.228976715,0.038362591,-0.257249509,-0.768283352,-0.298885865,0.167104235,,,,,,,,,,-1.395134953,-0.074991828,-4.917104121,0.777842763,-1.283950778,0.601723294,,,,,,
82,82,82,82,4.15,-1.45,-9.64,1.36,-0.188,-0.0507,-0.132,-0.502,0.0525,0.223,0,0,0,1,60,4150000000,-1.580283604,-9.74828432,1.4075286,-0.196722804,-0.030667295,-0.161726844,-0.608857291,-0.111190341,0.203095244,,,,,,,,,,-1.147174366,-0.105208985,-4.994219488,0.680816605,-1.39591388,0.579123216,,,,,,
83,83,83,83,4.2,-2.11,-10.3,1.52,-0.17,0.147,-0.211,-1.23,-0.577,0.474,0,0,0,1,60,4200000000,-1.932408818,-10.15556861,1.468651226,-0.175688547,0.10703758,-0.199305456,-0.980740581,-0.360006248,0.37752948,,,,,,,,,,-1.548670174,-0.201638275,-4.853039072,0.73806254,-1.288737973,0.521858243,,,,,,
84,84,84,84,4.25,-1.75,-10,1.2,-0.195,0.122,-0.344,-1,-0.309,0.22,0,0,0,1,60,4250000000,-1.811153827,-10.04072571,1.322652614,-0.19088912,0.118634528,-0.30965806,-0.992271355,-0.332760851,0.276097027,,,,,,,,,,-1.546180492,-0.082919483,-5.000373281,0.744856017,-1.269735315,0.643827803,,,,,,
85,85,85,85,4.3,-2.52,-11.5,1.98,-0.0675,0.0367,-0.257,-1.84,-1.78,0.966,0,0,0,1,60,4300000000,-2.282354369,-11.11798218,1.679888378,-0.093766133,0.055129401,-0.269497916,-1.499813529,-1.105815017,0.720322149,,,,,,,,,,-2.201597154,-0.55778362,-4.511729357,1.191181521,-1.22887384,0.576122583,,,,,,
86,86,86,86,4.35,-1.89,-9.89,2.94,0.326,0.00977,-0.0372,-1.18,-0.189,1.67,0,0,0,1,60,4350000000,-2.021539526,-10.211469,2.364696677,0.236643405,0.019972618,-0.092333822,-1.308338492,-0.616091058,1.331814988,,,,,,,,,,-1.675421127,-0.777839124,-3.772936608,0.765892708,-1.566943213,0.448890721,,,,,,
87,87,87,87,4.4,-1.3,-9.84,1.76,0.834,-0.304,0.134,-0.477,-0.229,-0.0328,0,0,0,1,60,4400000000,-1.541901122,-9.937245557,2.036073971,0.706839296,-0.231129351,0.080281705,-0.810609257,-0.409323324,0.453146153,,,,,,,,,,-0.88940297,-0.94200103,-4.354617746,0.941502714,-1.387190787,0.489060488,,,,,,
88,88,88,88,4.45,0.0383,-9.85,1.94,1.36,0.187,0.604,1.3,-0.433,-0.495,0,0,0,1,60,4450000000,-0.491473436,-9.872839961,1.983862556,1.220960163,0.09295084,0.479700151,0.453029939,-0.421970406,-0.157360464,,,,,,,,,,0.069301073,-0.838192905,-4.701832528,1.415107924,-1.649564834,-0.199483836,,,,,,
89,89,89,89,4.5,0.256,-10.6,4.17,1.42,0.308,0.977,1.93,-1.38,1.19,0,0,0,1,60,4500000000,0.005404331,-10.40963984,3.171920045,1.37762989,0.259629336,0.858970351,1.337304103,-0.933709451,0.710198305,,,,,,,,,,0.307214636,-1.07129774,-3.50543135,1.934204146,-2.391201916,-0.925886904,,,,,,
90,90,90,90,4.55,-3.07,-9.08,3.93,1.21,0.413,0.601,-1.22,-0.0879,0.493,0,0,0,1,60,4550000000,-2.038949227,-9.428081258,3.583898998,1.245683797,0.378502573,0.662226952,-0.193775039,-0.481913675,0.570345392,,,,,,,,,,-0.311430569,-1.130286765,-2.894095542,0.972737155,-1.303084953,-0.652211415,,,,,,
91,91,91,91,4.6,-6.4,-7.73,3.7,0.539,0.456,0.208,-0.978,-0.197,0.348,0,0,0,1,60,4600000000,-4.937927407,-8.174534193,3.646994169,0.689433414,0.438568628,0.315806686,-0.663297003,-0.329724792,0.427178288,,,,,,,,,,-1.07763327,-0.832348543,-2.611700963,0.170006492,-0.346641862,-0.467211034,,,,,,
92,92,92,92,4.65,-4.27,-8.74,4.64,0.26,0.0189,0.822,-1.72,-0.0314,0.937,0,0,0,1,60,4650000000,-4.493927304,-8.591968706,4.186643594,0.351414489,0.113295392,0.701859589,-1.295953847,-0.170372256,0.75544995,,,,,,,,,,-1.044263129,-1.200253423,-2.06750878,0.051928487,-0.436260275,-0.51620343,,,,,,
93,93,93,93,4.7,-2.56,-10.9,5.16,0.232,-0.984,1.27,0.304,-2.39,1.13,0,0,0,1,60,4700000000,-3.208362565,-10.29578906,4.715614519,0.257420036,-0.737187127,1.135156968,-0.338048247,-1.356003939,0.99662087,,,,,,,,,,-0.755800449,-1.86903573,-1.690523704,1.495889256,-1.200459879,-0.626778467,,,,,,
94,94,94,94,4.75,-4.38,-8.88,6.74,0.688,-1.02,1.16,-1.18,-0.762,2.27,0,0,0,1,60,4750000000,-3.987200463,-9.250634072,5.815767659,0.596341454,-0.956387339,1.154103704,-0.842131696,-1.038712073,1.816543376,,,,,,,,,,-0.68081444,-2.356006188,-0.382393368,0.909123097,-1.157661693,-0.476857263,,,,,,
95,95,95,95,4.8,-3.27,-8.15,4.66,0.84,-0.72,1.26,0.25,-0.473,-0.331,0,0,0,1,60,4800000000,-3.510446439,-8.43813049,5.187665085,0.788131814,-0.773170247,1.234866459,-0.188263414,-0.736532512,0.433750827,,,,,,,,,,0.123576101,-1.917706588,-1.30926667,1.033548627,-0.730286951,-0.617481144,,,,,,
96,96,96,96,4.85,-1.28,-7.15,6.28,0.986,-1.45,1.29,2.18,0.063,0.61,0,0,0,1,60,4850000000,-2.02777269,-7.487214811,5.781295135,0.943879337,-1.297761805,1.276914521,1.229635527,-0.309455928,0.547236806,,,,,,,,,,1.395078409,-1.806507339,-0.894706772,1.187199734,-1.544652048,-0.41896636,,,,,,
97,97,97,97,4.9,-2.28,-6.41,5.34,1.27,-1.16,0.246,0.926,0.422,-0.919,0,0,0,1,60,4900000000,-2.195439018,-6.691999821,5.541473164,1.200577916,-1.190986516,0.490678296,1.047846424,0.081257007,-0.396865834,,,,,,,,,,1.521616387,-1.164916368,-1.218147666,0.97299471,-1.020277232,0.36355013,,,,,,
98,98,98,98,4.95,-5.51,-2.26,7.37,1.28,-0.194,-0.0922,0.92,0.143,-1.21,0,0,0,1,60,4950000000,-4.39877049,-3.420236226,6.535186892,1.263093213,-0.418250584,0.04614092,0.971303722,0.114237516,-0.920438923,,,,,,,,,,1.503344303,-0.363212175,-0.00770661,0.42952588,0.151119668,0.20026229,,,,,,
99,99,99,99,5,-3.84,-3.1,6.3,0.386,0.00794,0.184,-0.744,3.33,-0.433,0,0,0,1,60,5000000000,-4.027331643,-3.183833343,6.407374566,0.572708891,-0.087922365,0.151280387,-0.055662819,1.831962314,-0.606579412,,,,,,,,,,1.531967413,0.110934104,-0.143080413,-1.111359512,0.078996878,0.212203383,,,,,,
100,100,100,100,5.05,-1.63,-5.42,6.83,0.354,-1.06,-0.0696,1.15,0.889,-0.147,0,0,0,1,60,5050000000,-2.433722133,-4.834602564,6.63705052,0.400557075,-0.841352091,-0.017176027,0.666177472,1.328271572,-0.310658504,,,,,,,,,,1.716475711,-0.034342909,-0.051309964,-0.201128578,-0.856803597,0.722465305,,,,,,
101,101,101,101,5.1,-1.87,-5.25,8.45,0.395,-0.493,-0.0225,0.821,0.912,1.31,0,0,0,1,60,5100000000,-2.058991776,-5.141254699,7.622298685,0.396182956,-0.571354278,-0.021236404,0.758870988,1.105916836,0.732875447,,,,,,,,,,1.533516903,-0.028680359,1.083387953,-0.101034191,-1.456349615,0.445363775,,,,,,
102,102,102,102,5.15,-5.21,-5.41,8.53,0.432,0.24,-0.069,-2.48,0.627,1.3,0,0,0,1,60,5150000000,-4.153602564,-5.339646086,8.115589256,0.424375551,0.057503378,-0.057663739,-1.180267882,0.850099625,1.098044108,,,,,,,,,,0.2381374,-0.314595876,1.900104637,-0.649353243,-0.462570675,0.194685024,,,,,,
103,103,103,103,5.2,-3.76,-4.95,8.1,0.104,-0.0519,0.158,-1.08,1.03,0.805,0,0,0,1,60,5200000000,-3.891957996,-5.052003813,8.107117475,0.172199095,-0.027292073,0.106814156,-1.120236697,0.946194811,0.909354462,,,,,,,,,,0.443389154,-0.23292844,1.843060618,-0.648613001,-0.420982813,0.123040705,,,,,,
104,104,104,104,5.25,-3.16,-5.09,7.76,-0.0308,-0.678,0.344,-0.537,0.83,0.389,0,0,0,1,60,5250000000,-3.405394075,-5.080053237,7.91847644,0.012412893,-0.531637288,0.287706082,-0.771048061,0.884128429,0.574300799,,,,,,,,,,0.825765318,-0.387309593,1.53180176,-0.365025823,-0.495372939,0.270601327,,,,,,
105,105,105,105,5.3,-3.33,-6.29,8.54,0.0687,-0.293,0.508,-0.669,-0.537,1.05,0,0,0,1,60,5300000000,-3.355276338,-5.97325265,8.256243697,0.056718032,-0.346676313,0.455715232,-0.70995106,0.125021495,0.880601129,,,,,,,,,,0.482286251,-0.585608773,1.916586892,0.233534272,-0.645305427,-0.130490451,,,,,,
106,106,106,106,5.35,-2.49,-5.5,8.36,0.472,-0.395,0.395,0.0728,0.0282,0.676,0,0,0,1,60,5350000000,-2.780089927,-5.623890996,8.312629923,0.383597958,-0.384130639,0.409410222,-0.241311522,0.073303532,0.748859474,,,,,,,,,,0.904978903,-0.562535932,1.910041058,0.473799059,-0.817543943,-0.08286626,,,,,,
107,107,107,107,5.4,0.627,-4.73,7.02,0.49,-0.489,0.0764,3.08,0.537,-0.879,0,0,0,1,60,5400000000,-0.515250653,-4.964008309,7.610149559,0.467349956,-0.465411897,0.155436979,1.74718512,0.32099065,-0.299311188,,,,,,,,,,2.252703185,0.331091428,0.81708034,1.125573999,-1.477415916,0.131019447,,,,,,
108,108,108,108,5.45,-0.967,-6.8,8.93,0.793,-0.199,-0.0286,1.4,-1.81,0.824,0,0,0,1,60,5450000000,-0.815547889,-6.319362918,8.327423083,0.723678099,-0.258923602,0.015079522,1.539322502,-0.817294746,0.423983326,,,,,,,,,,1.464296297,0.011185763,1.708132625,1.893638822,-1.690505496,-0.050706518,,,,,,
109,109,109,109,5.5,-4.44,-4.48,9.47,0.921,0.115,-0.486,-2.03,0.115,1.15,0,0,0,1,60,5500000000,-3.224877216,-4.961519777,8.948357204,0.878995628,0.030893965,-0.367073282,-0.597660395,-0.319302169,0.891461853,,,,,,,,,,0.507112643,-0.205791802,2.74078868,0.615833575,-0.583743473,0.36209959,,,,,,
110,110,110,110,5.55,-2.13,-2.94,8.77,1.13,0.644,-0.388,0.374,1.27,0.276,0,0,0,1,60,5550000000,-2.497065291,-3.469205951,8.851429144,1.076568108,0.506095037,-0.38303324,-0.015919269,0.529636082,0.495169008,,,,,,,,,,1.346844287,0.404827636,2.519045697,0.125215865,-0.650635225,0.159070861,,,,,,
111,111,111,111,5.6,-4.79,-2.15,7.96,0.879,-0.238,-0.321,-2.43,1.78,-0.709,0,0,0,1,60,5600000000,-4.021277638,-2.495349936,8.366981567,0.921056792,-0.0706319,-0.335723039,-1.461249416,1.197527793,-0.28018945,,,,,,,,,,1.196211658,-0.008508011,2.066232232,-0.758309272,0.540310455,0.773909298,,,,,,
112,112,112,112,5.65,-3.07,-4.58,8.02,0.35,-0.54,0.0807,-0.868,-0.831,-0.776,0,0,0,1,60,5650000000,-3.388922412,-4.0342674,8.178414516,0.471562191,-0.434425802,-0.018134262,-1.106066065,0.113973724,-0.599439423,,,,,,,,,,0.987908396,-0.219456831,1.754869497,0.404218394,0.394610846,0.567251543,,,,,,
113,113,113,113,5.7,0.8,-5.14,7.6,0.576,-0.549,0.772,3.04,-1.76,-1.33,0,0,0,1,60,5700000000,-0.604365416,-4.850534405,7.864074817,0.55376806,-0.523229029,0.584468749,1.376217969,-0.887024083,-1.06984379,,,,,,,,,,2.192902482,-0.063485091,1.050534379,2.166897714,-0.736572788,-0.240520892,,,,,,
114,114,114,114,5.75,0.177,-4.31,8.24,0.458,0.108,0.721,2.66,-1.23,-0.729,0,0,0,1,60,5750000000,-0.084958199,-4.451504386,8.068371414,0.478386374,-0.033981332,0.688595547,2.144828944,-1.070227378,-0.850376143,,,,,,,,,,2.400482929,0.342420591,1.259586913,2.404934846,-1.10640993,-0.777471878,,,,,,
115,115,115,115,5.8,-2.11,-2.9,8.39,0.651,0.793,0.251,0.736,-0.0977,-0.561,0,0,0,1,60,5800000000,-1.431090558,-3.306162453,8.243160811,0.614255351,0.606988401,0.354859358,1.3013514,-0.550744226,-0.66404827,,,,,,,,,,1.944675846,0.660076923,1.647955301,1.49001293,-0.540881667,-0.768199173,,,,,,
116,116,116,116,5.85,-3.68,-1.79,8.49,0.426,0.914,-0.0763,-0.532,0.955,-0.385,0,0,0,1,60,5850000000,-2.926037485,-2.186910325,8.377305563,0.466074357,0.844944354,0.026031795,0.203708745,0.253560893,-0.484370464,,,,,,,,,,1.488293555,0.868037039,1.98609093,0.318858421,0.075430724,-0.450989311,,,,,,
117,117,117,117,5.9,-1.62,-1.59,8.31,0.164,0.439,-0.555,1.56,1.21,-0.537,0,0,0,1,60,5900000000,-2.05785817,-1.746262889,8.34072855,0.228303279,0.530308421,-0.417097334,1.015731507,0.76445039,-0.518258362,,,,,,,,,,1.995859792,1.420046538,1.849567534,0.203976987,-0.465889616,0.130784233,,,,,,
118,118,118,118,5.95,-3.39,-2.29,8.28,-0.179,0.0403,-0.47,-0.179,0.636,-0.515,0,0,0,1,60,5950000000,-2.94339024,-2.147657119,8.307725445,-0.092296402,0.150516809,-0.457444027,0.300435866,0.695837591,-0.51616031,,,,,,,,,,1.500726992,1.150493316,1.889873267,0.036874922,-0.10315235,0.450034567,,,,,,
119,119,119,119,6,-2.62,-2.82,8.93,-0.316,0.318,-0.151,0.738,0.285,0.259,0,0,0,1,60,6000000000,-2.728418755,-2.643989887,8.645901018,-0.268379703,0.280328266,-0.223731729,0.562409119,0.476385457,-0.017038421,,,,,,,,,,1.408895429,1.095889616,2.257971365,0.207566466,-0.475784352,0.043114244,,,,,,
120,120,120,120,6.05,-3.15,-3.31,8.1,-0.628,0.525,0.0496,0.445,0.0995,-0.359,0,0,0,1,60,6050000000,-3.008662014,-3.135647725,8.349231054,-0.551446802,0.46996636,-0.015272827,0.492115304,0.275069124,-0.237225787,,,,,,,,,,1.146535071,1.151602184,1.928698571,0.321256553,-0.289285456,-0.302650138,,,,,,
121,121,121,121,6.1,-3.79,-3.71,7.71,-0.994,0.71,0.0331,0.7,0.549,-0.0478,0,0,0,1,60,6100000000,-3.528050971,-3.559642549,8.001840651,-0.899792679,0.656009602,0.021619146,0.616577584,0.421391471,-0.115255461,,,,,,,,,,0.833731934,1.334772702,1.589322558,0.067626287,-0.341103859,-0.522300562,,,,,,
122,122,122,122,6.15,-4.56,-3.84,8.46,-1.05,0.414,-0.299,-0.631,0.489,0.586,0,0,0,1,60,6150000000,-4.21403186,-3.766606235,8.25082759,-1.018024978,0.468434835,-0.222903925,-0.130357427,0.457505095,0.336279475,,,,,,,,,,0.300023675,1.161139776,2.002525159,-0.236344544,-0.227295519,-0.127386253,,,,,,
123,123,123,123,6.2,-4.82,-5.17,7.32,-1.01,0.406,-0.369,-0.839,-0.415,-0.278,0,0,0,1,60,6200000000,-4.616845073,-4.802610986,7.744968981,-1.011708288,0.420043358,-0.334325401,-0.554627591,-0.008550364,-0.059252036,,,,,,,,,,-0.223538324,1.021924656,1.475242534,0.106833435,0.112796875,0.018870776,,,,,,
124,124,124,124,6.25,-4.65,-5,6.22,-0.939,0.235,-0.345,-0.673,0.181,-1.1,0,0,0,1,60,6250000000,-4.638884643,-4.948326287,6.91622374,-0.954477592,0.276621506,-0.342466479,-0.625498118,0.092699452,-0.729384513,,,,,,,,,,-0.157460514,0.998591371,0.533523616,0.122760118,0.415272107,0.20236976,,,,,,
125,125,125,125,6.3,-3.01,-5.45,5.73,-1.11,0.102,-0.33,0.94,0.183,-1.25,0,0,0,1,60,6300000000,-3.556094919,-5.318668622,6.271569887,-1.076893592,0.141277334,-0.332958817,0.311778556,0.140934199,-1.064606248,,,,,,,,,,0.286149855,1.274836523,-0.300519008,0.473466687,-0.049869715,0.225450502,,,,,,
126,126,126,126,6.35,-3.52,-7.36,6.73,-1.1,0.0996,-0.37,0.326,-1.28,0.0765,0,0,0,1,60,6350000000,-3.53210106,-6.825607787,6.520703963,-1.095081304,0.108974418,-0.361208612,0.320293055,-0.61806897,-0.329853585,,,,,,,,,,-0.33247986,0.976074448,0.055479785,1.02451522,-0.498988972,0.121912499,,,,,,
127,127,127,127,6.4,-3.96,-6.91,6.52,-0.89,0.0489,-0.752,-0.329,-0.388,0.152,0,0,0,1,60,6400000000,-3.816543925,-6.887907174,6.520321384,-0.933656126,0.062412443,-0.659249158,-0.068444067,-0.495175825,-0.01959045,,,,,,,,,,-0.609409679,0.908713079,0.160166408,0.780892064,-0.515801494,0.479178518,,,,,,
128,128,128,128,6.45,-4.93,-8.75,7.18,-0.744,0.232,-0.801,-1.48,-1.9,1.07,0,0,0,1,60,6450000000,-4.556705979,-8.262529861,6.878823952,-0.784372557,0.193854937,-0.767356712,-0.913554294,-1.245573701,0.681991481,,,,,,,,,,-1.61234153,0.456988538,0.730581224,1.065090366,-0.470147951,0.445143549,,,,,,
129,129,129,129,6.5,-5.14,-7.47,5.51,-0.652,0.128,-0.439,-1.77,-0.364,-0.344,0,0,0,1,60,6500000000,-4.944446527,-7.677473198,6.13493604,-0.680178464,0.14281265,-0.516932521,-1.426315413,-0.774674167,0.021360638,,,,,,,,,,-1.430574629,0.27145879,-0.081526745,0.615698599,0.1333851,0.435490768,,,,,,
130,130,130,130,6.55,-2.79,-8.01,5.4,-0.687,0.0959,-0.228,0.534,-0.694,-0.222,0,0,0,1,60,6550000000,-3.512293183,-7.922949253,5.735534747,-0.685547865,0.106451987,-0.296575536,-0.252658368,-0.731581429,-0.135338074,,,,,,,,,,-0.747012199,0.467994725,-0.685164958,1.032050633,-0.52259997,0.172958826,,,,,,
131,131,131,131,6.6,-3.4,-9.4,5.76,-0.593,-0.412,-0.05,-0.183,-1.94,0.268,0,0,0,1,60,6600000000,-3.437647135,-9.013328269,5.748830525,-0.612700877,-0.295385426,-0.108522487,-0.210953326,-1.377067749,0.124369319,,,,,,,,,,-0.968091545,-0.090037333,-0.662290029,1.600897465,-0.726075434,0.166535569,,,,,,
132,132,132,132,6.65,-2.4,-7.82,4.44,-0.228,-0.107,-0.0555,0.789,-0.317,-1.02,0,0,0,1,60,6650000000,-2.747878495,-8.132396957,5.037545977,-0.309892176,-0.149373233,-0.068084411,0.387726989,-0.810824219,-0.612484408,,,,,,,,,,-0.200304639,0.214610747,-1.566104352,1.42415262,-0.681968811,0.126049107,,,,,,
133,133,133,133,6.7,-4.91,-8.79,6.99,0.0107,0.0177,0.0893,-1.71,-1.32,1.51,0,0,0,1,60,6700000000,-4.1851336,-8.617848594,6.098607932,-0.057545207,-0.019879515,0.051946225,-0.868199538,-1.082804498,0.754172789,,,,,,,,,,-1.127662439,-0.567140869,-0.142052747,1.005902843,-0.582292591,-0.079277248,,,,,,
134,134,134,134,6.75,-2.89,-7.33,4.46,0.0718,-0.321,0.15,0.304,0.0552,-1.15,0,0,0,1,60,6750000000,-3.324202633,-7.667140887,5.208105683,0.044265984,-0.253269459,0.126727823,-0.166393982,-0.47493044,-0.471914628,,,,,,,,,,-0.12074428,-0.260268424,-1.33579129,0.954401399,-0.394582231,0.115090317,,,,,,
135,135,135,135,6.8,-2.82,-7.06,4.42,0.438,-0.144,0.255,0.417,0.182,-1.34,0,0,0,1,60,6800000000,-2.989037401,-7.218941042,4.779809311,0.354184913,-0.1685778,0.224555749,0.182888819,-0.124025877,-1.030870523,,,,,,,,,,0.405896168,-0.184381981,-1.915446218,0.854388533,-0.286427034,0.027077161,,,,,,
136,136,136,136,6.85,-4.19,-7.55,7.2,0.218,-0.277,0.302,-0.92,-0.412,1.33,0,0,0,1,60,6850000000,-3.787368959,-7.463333486,6.095063003,0.246989997,-0.252612776,0.283619293,-0.477419852,-0.277849522,0.489282347,,,,,,,,,,-0.202661632,-0.679207506,-0.280875886,0.52423704,-0.616600482,-0.055706033,,,,,,
137,137,137,137,6.9,-5.5,-6.81,6.13,0.333,-0.385,0.42,-2.13,0.1,0.0405,0,0,0,1,60,6900000000,-4.925828511,-6.981033625,6.114049593,0.314690853,-0.355222346,0.387631256,-1.466833328,-0.076018225,0.200313616,,,,,,,,,,-0.43609139,-1.017771744,-0.193168215,0.060355915,0.151573133,0.053374758,,,,,,
138,138,138,138,6.95,-3.96,-7.85,7.73,0.534,-0.338,0.571,-0.51,-1.18,1.42,0,0,0,1,60,6950000000,-4.283800763,-7.622516555,6.99223863,0.487315132,-0.341873794,0.527479062,-0.893969292,-0.66571875,0.985663613,,,,,,,,,,-0.375814478,-1.24493565,0.730546927,0.652323754,-0.528254493,-0.274464622,,,,,,
139,139,139,139,7,-5.14,-7.92,5.48,0.425,-0.447,0.579,-1.68,-1.48,-1.07,0,0,0,1,60,7000000000,-4.852953152,-7.842123006,6.170411829,0.438265177,-0.423354129,0.566771966,-1.364572349,-1.100673498,-0.337968045,,,,,,,,,,-0.580223975,-1.273959745,-0.226029053,1.053096343,0.41954312,-0.172783698,,,,,,
140,140,140,140,7.05,-1.34,-5.33,4.32,0.508,-0.643,0.609,2.17,0.851,-2.44,0,0,0,1,60,7050000000,-2.517742042,-5.98763899,5.164804722,0.493155398,-0.593595411,0.598977577,0.751605406,-0.058171734,-1.691456052,,,,,,,,,,1.39719951,-0.355204609,-1.70486653,1.093987587,-0.090538429,-0.05040221,,,,,,
141,141,141,141,7.1,-3.3,-5.8,7.97,0.377,-0.476,0.637,0.21,0.153,1.01,0,0,0,1,60,7100000000,-3.037742538,-5.849121432,6.689289333,0.401726275,-0.502450556,0.627975738,0.427341765,0.054627308,0.047998121,,,,,,,,,,1.017799489,-0.632965868,0.138279995,0.58556686,-0.680403465,-0.243532123,,,,,,
142,142,142,142,7.15,-4.92,-7.13,8.13,0.598,-0.404,0.372,-1.41,-1.5,0.904,0,0,0,1,60,7150000000,-4.288960122,-6.794683797,7.472244301,0.556218745,-0.426144337,0.432753546,-0.672689932,-0.775789103,0.599173483,,,,,,,,,,-0.032221033,-1.094514905,1.167862247,0.838914711,-0.30323052,-0.162692313,,,,,,
143,143,143,143,7.2,-3.32,-5.09,8.41,0.921,-0.428,0.507,-1.48,-1.93,0.562,0,0,0,1,60,7200000000,-3.644850588,-5.536262745,7.981868004,0.843348163,-0.427582611,0.489378294,-1.156033161,-1.392319909,0.575237646,,,,,,,,,,0.145356893,-1.263005877,1.825108508,1.360663821,-0.037616588,-0.094205646,,,,,,
144,144,144,144,7.25,-3.43,-5.69,7.79,0.921,-0.896,0.355,-0.307,-0.861,-0.155,0,0,0,1,60,7250000000,-3.502030201,-5.649753756,7.877597224,0.904470075,-0.790639649,0.386893472,-0.647709989,-1.108511199,0.10504124,,,,,,,,,,0.576775758,-1.218478921,1.537432792,1.365000427,-0.084929914,0.196391711,,,,,,
145,145,145,145,7.3,-1.11,-4.86,8.88,0.868,-0.954,0.189,1.76,-0.426,0.612,0,0,0,1,60,7300000000,-1.9119448,-5.066746705,8.422353558,0.875763447,-0.917255615,0.235968233,0.793805897,-0.74394247,0.431469469,,,,,,,,,,1.519357296,-0.725034342,1.951002642,1.525340113,-1.076189458,0.2852063,,,,,,
146,146,146,146,7.35,-4.3,-3.91,4.91,1.24,-0.586,-0.0824,-1.66,-0.00788,-3.69,0,0,0,1,60,7350000000,-3.499387983,-4.212820346,6.513563242,1.16246412,-0.660508814,-0.006838164,-0.675307976,-0.350768909,-2.222324356,,,,,,,,,,1.30273932,-0.469288731,-0.172741,1.082036292,1.082305449,0.743964727,,,,,,
147,147,147,147,7.4,0.247,-1.92,9.38,1.45,-0.727,-0.0842,2.72,1.46,0.511,0,0,0,1,60,7400000000,-1.009002677,-2.520228612,8.071329741,1.388791602,-0.712044243,-0.065838866,1.357491018,0.616467574,-0.462350349,,,,,,,,,,2.851055049,-0.02324875,1.4130511,0.737458491,-0.922476285,0.658029446,,,,,,
148,148,148,148,7.45,-2.41,-1.84,6,1.3,0.00428,0.0978,0.126,0.906,-3.06,0,0,0,1,60,7450000000,-1.940305944,-2.018074464,6.945664596,1.318901239,-0.156841664,0.058961788,0.620187158,0.771123608,-2.134964063,,,,,,,,,,2.695504748,0.341779682,0.131845417,0.522916856,0.419219234,0.382299342,,,,,,
149,149,149,149,7.5,0.754,-3.86,11.4,1.11,0.118,0.276,3.34,-1.47,2.29,0,0,0,1,60,7500000000,-0.149284834,-3.377809301,9.366375109,1.154469307,0.056180306,0.224487927,2.248561558,-0.42599022,0.714248367,,,,,,,,,,2.596012465,0.24280062,2.8282223,1.634810343,-1.857562781,-0.438219072,,,,,,
150,150,150,150,7.55,-2.17,-3.1,7.94,0.337,0.288,0.267,0.619,-0.895,-1.2,0,0,0,1,60,7550000000,-1.492541213,-3.172726561,8.5912109,0.511016615,0.235857158,0.256910134,1.272929581,-0.676515475,-0.518326711,,,,,,,,,,1.952712952,0.539389491,2.037021298,1.58993803,-0.587810331,-0.46584953,,,,,,
151,151,151,151,7.6,-0.63,-2.76,8.28,-0.165,0.373,0.23,2.34,-0.471,-0.784,0,0,0,1,60,7600000000,-0.919172948,-2.868046096,8.422083041,-0.021094766,0.342152677,0.236386881,1.911793418,-0.566737759,-0.689392413,,,,,,,,,,2.175637475,1.117813935,1.793271376,1.675830559,-0.839915697,-0.574797234,,,,,,
152,152,152,152,7.65,-1.97,-2.65,8.97,-0.4,0.144,0.209,1.13,-0.214,-0.00835,0,0,0,1,60,7650000000,-1.617702928,-2.707081522,8.719848922,-0.319341561,0.188570159,0.215500035,1.443727227,-0.37832011,-0.250872575,,,,,,,,,,1.858092943,1.008171646,2.224102994,1.257082994,-0.761533452,-0.442551406,,,,,,
153,153,153,153,7.7,-1.94,-2.04,6.65,-0.301,0.338,-0.0512,1.28,0.611,-2.23,0,0,0,1,60,7700000000,-1.831947699,-2.214632685,7.59498858,-0.30490441,0.304388985,0.012098856,1.345702365,0.150133013,-1.525222939,,,,,,,,,,2.070036555,1.443569137,0.910766813,0.944836569,-0.102285275,-0.170359179,,,,,,
154,154,154,154,7.75,-2.4,-3.58,7.17,-0.771,0.142,-0.159,0.834,-0.541,-1.57,0,0,0,1,60,7750000000,-2.209556572,-3.222565671,7.364028373,-0.671781163,0.178525898,-0.118391221,1.03934192,-0.219041129,-1.554054701,,,,,,,,,,1.481247903,1.445369656,0.706088771,1.167504693,-0.00814558,-0.006700478,,,,,,
155,155,155,155,7.8,-2.69,-3.19,6.73,-0.834,0.107,-0.503,0.591,0.351,-1.81,0,0,0,1,60,7800000000,-2.528928031,-3.198525284,7.019465359,-0.79946809,0.123088206,-0.411716581,0.770915915,0.085450832,-1.718856575,,,,,,,,,,1.292658633,1.641003005,0.370970449,0.850376313,0.150001901,0.367257747,,,,,,
156,156,156,156,7.85,-2.39,-3.51,2.18,-1.16,0.353,-0.348,0.994,0.548,-6.08,0,0,0,1,60,7850000000,-2.43657666,-3.428460222,4.389455615,-1.083252702,0.301286297,-0.36312255,0.904478213,0.332525098,-4.526975188,,,,,,,,,,1.574259625,2.331317214,-2.743689217,1.08158316,1.363625835,0.417833693,,,,,,
157,157,157,157,7.9,-7.27,-0.91,7.74,-1.38,0.37,-0.0598,-3.44,3.74,0.00617,0,0,0,1,60,7900000000,-5.649561137,-1.569298061,6.21031045,-1.316830704,0.354544341,-0.131790879,-1.696596873,2.152654638,-1.608105442,,,,,,,,,,0.542546212,1.393749712,-0.167066482,-1.895644099,1.562986625,0.412393157,,,,,,
158,158,158,158,7.95,-7.72,-9.2,8.49,-0.81,1.49,-0.566,-3.43,-4.08,1.31,0,0,0,1,60,7950000000,-7.025870807,-7.202387667,7.44920871,-0.91789024,1.234603786,-0.462944358,-2.734399707,-1.176566846,0.270848169,,,,,,,,,,-2.466488075,0.520000257,1.513541917,0.244738787,1.120917992,-0.354219575,,,,,,
159,159,159,159,8,-6.18,-11,7.36,-1.34,0.668,-0.0647,-1.81,-5.27,0.66,0,0,0,1,60,8000000000,-6.463583967,-10.00583763,7.400728266,-1.250144534,0.795445268,-0.159219717,-2.18095392,-3.363106369,0.521421124,,,,,,,,,,-3.25600885,-0.06470505,1.458731312,2.254444384,0.634645321,-0.691659186,,,,,,
160,160,160,160,8.05,-3.88,-4.11,4.78,-1.49,0.66,-0.542,0.473,2.22,-1.32,0,0,0,1,60,8050000000,-4.746164601,-5.653448818,5.976492342,-1.438941413,0.690465507,-0.451150539,-0.592009756,-0.380846149,-0.664260856,,,,,,,,,,-0.888190839,1.397831414,-0.316325492,0.389069197,0.345709224,-0.013650351,,,,,,
161,161,161,161,8.1,-4.01,-5.43,5.96,-1.4,0.138,-1.04,0.0423,1.51,0.335,0,0,0,1,60,8100000000,-4.256804464,-5.488495682,5.967529591,-1.408289531,0.262265178,-0.900241846,-0.212243256,0.629164197,-0.020841732,,,,,,,,,,-0.54119235,1.545445535,-0.325974351,-0.342614452,-0.393498946,0.714161819,,,,,,
162,162,162,162,8.15,-1.95,-7.82,6.84,-1.21,-0.047,-0.618,2,-0.532,1.6,0,0,0,1,60,8150000000,-2.7233723,-7.209644554,6.441674138,-1.252210387,0.022562522,-0.684987542,1.112245085,0.0089192,1.022810251,,,,,,,,,,-0.295220579,1.221497519,0.078964901,0.548490991,-1.787759662,0.385666107,,,,,,
163,163,163,163,8.2,-7.15,-10.7,5.47,-1.01,0.583,-0.0549,-3.07,-3.3,0.56,0,0,0,1,60,8200000000,-5.665942286,-9.786273095,5.913617246,-1.061559884,0.4569417,-0.204445614,-1.391699611,-1.758566005,0.724809023,,,,,,,,,,-2.501069463,-0.008990346,-0.186311772,1.157153713,-0.140517132,-0.295444077,,,,,,
164,164,164,164,8.25,-2.71,-8.5,5.33,-0.199,0.337,0.2,1.56,-1.09,0.541,0,0,0,1,60,8250000000,-3.701000271,-8.8367285,5.596450131,-0.382615142,0.363978304,0.104008473,0.375507334,-1.40144623,0.606455309,,,,,,,,,,-1.012960583,0.010187976,-0.744703995,1.469736667,-1.009866559,-0.580262863,,,,,,
165,165,165,165,8.3,-4.64,-11,7.04,-0.248,-0.0202,0.263,-0.347,-3.6,2.26,0,0,0,1,60,8300000000,-4.32519371,-10.43368545,6.380947982,-0.276655837,0.066212611,0.225264799,-0.057063787,-2.575820977,1.671164543,,,,,,,,,,-1.885658073,-0.832691622,0.26590208,2.159291887,-1.269992735,-0.685511542,,,,,,
166,166,166,166,8.35,-2.76,-6.78,2.6,0.0968,-0.149,0.112,1.58,0.522,-2.31,0,0,0,1,60,8350000000,-3.28474209,-7.736484455,4.326189928,0.017301581,-0.100592575,0.138882384,0.923059873,-0.921095515,-0.892287561,,,,,,,,,,-0.03428796,0.018428692,-2.310595874,1.468279709,-0.523482242,-0.166290905,,,,,,
167,167,167,167,8.4,-4.93,-7.41,6.29,0.279,-0.0208,0.145,-0.548,-0.171,1.33,0,0,0,1,60,8400000000,-4.378415709,-7.495469001,5.393423437,0.223291656,-0.038747616,0.143548036,0.042324169,-0.520426095,0.538632426,,,,,,,,,,-0.507670907,-0.492538822,-0.926002769,0.595082884,-0.677222746,-0.188601582,,,,,,
168,168,168,168,8.45,-4.66,-9.14,6.37,0.334,-0.0434,0.101,-0.247,-2.07,1.2,0,0,0,1,60,8450000000,-4.565596803,-8.709484791,5.924144378,0.310433249,-0.042353547,0.111098396,-0.130896601,-1.348143155,0.964483764,,,,,,,,,,-1.050553158,-0.799564343,-0.312322397,1.199440986,-0.810908658,-0.287185126,,,,,,
169,169,169,169,8.5,-1.83,-5.84,4.26,0.94,0.0886,0.268,2.72,0.89,-1.23,0,0,0,1,60,8500000000,-2.747127916,-6.59119153,5.019764439,0.80598265,0.05914483,0.23076082,1.575958799,-0.152621383,-0.44853348,,,,,,,,,,0.906392188,-0.089959713,-1.660682869,0.960374504,-0.984591777,-0.354524015,,,,,,
170,170,170,170,8.55,-8.42,-10.5,8.8,1.06,0.406,0.0294,-3.92,-3.95,3.07,0,0,0,1,60,8550000000,-6.518130161,-9.476728023,7.074135379,1.005926687,0.327982413,0.07719118,-1.714517252,-2.181021081,1.817032766,,,,,,,,,,-2.24517507,-1.669673147,1.18889513,1.197001943,-0.1809712,-0.515801153,,,,,,
171,171,171,171,8.6,-4.38,-5.5,5.61,0.689,-0.0214,0.0343,0.208,0.727,-0.41,0,0,0,1,60,8600000000,-5.096823109,-6.541052376,6.278450375,0.756464934,0.057186026,0.044479836,-0.563490264,-0.627678736,0.383057395,,,,,,,,,,-0.444715599,-0.718455581,0.043581844,0.506028986,-0.082322945,-0.102501886,,,,,,
172,172,172,172,8.65,-5.58,-7.94,8.38,1.07,-0.115,0.0251,-1.11,-2,1.98,0,0,0,1,60,8650000000,-5.41801153,-7.57377491,7.420538593,1.003257098,-0.076270475,0.02969963,-0.890690173,-1.360714939,1.411320845,,,,,,,,,,-0.973068107,-1.300803163,1.371760378,0.914651266,-0.410039458,-0.146148439,,,,,,
173,173,173,173,8.7,-3.95,-4.43,6.33,0.994,-0.505,0.173,0.388,1.12,-0.497,0,0,0,1,60,8700000000,-4.442161125,-5.252996648,6.827884828,0.995970594,-0.408566551,0.13898894,-0.12512778,-0.035621529,0.182562494,,,,,,,,,,0.570631269,-0.809863825,0.471087321,0.28221994,-0.199353639,0.164380772,,,,,,
174,174,174,174,8.75,-2.42,-4.24,6.12,1.06,-0.52,-0.00848,1.64,0.919,-1.17,0,0,0,1,60,8750000000,-3.097943657,-4.505188338,6.443184415,1.046369865,-0.494935438,0.026520427,0.931668818,0.474297089,-0.688345772,,,,,,,,,,1.599948926,-0.235228042,-0.203317708,0.405450641,-0.426857007,0.350127707,,,,,,
175,175,175,175,8.8,-4.09,-6.29,8.87,1.33,-1.14,-0.159,-0.482,-1.59,1.06,0,0,0,1,60,8800000000,-3.7574063,-5.822760973,7.762038451,1.269623023,-0.994906651,-0.114968391,0.085293604,-0.628363464,0.437405379,,,,,,,,,,0.729902996,-1.125596772,1.391244497,1.012800757,-0.575216512,0.679894921,,,,,,
176,176,176,176,8.85,-4.49,-3.61,7.38,1.49,-0.8,-0.0567,-1.23,0.53,-0.89,0,0,0,1,60,8850000000,-4.244392706,-4.18927013,7.554419533,1.443087845,-0.84384005,-0.070529478,-0.702183571,-0.009614519,-0.417304364,,,,,,,,,,1.054314183,-1.019148291,1.159897302,0.395042008,0.34192582,0.797809616,,,,,,
177,177,177,177,8.9,-2.72,-3.37,8.74,1.31,-0.782,-0.143,0.409,0.27,0.185,0,0,0,1,60,8900000000,-3.231063294,-3.5844735,8.198723685,1.338330676,-0.795909587,-0.125799778,-0.036908768,0.139743782,-0.029483564,,,,,,,,,,1.551830357,-0.675007755,1.79437195,0.482481279,-0.241547753,0.755508035,,,,,,
178,178,178,178,8.95,-2.6,-2.37,7.79,1.25,-0.159,0.178,0.457,0.714,-1,0,0,0,1,60,8950000000,-2.811568303,-2.687932275,7.976602581,1.268803158,-0.302259048,0.105895857,0.258798491,0.446487253,-0.654394293,,,,,,,,,,2.027757657,-0.214333294,1.448228778,0.372134145,-0.011471689,0.281586892,,,,,,
179,179,179,179,9,-2.94,-2.68,6.69,1.03,0.0342,0.433,0.154,-0.0393,-2.23,0,0,0,1,60,9000000000,-2.896942417,-2.682076609,7.27739782,1.080834565,-0.041479193,0.355364772,0.196054767,0.18700017,-1.66891902,,,,,,,,,,2.027165702,-0.012861381,0.611269137,0.674171861,0.586424531,-0.071494371,,,,,,
180,180,180,180,9.05,-2.84,-3,7.57,0.425,-0.102,0.538,0.312,-0.607,-1.4,0,0,0,1,60,9050000000,-2.859090285,-2.916772055,7.436412709,0.564609048,-0.08838715,0.494653161,0.265472141,-0.237121266,-1.495763379,,,,,,,,,,1.783350813,0.069097673,0.820359863,0.991143861,0.496355979,-0.252532499,,,,,,
181,181,181,181,9.1,-1.64,-3.15,8.56,0.122,-0.0354,0.435,1.61,-0.802,-0.383,0,0,0,1,60,9100000000,-2.048708502,-3.088944221,8.047026991,0.216219225,-0.047318314,0.449158143,1.070452103,-0.53885568,-0.779260539,,,,,,,,,,1.861873426,0.370146116,1.479218663,1.374386202,-0.290066074,-0.420300917,,,,,,
182,182,182,182,9.15,-1.69,-2.35,7.4,-0.147,0.311,0.291,1.77,0.0547,-1.46,0,0,0,1,60,9150000000,-1.810259563,-2.543445303,7.695399913,-0.069680673,0.230404028,0.32853742,1.489277205,-0.221803243,-1.217585333,,,,,,,,,,2.080883741,0.988771561,1.039880542,1.229429653,-0.257379248,-0.483292992,,,,,,
183,183,183,183,9.2,-2.9,-2.56,6.76,-0.324,0.496,0.184,0.799,0.00322,-1.95,0,0,0,1,60,9200000000,-2.534656989,-2.555666167,7.187056504,-0.26986245,0.436259917,0.218304657,1.076002546,-0.101605307,-1.689183542,,,,,,,,,,1.732367834,1.213899976,0.526390104,0.9808509,0.243037081,-0.453375882,,,,,,
184,184,184,184,9.25,-3.03,-2.74,6.42,-0.529,0.44,-0.0445,0.905,0.118,-2.09,0,0,0,1,60,9250000000,-2.863932785,-2.69174396,6.770199319,-0.473836771,0.439158747,0.017874322,0.97362189,0.015698596,-1.94726722,,,,,,,,,,1.515746061,1.434753629,0.094437297,0.841872371,0.410199544,-0.250221368,,,,,,
185,185,185,185,9.3,-3.34,-2.43,8.07,-0.681,0.64,-0.264,0.838,0.864,-0.166,0,0,0,1,60,9300000000,-3.180395092,-2.498520997,7.476576459,-0.636900674,0.594825088,-0.197099663,0.892423942,0.468825479,-0.800318071,,,,,,,,,,1.258438736,1.570151441,0.999992258,0.201434658,-0.096013603,-0.201802185,,,,,,
186,186,186,186,9.35,-3.64,-3.5,8.05,-0.897,0.813,-0.535,0.799,0.32,0.184,0,0,0,1,60,9350000000,-3.485914322,-3.237826653,7.788203862,-0.841632059,0.763926285,-0.454802414,0.83649027,0.389329174,-0.166520538,,,,,,,,,,0.737830365,1.729369655,1.419391869,0.110134717,-0.413004449,-0.166921636,,,,,,
187,187,187,187,9.4,-4.98,-5.39,6.16,-1.17,0.975,-0.58,-0.31,-1.02,-1.27,0,0,0,1,60,9400000000,-4.47909738,-4.826590696,6.903355606,-1.100099514,0.927523546,-0.550285466,0.150077058,-0.363475085,-0.877045488,,,,,,,,,,-0.265818362,1.707390644,0.51238386,0.568215287,0.275108007,-0.193616643,,,,,,
188,188,188,188,9.45,-4.26,-4.7,7,-1.19,0.891,-0.731,0.505,0.314,0.0559,0,0,0,1,60,9450000000,-4.333454075,-4.733139552,6.955877049,-1.170862718,0.899215162,-0.688109035,0.362572357,-0.001596431,-0.276326507,,,,,,,,,,-0.25471216,1.802595376,0.635816043,0.221835949,-0.179592613,-0.068032948,,,,,,
189,189,189,189,9.5,-5.39,-6.4,6.34,-1.29,0.903,-0.961,-0.681,-0.767,-0.163,0,0,0,1,60,9500000000,-5.035785529,-5.963639067,6.621178453,-1.264638938,0.90214868,-0.896231803,-0.262223044,-0.410442781,-0.203356132,,,,,,,,,,-1.08048954,1.651575343,0.382366844,0.356436921,0.026707477,0.117028695,,,,,,
190,190,190,190,9.55,-5.19,-8.41,6.26,-1.22,0.411,-0.922,-0.635,-2.2,0.187,0,0,0,1,60,9550000000,-5.138298562,-7.769576442,6.424895973,-1.229502418,0.521473296,-0.915884143,-0.485407686,-1.366348879,0.047992253,,,,,,,,,,-1.747707813,1.104587694,0.232098948,1.127919779,-0.117126502,0.28200667,,,,,,
191,191,191,191,9.6,-5.71,-7.65,6.55,-1.18,0.0696,-0.829,-1.36,-0.943,0.87,0,0,0,1,60,9600000000,-5.518333135,-7.681303529,6.49288392,-1.190537654,0.171239137,-0.849621167,-1.009033349,-1.140213753,0.577278975,,,,,,,,,,-1.903390712,0.649251451,0.428326009,0.736503635,-0.149737426,0.520446818,,,,,,
192,192,192,192,9.65,-6.27,-8.05,5.73,-1.01,0.15,-0.564,-1.47,-0.582,1.24,0,0,0,1,60,9650000000,-6.017998434,-7.953480506,6.078294297,-1.048431466,0.15477729,-0.631789624,-1.285017914,-0.842039493,1.004001768,,,,,,,,,,-2.099241052,0.245934222,0.08573065,0.277673904,-0.206349624,0.372186161,,,,,,
193,193,193,193,9.7,-3.21,-6.09,4.02,-0.897,-0.168,-0.324,0.968,1.22,-1.02,0,0,0,1,60,9700000000,-4.151401064,-6.577833527,4.959713259,-0.929235582,-0.09539822,-0.3970511,0.063882549,0.259415145,-0.299242938,,,,,,,,,,-0.420014785,0.736195003,-1.46726456,0.098226558,-0.423440776,0.458448199,,,,,,
194,194,194,194,9.75,-5.29,-8.95,5.95,-0.659,0.0464,0.0117,-1.09,-1.52,1.11,0,0,0,1,60,9750000000,-4.908276749,-8.328999497,5.497884962,-0.716525665,0.014505553,-0.085313398,-0.6269565,-0.691073448,0.608161623,,,,,,,,,,-1.350718808,-0.080795367,-0.737733467,0.541189752,-0.489580266,-0.019436812,,,,,,
195,195,195,195,9.8,-2.95,-9.69,5.57,-0.363,-0.452,-0.00359,-1.16,-1.5,1.09,0,0,0,1,60,9800000000,-3.606525955,-9.333708589,5.537076007,-0.43825584,-0.347069647,-0.022986314,-0.946094034,-1.123167932,0.91841499,,,,,,,,,,-1.341003076,-0.563327454,-0.697341766,1.131218048,-0.9013035,0.244797087,,,,,,
196,196,196,196,9.85,-3.84,-8.78,5.03,0.231,0.121,0.2,0.396,-1.47,0.043,0,0,0,1,60,9850000000,-3.761726143,-8.924953051,5.261505421,0.088533948,0.015717844,0.147076206,-0.142571233,-1.308431026,0.354739613,,,,,,,,,,-0.919762579,-0.515733055,-1.104848384,1.404096794,-0.732709547,-0.25415574,,,,,,
197,197,197,197,9.9,-3.47,-7.28,6.29,0.386,0.139,0.19,0.809,-0.0942,1.17,0,0,0,1,60,9900000000,-3.567803241,-7.710626104,5.820441275,0.322677711,0.111270341,0.179812422,0.427142347,-0.659839968,0.879681713,,,,,,,,,,-0.310816004,-0.41163113,-0.513819394,0.86980651,-1.137659328,-0.378423611,,,,,,
198,198,198,198,9.95,-5.44,-7.16,5.81,0.658,0.118,0.0068,-1.17,-0.16,0.435,0,0,0,1,60,9950000000,-4.812333031,-7.304146183,5.814766928,0.586619153,0.116486309,0.047862943,-0.529079965,-0.392846513,0.593353361,,,,,,,,,,-0.60890428,-0.646523248,-0.446046821,0.342631809,-0.389979659,-0.126890358,,,,,,
199,199,199,199,10,-4.05,-6.08,6.17,0.771,-0.169,-0.134,0.144,0.705,0.462,0,0,0,1,60,10000000000,-4.305577587,-6.400464478,6.007818553,0.731750439,-0.104786022,-0.090836468,-0.126101425,0.193576833,0.50877559,,,,,,,,,,0.041735992,-0.487300124,-0.32880398,0.0440603,-0.586913706,0.186879245,,,,,,
200,200,200,200,10.1,-4.87,-6.23,6.12,0.929,-0.389,0.096,-0.799,0.279,0.0174,0,0,0,1,60,10100000000,-4.680773377,-6.274625256,6.068783552,0.88701104,-0.325072204,0.051656045,-0.528971384,0.239206297,0.19238128,0.746524679,0.35659363,0.194619886,2.503525955,3.319333664,3.212512341,3.67969328,2.27782004,3.214574671,0.121432139,-0.814793678,-0.301220812,-0.032366748,-0.192262562,0.265416122,2.967076168,2.79203193,1.3217233,1.453679951,2.21740362,3.383038503
201,201,201,201,10.1,-3.66,-4.77,7.18,0.94,-0.454,0.1,0.335,1.39,0.669,0,0,0,1,60,10100000000,-4.002221444,-5.16389006,6.672674573,0.928720114,-0.425000475,0.088525998,-0.011704563,0.853911802,0.499273733,0.792930449,0.357221764,0.194033643,2.418787151,3.267135359,3.178354903,3.628611045,2.399558385,3.232609625,0.854424744,-0.649543985,0.27400044,-0.388700327,-0.604848868,0.301982294,3.085084586,2.781405141,1.266164615,1.559161081,2.336766369,3.334504888
202,202,202,202,10.2,-7.39,-6.35,7.7,0.947,-0.633,0.352,-3.44,-0.611,0.808,0,0,0,1,60,10200000000,-6.254223547,-6.039492758,7.230974967,0.943108739,-0.586215013,0.289466813,-2.06425344,0.071417634,0.698061066,0.7653891,0.331443872,0.199487441,2.468936143,3.344263652,3.081321998,3.497061025,2.333042989,3.221841728,-0.445288765,-1.623418318,1.10514038,-0.427795484,0.514691231,0.296538005,3.035775468,2.956361796,1.251851322,1.450020717,2.163886758,3.342095258
203,203,203,203,10.2,-2.97,-9.53,9.5,1,-0.395,0.51,0.815,-4.21,2.18,0,0,0,1,60,10200000000,-4.071058845,-8.6162333,8.464077714,0.987889424,-0.438009695,0.457658424,-0.340420585,-2.215535309,1.652274252,0.773993992,0.31950605,0.221485756,2.4226007,3.335087698,3.061542318,3.596079568,2.341220011,3.302029499,-0.59563266,-1.700579894,2.297125514,2.012456414,-0.973511326,-0.470655591,3.050932123,2.873742315,1.323653602,1.496760758,2.221501109,3.360299072
204,204,204,204,10.3,-1,-8.42,5.19,0.645,-0.899,0.58,2.42,-3.57,-2.62,0,0,0,1,60,10300000000,-2.029593874,-8.471371219,6.684778635,0.717991659,-0.795310181,0.550963314,1.312266104,-2.939033247,-1.098621915,0.751573312,0.305060419,0.234507604,2.411559289,3.328496568,3.132748467,3.616709045,2.402320913,3.431331166,0.573032571,-0.939416615,-0.076312003,3.645788031,-0.580217258,-0.346203282,2.979463039,2.971862461,1.348598459,1.621465686,2.202549484,3.4095566
205,205,205,205,10.3,-0.503,-2.89,3.58,0.991,-1.18,0.783,2.72,1.45,-4.6,0,0,0,1,60,10300000000,-1.014801246,-4.351125841,4.997485149,0.932884073,-1.093472295,0.727928173,2.155088052,-0.594596572,-3.353141869,0.710684995,0.284965129,0.246916862,2.415726718,3.58172284,3.090836577,3.64744144,2.320902959,3.429690319,2.899077085,-0.189225344,-2.220164351,2.280512022,0.169196946,0.114256757,2.971529351,3.20395284,1.373263817,1.486151935,2.130699793,3.31366443
206,206,206,206,10.4,-3.98,-1.97,9.1,1.28,-0.608,0.556,-0.605,1.7,0.654,0,0,0,1,60,10400000000,-2.985896471,-2.593345822,7.226999028,1.206108598,-0.71719649,0.596805602,0.502600487,0.63108027,-0.772963067,0.683911042,0.292610457,0.249264585,2.369233265,3.558441555,3.133976735,3.482878492,2.3292955,3.252866566,2.295456739,-0.680086723,0.63502902,0.225380624,0.00440328,0.107408399,2.92223138,3.138129324,1.332547761,1.439971971,2.107974728,3.16082981
207,207,207,207,10.4,0.192,-2.29,5.88,1.97,0.099,0.423,3.66,0.45,-2.88,0,0,0,1,60,10400000000,-0.873411932,-2.369411711,6.49497182,1.807388672,-0.084585769,0.464251203,2.392961751,0.534354812,-2.129673791,0.777885064,0.311502814,0.264026645,2.537269459,3.699753665,3.093972567,3.591705515,2.511335423,3.250874304,3.494863621,0.221828751,-0.530852761,1.137304025,-0.368716211,-0.266203761,3.060255321,3.208872606,1.41569051,1.657602924,2.23109737,3.289554622
208,208,208,208,10.5,-0.807,-3.76,3.75,1.45,-0.599,0.434,2.58,-1.63,-5.2,0,0,0,1,60,10500000000,-0.829265051,-3.395963219,5.003215562,1.526078201,-0.483293614,0.44117984,2.504943052,-0.621752341,-4.106641515,0.754981398,0.31128293,0.265450606,2.659626646,3.586439998,3.042410382,3.696370379,2.566734419,3.05751995,3.285562488,0.306599738,-2.304813132,2.452342393,0.516823092,0.004753469,2.99791078,3.08395534,1.410447726,1.643808701,2.193249902,3.209782617
209,209,209,209,10.5,-6.45,-2.65,7.08,0.785,-0.459,0.0697,-2.9,-0.808,-1.87,0,0,0,1,60,10500000000,-4.565609321,-2.84528292,6.131845024,0.942755072,-0.464464317,0.157867402,-0.73104113,-0.721238009,-2.666479119,0.69893402,0.292272388,0.273578114,2.729955156,3.604853691,3.170546388,3.651075436,2.488627094,3.148247654,1.13968096,-0.349830927,-0.44356286,1.115834628,1.774189253,0.443948999,2.99987012,3.016650785,1.462777834,1.580598653,2.201080086,3.209452574
210,210,210,210,10.6,-4.5,-1.75,9.69,0.702,0.0593,-0.538,-0.93,0.0801,0.739,0,0,0,1,60,10600000000,-4.521995982,-2.036729915,8.065525831,0.753250113,-0.058509467,-0.37284212,-0.850159456,-0.293197005,-0.473707958,0.655013694,0.28600644,0.269941073,3.046073015,3.438457344,3.250597474,3.768497108,2.599926561,3.042129923,0.786392425,0.056762036,1.910276829,0.372856121,0.759836212,0.57245878,2.989458641,2.858642635,1.4246302,1.499724242,2.215762084,3.113079038
211,211,211,211,10.6,-3.1,-1.98,5.89,-0.0767,0.00733,-0.699,0.428,0.11,-3.02,0,0,0,1,60,10600000000,-3.576733997,-1.994851121,6.883235198,0.099973422,-0.007479166,-0.621589361,-0.084914812,-0.077826152,-2.113252786,0.635985784,0.268332573,0.267910499,2.921542806,3.173444208,3.070031293,3.645343179,2.669983126,3.094225131,1.230998078,1.105690791,0.373429891,0.718481432,1.009255738,0.8079411,3.013752115,2.76116749,1.422955291,1.542005844,2.409425152,3.158201992
212,212,212,212,10.7,1.87,-0.385,5.96,-0.713,-0.0617,-0.522,5.21,2.23,-2.88,0,0,0,1,60,10700000000,0.043944482,-0.806436743,6.381502606,-0.539940444,-0.049504196,-0.545636651,3.085194518,1.154917359,-2.606957595,0.638942734,0.267838519,0.250757872,2.68941774,3.332224281,3.004773112,3.581813758,2.858257122,2.866475678,3.405137172,2.580596445,-0.645837929,0.852612253,-0.659357361,0.621492544,2.933470852,2.826900506,1.333596408,1.521931763,2.452173908,3.255654996
213,213,213,213,10.7,-1.94,-0.867,6.65,-1.18,-0.066,-0.449,1.52,2.3,-1.96,0,0,0,1,60,10700000000,-1.274868828,-0.851145365,6.527417696,-1.043748983,-0.062289625,-0.471935841,2.148099598,1.766572238,-2.190384827,0.647758436,0.272729143,0.248187638,2.197004566,3.415408693,3.208927035,3.675886569,3.004309234,3.037928002,2.846517171,2.482696731,-0.363414496,-0.093986611,-0.337104476,0.638511397,3.225120585,2.808084283,1.365752216,1.45391847,2.371076496,3.14122282
214,214,214,214,10.8,-7.93,-4.12,5.78,-1.19,0.931,-0.239,-3.99,-0.444,-2.41,0,0,0,1,60,10800000000,-5.698820793,-3.264258999,6.121233303,-1.158867249,0.707580952,-0.294285222,-1.526831422,0.585777677,-2.331794005,0.656391515,0.26330128,0.234471028,2.180364422,3.281675932,3.277316728,3.573241797,2.752084783,2.754019682,-0.09959152,1.485983488,-0.343626972,-0.452719841,1.88410025,0.143649438,3.20417006,2.508028204,1.280664458,1.321745061,2.383475303,3.234554794
215,215,215,215,10.8,-5.48,-8.04,6.41,-1.45,0.944,-0.0867,-1.18,-3.76,-1.3,0,0,0,1,60,10800000000,-5.553361208,-6.789777053,6.278163621,-1.388025927,0.890822647,-0.135968486,-1.319180549,-1.735553664,-1.667426922,0.632547407,0.275047477,0.244028135,2.258557447,3.222985011,2.997813328,3.648704603,2.931515024,3.145223338,-1.479672283,1.050927402,-0.090507307,1.453471597,1.367168054,-0.49572461,3.243857931,2.508382268,1.386288527,1.572869368,2.194308304,3.123547211
216,216,216,216,10.9,-4.69,-4.12,6.73,-1.6,0.696,-0.0922,-0.193,0.878,-0.404,0,0,0,1,60,10900000000,-4.979447898,-4.81891061,6.523714329,-1.554876602,0.73982113,-0.102588059,-0.644926939,-0.339503395,-0.853912591,0.698930682,0.258939322,0.227192587,2.280958875,3.123065776,3.154611531,3.828136377,2.864905685,2.822233271,-0.589024392,1.348231532,0.214472604,0.313693956,0.655111585,-0.368940733,3.460816867,2.655825006,1.260317407,1.500092331,2.369715118,3.171014905
217,217,217,217,10.9,-7.89,-8.49,8.23,-1.72,1.04,-0.77,-3.39,-2.74,1.69,0,0,0,1,60,10900000000,-6.914217041,-7.528959421,7.45099585,-1.684849818,0.972481218,-0.611595763,-2.288424955,-1.621747553,0.78410017,0.64156822,0.239870352,0.228438398,2.161585769,3.03034689,3.202839138,3.702271086,2.733591674,3.069510403,-2.843611952,0.790932638,1.621687458,0.584463695,0.653050726,-0.207372625,3.211070924,2.747953432,1.289490092,1.533106967,2.05405012,3.23868941
218,218,218,218,11,-1.98,-8.66,4.02,-1.74,-0.401,-0.595,2.23,-2.3,-2.14,0,0,0,1,60,11000000000,-3.634230653,-8.363909112,5.586419492,-1.728260059,-0.092065065,-0.598938877,0.416793461,-1.98404141,-1.098713522,0.58639419,0.220412518,0.232874382,2.223271768,3.124936985,3.132967376,3.797894229,2.730150098,3.128323653,-1.167813981,1.209696565,-0.926391982,2.264290575,-0.21669189,0.336787664,3.187172126,2.717099879,1.267662175,1.263373694,2.038288059,3.191171262
219,219,219,219,11,-2.26,-3.83,3.96,-1.44,-0.167,-0.122,1.87,2.95,-1.8,0,0,0,1,60,11000000000,-2.720720395,-5.01691462,4.702541057,-1.501362639,-0.150145002,-0.235197155,1.286840242,0.651515664,-1.550268383,0.534542604,0.219734121,0.234315354,2.247720055,3.20100142,3.274580915,3.719264641,2.68602675,2.909490929,0.79863883,1.634332722,-2.044564433,0.358877182,-0.412149006,0.350651914,3.051628156,2.738339385,1.205693856,1.25671656,1.956919553,3.130484263
220,220,220,220,11.1,-9.94,-9.09,5.35,-1.32,0.205,-0.0628,-5.63,-1.96,0.175,0,0,0,1,60,11100000000,-7.519685935,-8.023722714,5.054402879,-1.358607131,0.125117803,-0.103716913,-2.854329308,-0.743446,-0.439376614,0.516381492,0.20409115,0.236734643,2.505475974,3.152780624,3.40996757,3.76705363,2.58714786,2.952669822,-2.542219332,-0.133363729,-1.035470962,-0.081394585,1.377192311,0.171205692,2.96344483,2.718198142,1.198552131,1.110550287,1.798294278,3.203660386
221,221,221,221,11.1,-5.33,-12.2,7.05,-1.01,0.0709,0.00802,-1.06,-4.91,2.09,0,0,0,1,60,11100000000,-6.064107415,-11.10670825,6.138911199,-1.084208808,0.083095124,-0.018499752,-1.780049471,-2.969043527,1.189276411,0.494420971,0.212937885,0.248644768,2.525837745,3.279105765,3.207443004,3.601442488,2.787244644,2.905618593,-3.216933737,-0.731879265,0.182644769,1.997308402,-0.149661433,-0.349067303,2.885462164,2.690636896,1.223813218,1.209973823,1.828059497,3.145916381
222,222,222,222,11.2,-2.56,-8.02,5.14,-0.239,-0.775,0.12,1.74,-0.788,0.0995,0,0,0,1,60,11200000000,-3.734776387,-8.82805785,5.596052354,-0.418921572,-0.581990021,0.087128327,0.327433277,-1.804021956,0.487574775,0.54832048,0.206338151,0.256072506,2.44659144,3.306318253,3.162077377,3.807860827,2.770080306,2.794439825,-0.914515468,-0.520190668,-0.739648889,1.882469524,-0.939374695,0.035377387,2.975465012,3.092721002,1.251251584,1.144871563,1.758649259,2.990561242
223,223,223,223,11.2,-3.51,-7.03,4.33,0.49,0.0568,0.237,0.816,0.0488,-0.888,0,0,0,1,60,11200000000,-3.585357843,-7.500706823,4.908015551,0.296515745,-0.086882015,0.201429309,0.619942207,-0.814322528,-0.39815102,0.508607431,0.201690431,0.277489649,2.399781599,3.42558806,3.300144449,3.683619984,2.634796615,2.803852085,-0.049326039,-0.286744594,-1.626754508,1.218482665,-0.554903724,-0.220243364,2.778063112,2.936691418,1.319849155,1.021640094,1.632898711,3.011717446
224,224,224,224,11.3,-8.58,-11.9,9.51,0.301,-0.0232,-0.0647,-4.34,-4.84,4.17,0,0,0,1,60,11300000000,-6.905511368,-10.74832563,7.408966341,0.300045425,-0.037523893,-0.001536602,-2.349616321,-2.964669912,2.543258857,0.585342347,0.214357876,0.262754439,2.494005994,3.48814279,3.050809575,3.72209502,2.791302456,2.797728065,-3.222923981,-1.900391965,1.728351005,1.604997117,-0.334789402,-0.291233136,2.85278607,2.684266807,1.305857191,1.108416414,1.584684196,3.062380692
225,225,225,225,11.3,-1.63,-4.84,0.524,0.326,-0.0421,0.192,2.75,1.93,-5.05,0,0,0,1,60,11300000000,-3.398651938,-6.386718017,3.667328061,0.320474993,-0.041070705,0.146065829,0.703566164,-0.350143487,-2.346003054,0.495601836,0.227939636,0.270308587,2.511075845,3.295833247,2.92816678,3.905569913,2.761601499,2.858779369,0.603552444,0.239815827,-3.172881571,1.156142712,0.375265532,0.004507572,2.939622551,2.555995853,1.326242333,0.953032209,1.486797905,2.901985445
226,226,226,226,11.4,-4.36,-4.93,6.83,0.906,0.208,0.412,2.79,1.74,-5.25,0,0,0,1,60,11400000000,-4.037701453,-5.311348496,5.386083608,0.781357935,0.151976929,0.348882916,1.952731341,0.766323111,-4.215872312,0.47587646,0.223326787,0.271013825,2.469606278,3.226216549,2.975921773,3.88001473,2.686674257,3.026446677,2.3109989,0.751840844,-2.071890087,0.734711776,1.129025974,-0.482772304,2.895059746,2.553229336,1.37797209,0.954321647,1.430255425,2.958806797
227,227,227,227,11.4,-6.55,-7.13,7.84,0.384,-0.505,0.149,-2.16,-0.838,1.74,0,0,0,1,60,11400000000,-5.707734535,-6.653902283,6.719665736,0.468586516,-0.357227229,0.196440416,-0.509594992,-0.090638704,-0.380915608,0.456878944,0.239553244,0.260714608,2.418404642,3.558286811,3.345423647,3.795077997,2.738650437,3.111370641,-0.042011561,-0.732753844,0.240476144,0.185706696,0.34214328,-0.002050793,2.859486121,2.435111191,1.344868326,0.873148493,1.535848847,3.385153923
228,228,228,228,11.5,-4.68,-7.36,7.07,1.16,-0.445,0.541,-0.176,-1.53,0.594,0,0,0,1,60,11500000000,-5.024555049,-7.175153486,6.910055154,1.012817167,-0.425257406,0.459221888,-0.30986891,-0.859484853,0.246827714,0.469171322,0.234819888,0.248087197,2.098637972,3.380816171,2.921030796,3.962922479,2.894698909,2.97066163,-0.035122101,-1.348654512,0.520474971,0.880580823,-0.110828294,-0.270469442,2.878789152,2.298641807,1.293543846,1.04336317,1.555641559,3.009139686
229,229,229,229,11.5,-5.63,-6.97,7.23,0.985,-0.141,0.685,-1.03,-1.66,0.376,0,0,0,1,60,11500000000,-5.427020438,-7.023706189,7.083929345,0.990921517,-0.204937565,0.631413597,-0.741017335,-1.287086301,0.330001101,0.429968116,0.242962646,0.247114743,1.662946103,3.288857852,2.91601818,3.797218005,2.841125125,3.046005016,-0.353487218,-1.487100141,0.807328759,1.040701281,0.187610855,-0.565378442,2.819331996,2.540242188,1.335502247,1.084039624,1.476296753,2.938861078
230,230,230,230,11.6,-5.03,-3.1,7.67,1.16,-0.45,0.911,-0.484,1.63,0.378,0,0,0,1,60,11600000000,-5.163104007,-4.127171923,7.402429766,1.124007841,-0.39487849,0.844642692,-0.587138928,0.271098301,0.360907349,0.459318803,0.237573582,0.247231893,1.387380543,3.17011943,3.010789474,3.862184091,2.758973801,3.094322032,0.886843537,-1.375592233,1.112443674,-0.230600794,0.221049136,-0.429943591,3.081671571,2.56568134,1.409733413,0.963496849,1.438179591,2.902129723
231,231,231,231,11.6,-2.33,-3.47,6.67,1.07,-1.2,0.447,1.82,0.791,-1.12,0,0,0,1,60,11600000000,-3.279817807,-3.642038538,7.004390498,1.081496817,-1.018905346,0.541376915,0.854035096,0.54880789,-0.592641565,0.46395787,0.245064814,0.241178337,1.515915214,3.303766617,3.065914367,3.806333731,2.753773501,3.037169805,2.087525828,-0.835997723,0.365962562,0.309575603,-0.275096246,0.227582373,3.122228817,2.785699741,1.39473423,1.008989323,1.401819885,3.132258923
232,232,232,232,11.7,-2.92,-4.6,7.16,1.01,-1.39,0.228,0.634,-0.725,-1.12,0,0,0,1,60,11700000000,-3.040631477,-4.349218873,7.088956474,1.025219687,-1.306530263,0.302377193,0.722298265,-0.131606632,-0.932205054,0.391454566,0.247154758,0.235845764,1.820717528,3.025276182,3.116124222,3.824426891,2.697931528,2.971567295,1.850610844,-0.867643619,0.418503211,1.01216842,-0.158702039,0.602545874,3.044819903,2.700663034,1.383026647,0.946802922,1.24156602,3.049404031
233,233,233,233,11.7,-2.44,-4.38,7.44,1.04,-1.15,-0.0909,0.782,-0.91,-1.14,0,0,0,1,60,11700000000,-2.641365926,-4.371942011,7.279731278,1.03685365,-1.185208083,0.002440808,0.758042191,-0.547391589,-1.066003182,0.398408194,0.247270152,0.236347296,2.05511299,3.00888165,2.88801283,3.663889754,2.80855982,3.187605907,1.742895135,-0.58338428,0.628053979,1.453846721,-0.170126138,0.782875511,2.970999301,2.714576922,1.449787014,0.946788606,1.377335878,2.967053789
234,234,234,234,11.8,-1.41,-2.37,10.5,1.06,-0.288,0.164,1.78,0.681,1.72,0,0,0,1,60,11800000000,-1.822823984,-2.894080636,9.029787866,1.055072737,-0.489807567,0.125655382,1.36989677,0.108763442,0.727890494,0.39191855,0.228111139,0.231926199,2.325603231,2.893686023,2.885610588,3.817087833,2.520387899,3.262451464,2.235483659,-0.195363791,2.614925042,0.777771201,-1.260894014,0.118813801,2.705483049,2.570038922,1.484419962,0.816112563,1.491660347,3.125213666
235,235,235,235,11.8,-2.98,-2.89,5.55,0.789,0.0874,0.356,0.287,-0.235,-3.31,0,0,0,1,60,11800000000,-2.592048691,-2.891068331,7.138695578,0.845639507,-0.042430375,0.301329781,0.721557514,-0.074860505,-1.872087169,0.342828967,0.234229946,0.229318226,2.301249684,2.819617951,2.679908146,3.655275199,2.567703823,3.223292472,2.074988943,0.257731848,0.404673954,1.041330521,0.435747344,-0.11629006,2.709735848,2.617319646,1.480355557,0.873095141,1.546145378,3.049691017
236,236,236,236,11.9,-1.75,-2.12,7,0.566,0.036,0.309,1.62,0.341,-1.87,0,0,0,1,60,11900000000,-2.03230269,-2.321854936,7.063321399,0.625527504,0.01835878,0.307179531,1.259462467,0.147274651,-1.870743254,0.325148778,0.23244007,0.22464736,2.369989573,2.749245948,2.86834521,3.685235006,2.781793168,3.056406231,2.418967635,0.612684232,0.290840282,0.996122782,0.161787747,-0.182441366,2.951317473,2.735346625,1.470049589,0.990307161,1.416763427,3.184950353
237,237,237,237,11.9,-0.658,-1.45,6.88,0.171,0.335,0.134,2.94,0.964,-1.92,0,0,0,1,60,11900000000,-1.118744547,-1.678239595,6.963695359,0.267756337,0.263778404,0.175102607,2.265614227,0.583534917,-1.902459401,0.360822919,0.218072293,0.223706245,2.327179121,2.589948725,2.874113551,3.676205229,2.698386129,2.982694799,2.926640532,1.38228122,0.093360529,0.894188022,-0.357856222,-0.285244919,3.09500487,2.761485921,1.488864761,0.873258263,1.504632141,3.166787107
238,238,238,238,12,-3.49,-1.91,7.81,-0.141,0.613,0.0129,0.432,0.601,-0.818,0,0,0,1,60,12000000000,-2.695020095,-1.849328308,7.423619993,-0.053987084,0.534450127,0.051397331,1.167814225,0.592864034,-1.204181373,0.334764125,0.226205879,0.220045559,2.307206373,2.844047039,3.135553848,3.669043925,2.700608073,2.914378276,1.942538354,1.302495108,0.82957152,0.299872594,0.001720295,-0.333269435,3.087931515,2.705839791,1.477199905,0.92644983,1.520116966,3.531944798
239,239,239,239,12,-5.52,-3.2,7.83,-0.381,0.82,-0.192,-1.22,-0.411,-0.527,0,0,0,1,60,12000000000,-4.572905792,-2.846412874,7.644467362,-0.311388005,0.755771719,-0.134231834,-0.261789925,0.056642153,-0.768147646,0.375740528,0.233284083,0.220530661,2.266046856,2.867811167,2.981033281,3.850201804,2.83362658,3.053041803,0.53443443,1.03794946,1.326916175,0.121494149,0.62909658,-0.303835105,3.255906999,2.537286599,1.544639267,1.09250518,1.604497817,3.433502135
240,240,240,240,12.1,-3.62,-3.32,7.46,-0.928,0.845,-0.4,0.887,0.0359,-0.576,0,0,0,1,60,12100000000,-3.93946823,-3.196021393,7.544218506,-0.79674034,0.824930048,-0.33692232,0.426000123,0.045562569,-0.644424712,0.426392005,0.231410741,0.22302318,2.265308672,3.068156187,2.979608727,3.778227995,2.759900592,3.129982337,0.539699803,1.592463471,1.177138731,0.309487477,0.121900079,-0.270190951,3.274207018,2.434456639,1.635578175,0.935828392,1.626138916,3.324963266
241,241,241,241,12.1,-3.91,-2.23,6.15,-1.26,0.773,-0.591,0.809,1.78,-1.45,0,0,0,1,60,12100000000,-3.919879486,-2.482891049,6.786529839,-1.161384824,0.784680544,-0.530696963,0.655305327,0.972025957,-1.163130683,0.433118345,0.229427367,0.216843419,2.126751136,2.914764569,3.026625824,3.919441545,2.878994694,3.139852593,0.858727471,2.143659617,0.302694024,-0.36698238,0.210728468,0.035912961,3.13579549,2.164963523,1.612109303,0.989509573,1.719132203,3.448570703
242,242,242,242,12.2,-4.64,-4.73,7.08,-1.37,0.888,-0.788,0.194,-0.0439,-0.052,0,0,0,1,60,12200000000,-4.398574492,-4.141737981,6.946016298,-1.325591603,0.864760529,-0.726931428,0.379118014,0.429361111,-0.447679137,0.389829814,0.231517423,0.209847545,1.900189845,3.14493454,2.99678877,3.877331854,3.018645044,3.170728007,-0.041719643,2.003756799,0.594354943,-0.125442688,-0.082333247,0.037374856,3.087675588,2.134314118,1.573695755,0.967924852,1.605823455,3.57274711
243,243,243,243,12.2,-3.94,-8.55,6.89,-1.26,0.78,-0.845,0.862,-3.19,0.237,0,0,0,1,60,12200000000,-4.093740331,-7.395978135,6.915574141,-1.273962631,0.799065028,-0.816977508,0.668223448,-1.50394914,-0.006817628,0.403429776,0.229766698,0.211919781,1.599567814,3.287890911,2.626635389,3.78179979,2.941724934,3.219169015,-1.121516788,1.567620686,0.594379582,1.577376644,-0.609342302,-0.145763078,3.208448233,2.317545379,1.662564992,0.885219504,1.508824198,3.28422721
244,244,244,244,12.3,-4.04,-6.06,7.08,-1.42,0.503,-1.06,0.658,0.00655,0.977,0,0,0,1,60,12300000000,-4.058016795,-6.409740549,7.004931412,-1.38891265,0.569593448,-1.002320753,0.66210258,-0.697104137,0.626657671,0.388413692,0.242967902,0.211252672,1.267413544,3.127531016,2.672633948,3.849496201,2.969268704,3.195473916,-0.904366641,1.657249492,0.79922636,0.799387223,-0.95622778,0.25009414,3.082464186,2.497565301,1.691007545,0.940000418,1.512609339,3.398601898
245,245,245,245,12.3,-5.5,-7.09,7.45,-1.44,0.63,-1.03,-0.98,-0.402,1.88,0,0,0,1,60,12300000000,-5.016565084,-6.9119176,7.246804047,-1.429124961,0.616412847,-1.023430558,-0.321037832,-0.539471945,1.433678589,0.394107865,0.256200083,0.212531241,1.135599252,3.118751181,2.562695103,3.855396921,2.865167259,3.213336288,-1.62101847,1.288468477,1.258254827,0.237950171,-0.88371856,0.29895159,2.966652633,2.71500553,1.751787454,0.964504375,1.506825269,3.359094047
246,246,246,246,12.4,-6.56,-12.8,7.44,-1.32,-0.0855,-1.02,-2.36,-5.62,2.19,0,0,0,1,60,12400000000,-6.042552653,-11.25858163,7.351796512,-1.343229727,0.07238013,-1.020814198,-1.541781289,-3.253275927,1.920670238,0.423441203,0.273048944,0.213419572,1.252502314,3.244240145,2.613793837,3.758897226,2.996657046,3.265245701,-3.666304223,-0.052803669,1.561377715,2.199630756,-0.672617898,0.410229572,2.820308058,2.790409545,1.83513085,1.127229335,1.547493409,3.462405758
247,247,247,247,12.4,-3.53,-6.71,5.6,-0.527,-0.186,-0.614,0.579,0.563,0.464,0,0,0,1,60,12400000000,-4.372350763,-7.900755767,6.399781802,-0.700752741,-0.127882975,-0.710553709,-0.272051987,-1.214782095,0.982727474,0.422474499,0.281994397,0.214628868,1.642247795,3.312752885,2.620511299,3.641298231,2.915025928,3.369657283,-1.364828707,0.280840077,0.279811925,1.082193878,-0.862697235,0.539688549,2.7288911,2.768040002,1.907792646,0.969524909,1.594605575,3.349536095
248,248,248,248,12.5,-5.74,-4.61,3.91,-0.0241,0.358,-0.155,-1.58,2.69,-1.15,0,0,0,1,60,12500000000,-5.281485913,-5.471474429,5.046708729,-0.168140653,0.248711129,-0.286855678,-1.05513131,0.870988021,-0.390525173,0.419413396,0.296660086,0.21336874,2.091116984,3.177774124,2.735205322,3.68131151,3.000762529,3.341103106,-0.420811151,0.309750775,-1.268455342,-0.786018808,0.357004342,0.363105,2.608754924,2.808537213,1.91636069,1.123726932,1.659119136,3.226208478
249,249,249,249,12.5,-5.34,-8.47,6.24,-0.00764,0.0342,0.0331,-1.16,-1.19,1.17,0,0,0,1,60,12500000000,-5.320382846,-7.685027689,5.695203321,-0.04180615,0.082449646,-0.042838602,-1.117917042,-0.22990498,0.614289233,0.35577338,0.294134206,0.205545649,2.318439629,3.025114147,2.732366793,3.442649554,2.944031753,3.151097443,-1.118131102,-0.450568669,-0.512142621,0.031680607,-0.186044719,0.027981587,2.432879815,2.585893878,1.837568136,1.035472329,1.710133285,3.331947023
250,250,250,250,12.6,-6.6,-8.69,6.81,0.0174,-0.153,0.148,-2.41,-1.53,1.58,0,0,0,1,60,12600000000,-6.17099937,-8.426911844,6.301040082,0.004796649,-0.100040686,0.102706175,-1.891497851,-0.924360951,1.236105643,0.425625529,0.291073727,0.2079103,2.363256151,2.84717333,2.817582825,3.539938451,2.984088462,3.254618853,-1.807495619,-1.110765347,0.291144121,0.276601268,-0.020936032,-0.040948802,2.797301363,2.796841833,2.006639741,1.062242311,1.80924592,3.328474034
251,251,251,251,12.6,-6.7,-7.44,5.97,0.719,-0.381,0.561,-2.38,-0.667,0.35,0,0,0,1,60,12600000000,-6.522648726,-7.698359908,6.121136076,0.566965846,-0.317804281,0.452228074,-2.183968198,-0.786889571,0.665546602,0.314645606,0.291984045,0.202347951,2.308616616,2.700489665,2.840575825,3.511795965,2.968300804,3.199629712,-1.360340609,-1.670808529,0.037955428,0.161586757,0.543572769,-0.106471559,2.792837665,2.819155162,1.982843172,1.000912692,1.792158607,3.455174152
252,252,252,252,12.7,-4.94,-7.62,7.13,1.05,-0.286,0.412,-0.539,-1.17,1.19,0,0,0,1,60,12700000000,-5.47059405,-7.640513455,6.669403724,0.947175352,-0.293153696,0.421547772,-1.199112113,-0.991530999,1.003239586,0.295711469,0.285771038,0.192143894,2.349989848,2.894023061,2.874419048,3.532989352,2.86243836,3.15187749,-0.810259019,-1.617253203,0.525425301,0.627778843,-0.13436341,-0.233807702,2.931828217,2.563227573,1.942791961,1.022344171,1.772196597,3.315223162
253,253,253,253,12.7,-5.73,-5.71,3.81,0.667,-0.31,0.626,-1.41,0.439,-2.49,0,0,0,1,60,12700000000,-5.643032361,-6.215381741,5.115459362,0.72664158,-0.30621079,0.577475092,-1.325372416,-0.227401602,-1.246040097,0.299234717,0.276408502,0.190971494,2.304650569,2.927549261,3.123166939,3.550607185,2.862378537,3.336621191,-0.105128537,-1.105173416,-1.370405499,0.250943963,1.101239312,-0.101380754,3.252010104,2.355739921,2.024938653,0.83454822,1.92064993,3.332740553
254,254,254,254,12.8,-1.03,-6.69,4.61,0.383,-1.32,0.475,3.06,-0.815,-2.08,0,0,0,1,60,12800000000,-2.57655122,-6.565751549,4.840767301,0.456151777,-1.091970058,0.499321537,1.300186299,-0.541271909,-1.783022701,0.330869889,0.285134685,0.185842166,2.089220388,3.006297269,3.192612988,3.799495671,3.12586506,3.250720131,1.347360647,-0.545730357,-2.073256389,1.607329181,-0.271456745,0.226023286,3.427310225,2.23011267,2.044366831,1.028786035,1.946842974,3.362277778
255,255,255,255,12.8,-2.47,-5.8,11.5,0.773,-1.43,0.752,1.47,-0.422,4.29,0,0,0,1,60,12800000000,-2.505722058,-6.000463302,8.459730519,0.705551779,-1.353967426,0.692029019,1.401855184,-0.477561876,2.127366528,0.329250427,0.270301404,0.174845963,1.876500592,2.822052687,2.879797248,3.808194016,2.969170181,3.452870989,1.298733866,-1.473909993,2.146301122,1.017641548,-2.098856737,-0.07420467,3.22669034,2.105139361,2.068560245,1.128491181,2.026134427,3.345409939
256,256,256,256,12.9,-7.45,-7.49,5.88,1.64,-1.46,0.251,-3.71,-2.93,-1.95,0,0,0,1,60,12900000000,-5.792396245,-7.100059732,7.057774788,1.441081808,-1.436150293,0.355674262,-1.658654832,-1.787551035,-0.498029626,0.352586429,0.249476334,0.165756511,1.743215704,2.949660086,2.572976317,3.810380405,3.037233431,3.459770628,-0.326483408,-2.335349634,0.741184033,1.549737147,0.94217864,0.637565815,3.271186902,1.977274822,2.075620929,1.082953863,2.23633328,3.472581735
257,257,257,257,12.9,-3.59,-3.28,6.79,1.79,-0.998,0.621,-0.00445,0.567,-1.49,0,0,0,1,60,12900000000,-4.328368629,-4.280038764,6.91225243,1.715724938,-1.096552463,0.558027316,-0.668268712,-0.529849085,-1.136754445,0.359972727,0.228342942,0.153054251,1.480045309,2.815316446,2.389602073,3.645135985,2.907133506,3.446783854,1.306110015,-1.656884125,0.396734612,0.920834422,0.809073449,0.398673823,3.2969369,2.049331759,2.001239177,1.03377752,2.124951561,3.343530456
258,258,258,258,13,-3.22,-1.3,6.96,1.28,-1.01,0.761,0.119,1.96,-1.67,0,0,0,1,60,13000000000,-3.591588324,-2.080132882,6.938200891,1.372753765,-1.029468099,0.712826241,-0.196924419,0.800123419,-1.48010859,0.312207854,0.253362016,0.152487433,1.4170049,2.708761628,2.324831294,3.639642803,3.062570611,3.361655654,2.394643898,-1.024265312,0.300789971,0.015330256,0.753766445,0.362760514,3.097501355,2.252384451,2.008232301,1.158832633,2.206385159,3.518264634
259,259,259,259,13,-5.38,-3.35,5.79,1.33,-0.607,0.638,-2.14,-0.752,-3.09,0,0,0,1,60,13000000000,-4.780422601,-3.017566288,6.314210543,1.339101128,-0.702025067,0.655759344,-1.360259909,-0.028955507,-2.516709644,0.367488639,0.230958133,0.156722422,1.400923499,2.786488588,2.330207044,3.733485287,2.948695509,3.398841871,1.449873833,-1.094326153,-0.319885404,0.471440102,1.91614131,0.286776761,2.99526464,2.35851935,2.1705933,1.118188326,2.309650346,3.451268058
260,260,260,260,13.1,-1.4,-3.82,7.73,1.24,-0.418,0.357,1.7,-1.72,-1.34,0,0,0,1,60,13100000000,-2.533310213,-3.609933907,7.083622016,1.261095897,-0.481885313,0.427907839,0.471943047,-0.932240246,-1.759032151,0.352526825,0.259386194,0.155922018,1.481761953,2.786229236,2.333659,3.679687115,2.794853413,3.425311037,1.860556006,-0.488115163,0.407708285,1.757761874,0.469486027,0.028895147,2.769377436,2.627203236,2.197756841,1.07018341,2.216914561,3.159522826
261,261,261,261,13.1,-2.68,-1.19,6.36,0.675,-0.302,0.521,0.485,0.666,-2.73,0,0,0,1,60,13100000000,-2.630821271,-1.823505258,6.690369355,0.799763615,-0.342461304,0.498905434,0.479760361,-0.078527636,-2.384233555,0.332338262,0.290303052,0.16303554,1.626766868,2.903393228,2.46285677,3.557598855,2.898109902,3.443771431,2.340495562,0.091077357,-0.04136755,1.04542591,0.888206672,0.019233785,2.696345716,2.952313798,2.335134412,1.050412404,2.355149168,3.414129598
262,262,262,262,13.2,-1.36,-1.58,5.53,0.000305,0.39,0.349,2,0.333,-3.48,0,0,0,1,60,13200000000,-1.786051695,-1.643746339,6.059766184,0.170487627,0.225248642,0.384578712,1.389940411,0.141293092,-3.089792157,0.350564817,0.29970068,0.165319172,1.897172778,2.991920311,2.578522043,3.500865057,2.760034704,3.429631015,2.603860583,1.199243358,-0.86454473,1.174219649,0.725605587,-0.294131926,2.482216131,3.104223109,2.386572817,0.993314645,2.428339526,3.526831128
263,263,263,263,13.2,-2.93,-1.82,5.85,-0.673,0.318,0.478,0.686,0.349,-3,0,0,0,1,60,13200000000,-2.546483405,-1.773859269,5.945768599,-0.493444797,0.297137577,0.455827286,0.968485456,0.252241375,-3.031975431,0.343452884,0.31955885,0.164209173,2.154480027,2.929809756,2.782829413,3.336693513,2.842857717,3.136580531,2.122954479,1.377740229,-0.909243747,0.840323676,0.972156556,-0.404031217,2.418775548,3.025125324,2.301452041,0.87154034,2.59629731,3.605224201
264,264,264,264,13.3,1.73,-3.08,12.9,-0.972,0.602,0.134,5.64,-0.389,4.3,0,0,0,1,60,13300000000,0.296279156,-2.738070372,9.725048796,-0.870128836,0.533427782,0.210382815,3.765359785,-0.090282751,1.689047375,0.367309499,0.350356692,0.167368159,2.525380395,2.871853661,3.02006969,3.401490252,3.013479366,3.294616221,2.453919463,1.79530989,3.283321113,1.323511653,-2.936489599,-1.054146374,2.554175609,3.136408301,2.542759386,1.074832359,2.559340535,3.544982468
265,265,265,265,13.3,-3.84,-4.9,10.3,-1.39,1.62,-0.000535,0.734,-1.63,2.28,0,0,0,1,60,13300000000,-2.453283538,-4.334036805,10.03750641,-1.279333797,1.375599056,0.049524447,1.950459617,-0.912734834,2.069558826,0.375936999,0.349306966,0.160248349,2.650988251,2.959584125,3.084082221,3.333390687,3.11805945,3.327926562,0.411303157,1.727505201,3.92404035,1.133246083,-1.947578347,-1.505102337,2.632554302,2.667952369,2.557432571,1.190683072,2.708865221,3.474674994
266,266,266,266,13.4,-4.46,-4.5,7.33,-2.04,1.7,-0.227,0.523,-0.462,-0.088,0,0,0,1,60,13400000000,-3.78723435,-4.456553132,8.566110705,-1.878075175,1.627033053,-0.161369408,1.095827735,-0.671971282,0.680317379,0.386160259,0.34630389,0.157875018,2.563843811,2.946089064,3.080119387,3.462201756,3.009103083,3.548366366,-0.257738821,2.252809155,2.366951237,0.729580683,-0.779660687,-1.307357801,2.971019946,2.627120671,2.686043325,1.03650917,2.652076233,3.409411132
267,267,267,267,13.4,-2.7,-5.15,5.75,-1.76,0.637,-0.52,2.5,-0.32,-1.02,0,0,0,1,60,13400000000,-3.064502923,-4.968465275,7.035693986,-1.785134931,0.859686567,-0.434882239,1.936517288,-0.483963048,-0.414508552,0.338589148,0.342735793,0.154274488,2.399015443,2.883195229,3.337748995,3.479709636,3.097024184,3.456159802,0.265300944,2.306686836,0.53211151,1.0684302,-0.875800941,-0.533047757,2.96396709,2.296101672,2.651945915,1.186059071,2.655457123,3.331809462
268,268,268,268,13.5,-4.72,-7.29,5.24,-1.85,1.24,-1.04,0.513,-1.65,-0.848,0,0,0,1,60,13500000000,-4.164982931,-6.682254301,6.0598231,-1.83619204,1.154456716,-0.896380712,1.084245717,-1.10681085,-0.693631543,0.338661682,0.317463394,0.153321036,2.168741617,2.924014785,3.185792384,3.458810412,3.017368333,3.505673529,-1.023252678,2.362828998,-0.355046509,1.300505023,-0.385172531,-0.28253676,3.058119384,2.056594376,2.727304512,1.091330105,2.751584407,3.366669601
269,269,269,269,13.5,-9.23,-10.2,12.4,-1.41,0.863,-1.16,-4.1,-3.89,6.92,0,0,0,1,60,13500000000,-7.531917434,-9.279102705,9.505395083,-1.500724471,0.928556873,-1.097432307,-2.01960503,-2.593473293,4.208748166,0.339423641,0.29520349,0.145849217,1.907508077,2.862388163,2.799864428,3.637105591,2.899923517,3.621269142,-4.129611518,0.174119265,4.262748924,0.809326692,-1.076080967,-0.176461718,3.193209322,2.055367345,2.892849973,1.135175635,2.707538549,3.349227301
270,270,270,270,13.6,-4.81,-7.51,8.45,-0.731,0.799,-1.45,0.228,-0.704,3.5,0,0,0,1,60,13600000000,-5.722541746,-7.973126781,8.931840013,-0.894853055,0.828141039,-1.366321265,-0.673945302,-1.584196262,3.752388731,0.316083641,0.265076419,0.132944947,1.673215766,2.665305282,2.437522299,3.680678799,2.971719044,3.466324604,-2.715168996,0.653845672,3.434452768,0.571216212,-1.719049022,0.223083861,3.22216731,2.111520423,2.861927204,1.107336407,2.635085438,3.356147965
271,271,271,271,13.6,-5.31,-4.53,4.24,-0.94,1.04,-0.903,-0.524,2.72,-0.303,0,0,0,1,60,13600000000,-5.448307457,-5.431363108,6.382057174,-0.930389462,0.992346874,-1.012965134,-0.584171803,0.71492406,1.141144001,0.355328572,0.23364692,0.128460525,1.553466799,2.579345491,2.273326353,3.829623323,2.849574385,3.435217314,-1.191596446,1.397607083,0.381904602,-0.950253789,-0.525364611,0.284582607,3.303122102,2.258085224,2.908225498,1.183839585,2.687334517,3.251672276
272,272,272,272,13.7,-4.53,-9.42,5.06,-0.85,-0.152,-0.688,0.0411,-1.89,0.737,0,0,0,1,60,13700000000,-4.837869112,-8.375830103,5.663584535,-0.867112712,0.105396112,-0.76512757,-0.209816402,-0.676516619,0.880917672,0.339770533,0.229797159,0.126056288,1.601879819,2.677272441,2.230525791,3.767398681,2.890511277,3.374100072,-1.567814003,0.514996188,-0.514336299,0.553950374,-0.860848826,0.451285221,3.24232182,2.381553623,2.879557694,1.044007319,2.608029839,3.303333843
273,273,273,273,13.7,-6.7,-10.2,8.33,-0.438,-0.186,-0.163,-2.16,-2.63,4.02,0,0,0,1,60,13700000000,-6.075707519,-9.722457419,7.112649262,-0.529346222,-0.120456743,-0.305909566,-1.377407509,-1.719985202,2.902157231,0.353790416,0.255855625,0.123021499,1.681596593,2.794977324,2.278795098,3.796748425,2.911662275,3.469780939,-2.675867988,-0.939854021,1.380729341,0.757109207,-1.133396858,0.03808301,3.02895002,2.552836625,2.889142289,1.18549039,2.612054469,3.490194593
274,274,274,274,13.8,-4.07,-8.95,5.96,0.533,0.0195,0.167,0.573,-1.65,1.36,0,0,0,1,60,13800000000,-4.742427534,-9.152218524,6.486241486,0.306855867,-0.011980246,0.054759164,-0.209682388,-1.682602043,1.909169833,0.351386259,0.285374,0.128366684,1.802579199,2.881000554,2.328084949,3.668299813,2.847597294,3.653980642,-1.465634496,-0.999687217,0.433091148,1.28241555,-1.213595697,-0.355993695,2.745392006,2.619731354,2.998659033,1.256857166,2.676694622,3.453521363
275,275,275,275,13.8,-2.38,-5.07,3.32,0.953,0.327,0.533,2.52,1.88,-1.56,0,0,0,1,60,13800000000,-3.172020366,-6.138668456,4.765545989,0.815453793,0.250753711,0.419493832,1.424601031,0.220389873,-0.324611412,0.386797899,0.299930465,0.131631564,1.908634138,2.925673289,2.514226791,3.626666507,2.77320851,3.666520021,0.90390089,-0.140570918,-1.868093066,0.480336365,-0.86720921,-0.601767741,2.679153957,2.740468018,2.972217,1.201678925,2.784901094,3.408208256
276,276,276,276,13.9,-9.58,-7.64,6.43,0.813,-0.0122,0.59,-4.55,-0.978,1.29,0,0,0,1,60,13900000000,-7.431680131,-7.246972075,5.67009423,0.813522363,0.046945757,0.549531874,-2.152442153,-0.419739501,0.715028859,0.357333562,0.3341956,0.133700987,2.089133054,2.709975078,2.714005244,3.513550813,2.909116554,3.59069504,-1.439216486,-1.701410815,-0.366934617,-0.387873816,0.749868309,-0.431536054,2.644166975,2.880651517,2.959004428,1.212318535,2.819861167,3.341822709
277,277,277,277,13.9,-5.53,-2.15,7.03,0.892,-0.789,0.601,-0.228,3.97,1.49,0,0,0,1,60,13900000000,-6.167551653,-3.48431684,6.40913579,0.875294297,-0.600972041,0.588784512,-1.000262714,1.925074415,1.214028946,0.307636352,0.360822148,0.131551599,2.301366689,2.63573714,2.919976222,3.205760444,3.003896895,3.543286712,0.668836546,-1.348395344,0.288638031,-2.021531099,-0.044886879,0.111810946,2.677064619,2.858909193,2.949284585,1.283752279,2.849671526,3.313688782
278,278,278,278,14,-10.2,-9.64,10.7,1.48,0.377,0.936,-4.82,-4.06,4.69,0,0,0,1,60,14000000000,-8.84809347,-8.02852757,8.741007908,1.351274897,0.157026319,0.853591518,-3.287171134,-1.271900154,3.452189537,0.328322037,0.382389237,0.12407548,2.38462605,2.598897623,2.963067144,3.230575628,2.882466854,3.450181135,-2.416541415,-3.000321066,3.252708698,-0.462458055,0.245020503,-1.011469811,2.722352499,2.862794327,2.985539311,1.33051697,2.939232375,3.40340372
279,279,279,279,14,-4.75,-4.64,7.38,1.42,-0.664,0.762,0.422,0.335,0.7,0,0,0,1,60,14000000000,-6.123914388,-5.527069537,8.001367567,1.405370293,-0.479327846,0.783738442,-1.066459692,-0.413561787,1.680068311,0.324185197,0.411351326,0.123050888,2.263748735,2.672585775,2.825394395,3.199594582,3.059551157,3.481949315,-0.053501545,-2.106145694,1.986688904,-0.077884531,-0.119281709,-0.470799148,2.919117166,2.770111263,3.102208143,1.360320218,3.003203077,3.354576118
280,280,280,280,14.1,-3.25,-7.1,7.38,1.05,-1.23,0.486,1.58,-2.63,0.111,0,0,0,1,60,14100000000,-4.213499822,-6.688228497,7.663685126,1.125648469,-1.06115253,0.556665543,0.517997647,-1.597489762,0.669752994,0.352655099,0.405093657,0.121126671,2.233182732,2.839732487,3.015833642,3.506214924,2.89560469,3.536091507,0.455889104,-1.695859516,1.314267824,1.716877771,-0.641157505,-0.118926215,3.196734724,2.597773475,3.219767767,1.209398372,3.008232514,3.318155958
281,281,281,281,14.1,-6.72,-5.86,8.46,1.47,-1.14,0.28,-2.44,-1.91,0.567,0,0,0,1,60,14100000000,-5.879678212,-6.07681886,8.096442848,1.396697106,-1.122264954,0.34566408,-1.252980052,-1.764419547,0.603590832,0.317137025,0.399377392,0.108283279,2.328039539,2.754808885,3.054644072,3.577810651,2.931424566,3.415928687,-0.271926103,-2.166562063,1.99899143,1.320743495,0.435253346,0.308652833,3.227588395,2.318772909,3.194111526,1.349947086,2.966055125,3.523528672
282,282,282,282,14.2,-0.939,-0.615,1.84,1.27,-1.62,0.0544,2.78,2.77,-6.58,0,0,0,1,60,14200000000,-2.5953968,-2.044828617,4.696375987,1.296970295,-1.508045257,0.123528911,1.161598456,0.657676328,-4.021887694,0.255190737,0.35433873,0.110505634,2.184465066,2.778608421,2.879944868,3.683859168,2.751476082,3.471380611,3.128145208,-0.155912776,-2.44184526,0.921572016,1.200855978,1.235667582,3.110612381,2.248081724,3.278796264,0.960873544,3.109314781,3.322108261
283,283,283,283,14.2,-2.05,-3.53,9.68,1.13,-1.26,0.00496,1.63,-0.667,1.05,0,0,0,1,60,14200000000,-2.232848046,-3.141202659,7.404729023,1.165543354,-1.315792415,0.033101265,1.442034333,-0.049909955,-0.756124346,0.285025753,0.33063648,0.10050449,1.973268804,2.823735646,2.832808193,3.777656105,2.941767524,3.344390998,2.390273593,-0.49913869,0.761387973,1.127450823,-0.564647406,0.820639117,3.046564081,2.304874933,3.272839048,1.312444106,2.988131955,3.304673886
284,284,284,284,14.3,-7.63,-1.74,8.95,1.9,0.961,-0.459,-3.48,0.465,0.343,0,0,0,1,60,14300000000,-5.82056728,-2.106815477,8.244507176,1.743654476,0.448884751,-0.342204183,-1.504828358,0.225133252,-0.048403624,0.308314757,0.276915533,0.088348612,1.748168714,2.750138777,2.68595582,3.8679033,2.782434185,3.294561567,0.556324626,-0.464385287,2.189181556,-0.451111135,1.059512745,0.282542663,3.186220643,2.32354628,3.289377964,1.410295585,3.145130852,3.248144719
285,285,285,285,14.3,-5.6,-1.22,5.77,1.1,0.968,-0.0787,-1.37,0.706,-2.86,0,0,0,1,60,14300000000,-5.673946654,-1.452156043,6.899735049,1.237016254,0.851236235,-0.141240347,-1.424105507,0.481991994,-1.858776544,0.294903747,0.230024638,0.086684636,1.710944064,2.564875479,2.583153961,3.694517597,2.744059456,3.466259628,0.866276477,0.286827824,0.564466602,-0.427370581,1.939155474,-0.016018246,3.19207414,2.389151594,3.337417052,1.426023687,3.231566981,3.342074571
286,286,286,286,14.4,-0.00239,-3.33,5.38,0.0473,-0.39,-0.0775,4.08,-1.21,-3.28,0,0,0,1,60,14400000000,-1.903818883,-2.838406377,6.073834367,0.300557684,-0.110810712,-0.092628199,1.871247954,-0.421798866,-2.773895273,0.312654363,0.239572531,0.084203847,1.788158921,2.788161364,2.505601119,3.985420455,2.838687243,3.586534032,2.227693124,1.12114569,-0.830917775,1.700855693,0.298643952,0.175775181,3.171924472,2.719004937,3.264201524,1.369750954,3.327806085,3.352228459
287,287,287,287,14.4,-2.75,0.0982,7.5,-0.635,-0.218,-0.278,1.41,2.59,-1.02,0,0,0,1,60,14400000000,-2.466311885,-0.670562919,6.848884767,-0.435845638,-0.193890081,-0.234003668,1.595094968,1.186977155,-1.644570777,0.327613817,0.238507827,0.088050818,1.846930386,2.94421644,2.445286082,3.629723338,2.844299812,3.670403745,2.46813288,1.57989861,0.182184277,-0.015357035,-0.019273143,0.468548789,2.790548059,2.787789933,3.284915122,1.409185767,3.318370066,3.486432261
288,288,288,288,14.5,-1.53,0.199,12.7,-0.457,0.985,-0.599,3.07,3.22,4.54,0,0,0,1,60,14500000000,-1.843905064,-0.028639541,10.02867605,-0.452496812,0.719834154,-0.512371385,2.478132774,2.272932322,2.337643706,0.318164515,0.246772596,0.07957832,1.945028476,2.92768318,2.460283879,3.665470649,2.977563586,3.60752313,2.477597552,2.025553713,3.872276654,-1.351260591,-2.383495266,-0.178955809,2.326691072,2.663551164,3.220742979,1.577737505,3.424365907,3.598992877
289,289,289,289,14.5,-5.54,-4.84,4.88,-1.61,1.03,-0.623,-0.551,-1.21,-2.74,0,0,0,1,60,14500000000,-4.300858396,-3.580452513,7.230625635,-1.363599598,0.960234871,-0.596743313,0.66456592,0.412496592,-0.931825946,0.332300272,0.283607731,0.084152886,2.075385943,2.816740033,2.890694273,3.591377486,3.069597734,3.709742519,0.331710042,2.192362008,0.777036779,0.013774488,0.135325401,-0.172632166,2.557837854,2.796437951,3.274438027,1.363372978,3.38213408,3.495135781
290,290,290,290,14.6,-4.38,-5.6,6.69,-1.75,0.685,-0.619,0.695,-1.22,-0.472,0,0,0,1,60,14600000000,-4.353467302,-5.071310339,6.936822404,-1.667746042,0.74690814,-0.613717589,0.682787051,-0.459514325,-0.635746298,0.32527002,0.30152658,0.084681958,2.136797989,2.578305893,2.921267336,3.383250601,2.928499215,3.630637816,-0.345042464,1.979134265,0.5457763,0.699577871,-0.099341515,-0.150159337,2.518072023,2.713489019,3.227890725,1.378766389,3.556234402,3.310228841
291,291,291,291,14.6,-4.48,-4.44,8.9,-1.67,0.853,-0.672,0.636,0.738,2.33,0,0,0,1,60,14600000000,-4.437579044,-4.605268354,8.003712007,-1.669520161,0.829136917,-0.658167187,0.654775243,0.180147363,1.273883013,0.296349392,0.353946586,0.085661338,1.995798544,2.600519822,2.778857863,3.108439652,3.199324826,3.663411621,-0.451971258,1.821727719,1.915408592,-0.170673717,-1.018261954,-0.214259624,2.556621582,2.856537633,3.155705256,1.42012476,3.476269981,3.365272107
292,292,292,292,14.7,-6.68,-12.4,6.01,-1.87,0.957,-1.05,-1.71,-6.36,0.07,0,0,0,1,60,14700000000,-5.928212637,-10.35944682,6.920228381,-1.827323391,0.928239975,-0.957001969,-0.761035283,-3.313323892,0.498708701,0.311307538,0.395956428,0.081873837,1.868746586,2.708783095,2.681099811,3.248119884,3.170655429,3.507922501,-3.321952616,1.090396133,0.895384727,2.478126114,-0.106661156,-0.266548019,2.658019867,3.005089882,3.016084518,1.33882643,3.45333413,3.468826782
293,293,293,293,14.7,3.15,-5.81,2.41,-2.07,0.235,-0.964,7.78,0.906,-3.03,0,0,0,1,60,14700000000,0.106466027,-7.00098219,4.469142642,-2.01834081,0.390929356,-0.96233907,4.352553333,-1.05953882,-1.773409345,0.369685833,0.423527717,0.085514897,1.847772096,3.15123768,2.899990166,3.422149647,3.226206688,3.398225095,0.929995415,3.208363328,-2.554948702,2.721980318,-2.046885407,0.115125519,2.76607394,2.917887536,3.108321389,1.676430493,3.411371269,3.388753539
294,294,294,294,14.8,-5.01,-8.18,5.97,-1.52,0.0281,-0.686,-0.575,-0.982,1.01,0,0,0,1,60,14800000000,-3.294669269,-7.871349675,5.284784182,-1.62608296,0.109710626,-0.751586585,1.40238639,-1.018120846,0.018814147,0.355530878,0.379429612,0.089872646,2.117891224,3.021738681,3.040159215,3.431258236,3.140665574,3.438148777,-0.84969853,1.48901768,-1.148465188,1.421484816,-1.249713944,0.271607084,2.771876609,2.513684057,3.288899366,1.501444376,3.347147512,3.529957842
295,295,295,295,14.8,-9.4,-16.3,7.19,-0.767,-1.18,-0.584,-5.08,-8.93,2.3,0,0,0,1,60,14800000000,-7.353145082,-14.0934954,6.320174667,-0.949875016,-0.889907415,-0.623775163,-2.47867193,-5.244313523,1.487658394,0.297023923,0.373277237,0.077694994,2.262980526,2.959375474,2.935930121,3.572483662,3.024535718,3.329764719,-4.858999119,-1.708507797,0.567281801,3.65413262,0.046004742,0.576153128,2.80460259,2.285025066,3.133937874,1.321414634,3.261096917,3.554457928
296,296,296,296,14.9,-4.1,-6.96,5.01,0.232,-0.712,0.207,0.318,0.215,-0.0135,0,0,0,1,60,14900000000,-5.190639491,-8.827450427,5.608159738,-0.019588506,-0.752016439,0.009822987,-0.804281313,-2.32817824,0.521069935,0.30704122,0.34178052,0.077296121,2.130033757,2.881719246,2.920951103,3.637152191,2.96717894,3.380166126,-1.606841989,-1.184533536,-0.521676291,1.888267387,-0.195747101,0.287106915,2.801484679,2.227001442,3.181032648,1.363337453,3.293435135,3.403483719
297,297,297,297,14.9,-3.3,-4.62,4.74,0.328,0.033,0.318,1.2,2.43,-0.373,0,0,0,1,60,14900000000,-3.93385003,-5.721452224,5.136357786,0.254008028,-0.14357249,0.244856949,0.395698521,0.213440148,-0.054617267,0.287134264,0.324459865,0.060046693,1.797665548,2.846327421,2.443459995,3.821408404,3.076214756,3.282636822,0.371905371,-0.224555079,-1.295320595,0.170009497,-0.492460064,-0.08727483,3.016835243,2.122569873,2.936831174,1.438972235,3.453964396,3.437612717
298,298,298,298,15,-4.67,-7.98,5.34,0.203,-0.449,0.288,-0.216,-1.07,-0.012,0,0,0,1,60,15000000000,-4.423200644,-7.388743455,5.247027328,0.213858194,-0.38030068,0.277760375,0.029469552,-0.472119535,-0.02717622,0.27813066,0.301211237,0.060855439,1.51699612,2.417599684,2.119521576,3.749897241,2.90877817,3.453406487,-0.234702348,-0.65597371,-1.191708877,0.675009741,-0.383826921,-0.056183919,3.238804184,2.193835973,3.050358505,1.284099308,3.507544423,3.395848492
299,299,299,299,15,-4.31,-8.06,8.39,0.836,-0.454,-0.0347,0.0996,-1.58,2.5,0,0,0,1,60,15000000000,-4.347951267,-7.884274634,6.955077527,0.703563237,-0.437422927,0.039459661,0.071457233,-1.063902627,1.600060038,0.275267882,0.29437728,0.056165889,1.39823572,2.664411537,2.36287127,3.731211038,2.970362848,3.51265853,-0.536910399,-1.115769151,0.785719969,0.989140365,-1.178840936,0.008933995,3.244049694,2.247655376,2.994555837,1.570618627,3.412541492,3.496700937
300,300,300,300,15.1,-9.19,-7.02,9.42,1.86,0.225,0.758,-4.6,-1.2,3,0,0,0,1,60,15100000000,-7.566669148,-7.246255127,8.294640874,1.613826611,0.076002268,0.587460924,-2.725382806,-1.136600135,2.501474449,0.314393783,0.278448358,0.055241809,1.42880826,2.602593988,2.561379663,3.635240603,2.876055548,3.471577468,-1.64902499,-2.556042291,2.60235901,-0.101531532,0.269640252,-0.616661945,3.139027661,2.350014462,2.897397342,1.436179823,3.251499073,3.486016344
301,301,301,301,15.1,-2.56,-5.97,2.99,1.21,-0.37,0.561,2.05,-0.668,-3.85,0,0,0,1,60,15100000000,-4.238520676,-6.30410578,5.411831241,1.295963546,-0.269681428,0.567280254,0.133678362,-0.886293676,-1.588208445,0.298611161,0.26174059,0.056661969,1.504401615,2.455639156,2.594163985,3.706408492,2.585994545,3.595521881,0.683440431,-0.978212625,-1.278101452,1.335845619,0.565089838,-0.313758211,2.792070626,2.272676868,2.995748499,1.3006302,3.382192804,3.375416945
302,302,302,302,15.2,-3.43,-5.12,8.68,0.748,-1.34,0.627,0.713,-0.195,1.28,0,0,0,1,60,15200000000,-3.701062234,-5.429982426,7.187919293,0.864646303,-1.099254985,0.612826036,0.48052302,-0.517033715,0.258616756,0.29745853,0.300150595,0.061367162,1.616583698,2.407904519,2.469044871,3.586941844,2.958604999,3.588577441,1.071208188,-1.310645666,0.741058218,0.947102076,-0.547990391,0.058793326,2.696333564,2.286001344,3.031152694,1.387412098,3.482162152,3.430374936
303,303,303,303,15.2,-2.89,-4.09,12.7,0.959,-1.51,0.667,0.798,0.243,4.76,0,0,0,1,60,15200000000,-3.161914335,-4.440788972,10.1834621,0.938914701,-1.417611775,0.654142293,0.670599101,-0.111055724,3.15703529,0.328618125,0.300577004,0.075091454,1.733733203,2.593838969,2.314062818,3.58786979,2.779493202,3.577386005,1.391404255,-1.786758342,4.150336158,0.337363272,-2.04509575,0.054056914,2.637476134,2.242306676,3.153702469,1.377010962,3.487479817,3.501723582
304,304,304,304,15.3,-5.15,-3.24,5.77,1.8,-1.3,0.192,-1.88,0.237,-2.8,0,0,0,1,60,15300000000,-4.483480493,-3.554349946,7.784963988,1.616698719,-1.326454191,0.301685319,-0.856465681,0.074860982,-0.678670213,0.337953926,0.32445653,0.079949322,1.764569714,2.561557946,2.255922594,3.371849758,2.831863523,3.669630147,1.490734827,-1.556902587,1.342322996,0.33878834,0.664000151,0.814906465,2.521848417,2.496383215,3.219529357,1.410843144,3.577602038,3.270338341
305,305,305,305,15.3,-2.47,-2.01,2.17,1.6,-1.59,0.283,0.529,0.8,-6.74,0,0,0,1,60,15300000000,-3.145033383,-2.414289442,4.733509146,1.603554714,-1.530721089,0.287434787,-0.026975924,0.462199701,-4.581530309,0.363486504,0.342788125,0.072928867,1.755533324,2.54748771,2.472563329,3.29299044,2.798488648,3.42918063,2.851849187,-0.636220414,-2.418428127,0.960042164,2.008534387,1.270683888,2.627190088,2.780147339,3.040863052,1.306176512,3.432332811,3.489334172
306,306,306,306,15.4,0.129,-3.62,4.6,0.867,-0.913,0.789,3.06,-1.32,-4.47,0,0,0,1,60,15400000000,-0.968642507,-3.304361573,4.660953484,1.023792113,-1.051943005,0.669957988,1.821222068,-0.489776323,-4.50971636,0.382995721,0.347323256,0.079266424,1.778972038,2.836406284,2.567381599,3.364816164,2.69763547,3.390315501,3.241746907,0.055257807,-2.671848758,2.32017415,0.937288575,0.307866837,2.6584154,2.794035439,3.190807114,1.29715058,3.447781362,3.508460237
307,307,307,307,15.4,-0.453,-3.03,9.04,0.996,-0.00489,0.695,2.7,-1.12,-0.0515,0,0,0,1,60,15400000000,-0.625872749,-3.101824043,7.040748402,1.001916166,-0.240401954,0.689056498,2.347353715,-0.826415262,-1.639092916,0.412109507,0.371109325,0.08066373,2.031822331,3.137235892,2.755050404,3.548824554,2.754735586,3.223419542,2.84613236,0.159376851,0.179290078,2.195871253,-0.56423454,-0.549346723,2.69999022,2.631011034,3.218084341,1.315855897,3.451891042,3.430078896
308,308,308,308,15.5,-1.27,-3.35,5.85,0.162,0.485,0.645,2.17,-1.59,-3.16,0,0,0,1,60,15500000000,-1.054051839,-3.285030898,6.393635557,0.340794921,0.321836512,0.655456399,2.241170624,-1.234290077,-2.618397514,0.391229239,0.365700824,0.082996497,2.250526278,3.264221366,2.859294582,3.547372991,2.477191364,3.194026226,2.375942985,0.880160442,-0.543718741,2.506742405,0.078315991,-0.898551697,2.749422493,2.267347893,3.246525081,1.001084226,3.566679288,3.441847045
309,309,309,309,15.5,-2.05,-1.43,4.5,-0.451,0.285,0.388,2.4,-1.28,-3,0,0,0,1,60,15500000000,-1.716101408,-1.915621385,5.364538402,-0.282448766,0.293285575,0.45147838,2.336263143,-1.258706377,-2.864109465,0.377701384,0.406387271,0.084818566,2.109528715,2.849086229,2.717065222,3.644168741,2.765994076,3.270252613,2.098270146,1.361968046,-1.42450048,2.303300163,0.399715206,-0.667127467,2.999469184,2.283139889,3.419491716,1.220854735,3.664309604,3.411286837
310,310,310,310,15.6,-2.83,-0.632,5.97,-1.23,0.611,-0.19,1.28,2.05,-2.52,0,0,0,1,60,15600000000,-2.456557686,-0.96803434,5.693576685,-1.028292566,0.539537005,-0.037750873,1.703869643,0.508665148,-2.642539072,0.330027294,0.387688518,0.07393197,1.938542068,2.785198629,2.608418813,3.674178107,2.703646585,3.170063549,2.023507381,2.241899769,-1.053700862,0.580856928,0.506013477,-0.203431065,2.991223547,2.10437145,3.397587634,1.263032238,3.69966507,3.311041087
311,311,311,311,15.6,-5.06,-1.66,7.06,-1.47,1.21,-0.577,-0.502,1.77,-0.921,0,0,0,1,60,15600000000,-4.187177787,-1.478852939,6.436160063,-1.375972727,1.059193863,-0.449014085,0.383197252,1.182417075,-1.534048588,0.334247833,0.384055871,0.077391145,1.918968527,2.742086264,2.39624781,3.858217877,2.804261875,3.297211043,0.876117257,2.426972214,-0.013483241,-0.655644828,0.642012107,-0.113690641,3.225396517,2.258381305,3.506979263,1.283779189,3.670248001,3.333874152
312,312,312,312,15.7,-3.69,-4.02,7.2,-1.5,1.23,-0.658,1.18,0.171,-0.207,0,0,0,1,60,15700000000,-3.856682355,-3.354762844,6.851269141,-1.473598024,1.191580864,-0.608399067,0.860249618,0.642160687,-0.679568573,0.26176598,0.364428164,0.065406152,1.716685344,2.559718505,2.090729393,3.74879362,2.743479868,3.371013554,0.364376185,2.442427764,0.435444322,-0.165031603,-0.160733226,-0.280132076,3.192758669,2.225887112,3.427208702,1.279924223,3.710089958,3.53198598
313,313,313,313,15.7,-5.51,-6.61,7.12,-1.76,0.96,-0.877,-0.48,-1.54,0.402,0,0,0,1,60,15700000000,-4.955713893,-5.757824049,6.997310993,-1.699032933,1.012089096,-0.813249964,0.057831089,-0.523457597,0.016848083,0.289283127,0.335997149,0.070616899,1.615021412,2.589951798,2.263223277,3.746923475,2.733322738,3.474634935,-1.086627201,1.925471106,0.787531763,0.439911718,-0.155962184,-0.127896076,3.277319706,2.305036046,3.4679425,1.281472456,3.669031281,3.582023036
314,314,314,314,15.8,-6.17,-12,7.17,-2.08,1.16,-1.15,-1.25,-5.94,1.2,0,0,0,1,60,15800000000,-5.762902173,-10.3658847,7.091158959,-1.998902589,1.126730612,-1.070075389,-0.725178205,-3.416746379,0.778673776,0.296826501,0.297876595,0.064784191,1.610106344,2.435043218,2.399449015,3.885894802,2.663453553,3.452313254,-3.492559638,1.327128523,1.134296959,2.527312297,-0.285653891,-0.319553534,3.221031366,2.298952413,3.362539749,1.332887522,3.737747878,3.469299321
315,315,315,315,15.8,-2.21,-5.3,4.8,-2.18,0.183,-0.971,2.6,1.41,-0.487,0,0,0,1,60,15800000000,-3.401135233,-6.626178666,5.846027623,-2.141449423,0.395271813,-0.994514665,1.265633441,-0.838501833,-0.036287295,0.29473019,0.302438421,0.071732086,1.71851402,2.30719383,2.388893762,3.820839429,2.580255148,3.586334234,-0.858463436,2.17074743,-0.498534048,1.178131058,-1.047021099,0.335463213,3.078558475,2.472140762,3.575236454,1.185071339,3.651065926,3.362287433
316,316,316,316,15.9,-6.21,-8.13,7.24,-1.46,0.682,-0.545,-1.48,-0.964,2.49,0,0,0,1,60,15900000000,-5.268308542,-7.736320466,6.603582458,-1.605061764,0.617506674,-0.651688276,-0.378200028,-0.905537659,1.590376594,0.287709358,0.319354067,0.074091834,1.853698041,2.365850934,2.267295557,3.656132608,2.700045095,3.674049508,-2.002864943,0.959215806,0.646408348,0.427657037,-0.912641135,-0.085608292,2.883796527,2.689016039,3.61234146,1.359036162,3.638459727,3.437855887
317,317,317,317,15.9,-4.93,-12.2,5.06,-1.05,0.448,-0.57,-0.303,-4.8,0.626,0,0,0,1,60,15900000000,-5.043420182,-11.03147032,5.764721797,-1.168157259,0.486126875,-0.589387972,-0.333177151,-2.985795469,0.969419271,0.312050768,0.331115536,0.062285501,1.970465004,2.595775099,2.251913673,3.559761221,2.639102224,3.399336539,-2.906840073,0.287865584,-0.318450958,2.382483457,-0.796260715,-0.249169143,2.626964124,2.753687946,3.34213086,1.219315673,3.642751486,3.274622491
318,318,318,318,16,-1.59,-6.68,5.34,-0.154,-0.359,0.00435,3.04,0.685,0.808,0,0,0,1,60,16000000000,-2.747783199,-7.819154596,5.533906615,-0.369886029,-0.168906964,-0.136568369,1.686371895,-1.02501118,0.86548222,0.359094707,0.36611493,0.074066679,2.20975798,2.878888349,2.31969493,3.521063867,2.654985035,3.377562887,-0.186974799,0.243954262,-0.863872083,1.47396021,-1.784956308,-0.110983735,2.587143392,2.913192593,3.56289884,1.255372043,3.498687022,3.447350222
319,319,319,319,16,-4.87,-8.37,9.67,0.425,-0.0183,0.351,-0.0509,-1.24,4.96,0,0,0,1,60,16000000000,-4.158511955,-8.22579621,7.781668599,0.25579076,-0.052175784,0.23528004,0.646252837,-1.139849155,3.501921973,0.35297264,0.381151818,0.069565623,2.490193889,2.933892646,2.507860711,3.491842185,2.718742123,3.159659427,-0.913380997,-1.030506121,1.881992327,0.7887119,-2.331727975,-0.651415255,2.593694688,2.861776069,3.422681327,1.30182427,3.350897068,3.468582994
320,320,320,320,16.1,-6.07,-8.37,5.68,0.981,0.493,0.251,-1.23,-1.57,0.535,0,0,0,1,60,16100000000,-5.429160429,-8.332249358,6.639515693,0.826623016,0.370374485,0.247268999,-0.477075272,-1.369617642,1.591535619,0.383049887,0.367612036,0.083331573,2.503734042,3.047732648,2.578231933,3.542006871,2.501379602,3.225782152,-1.236815142,-1.142213941,0.570786856,0.877352219,-0.691065295,-0.712616699,2.631703927,2.727857306,3.493007145,1.311663449,3.42240326,3.512774686
321,321,321,321,16.1,-4.4,-3.45,4.3,1.42,-0.191,0.376,0.546,2.87,-1.34,0,0,0,1,60,16100000000,-4.745033268,-4.728105368,5.368104866,1.293686419,-0.064730936,0.345446845,0.135448361,0.895007425,-0.296065675,0.352608518,0.370121021,0.072892767,2.268309883,2.982347995,2.609193157,3.411083203,2.523362688,3.080829094,0.901741287,-0.719454476,-1.106405229,-0.516003031,-0.01879333,-0.123363608,2.800673009,2.618122455,3.444890043,1.194431741,3.440466553,3.537910622
322,322,322,322,16.2,-5.99,-6.79,10.2,1.31,-0.0287,0.426,-1.05,-0.969,4.09,0,0,0,1,60,16200000000,-5.572616077,-6.250224485,7.9940005,1.306527245,-0.036804381,0.406881432,-0.574289353,-0.100666801,2.528100398,0.325240942,0.389730916,0.076539402,2.009159753,2.774733872,2.726521949,3.414670127,2.637985484,3.242379728,-0.296405395,-1.599971387,2.039147309,-0.319989895,-0.968246293,-0.495094334,3.110659038,2.468526255,3.438167051,1.377781089,3.55243367,3.261625417
323,323,323,323,16.2,-6.29,-8.95,8.01,1.51,-0.401,0.566,-1.54,-3.71,1.22,0,0,0,1,60,16200000000,-6.049492016,-8.243235983,8.002695561,1.466686271,-0.319082058,0.528234627,-1.152468284,-2.028620554,1.685821046,0.313480719,0.352183445,0.072709366,2.031669814,2.799628583,2.706284998,3.503152899,2.326982325,3.371295481,-1.100639284,-2.251457959,1.994131809,1.325773927,-0.235876729,-0.544122892,3.194684485,2.127868091,3.492685557,1.269670844,3.517929648,3.281873881
324,324,324,324,16.3,-3.74,-3.97,4.62,1.27,-0.966,0.444,0.733,0.691,-2.76,0,0,0,1,60,16300000000,-4.514273295,-5.088674078,6.164367967,1.311869052,-0.8204898,0.463992336,-0.023622834,-0.57591384,-1.176821111,0.342200212,0.357998841,0.072936025,1.939416898,2.81410444,2.662486619,3.687319593,2.444760812,3.602353992,0.984914559,-1.217440224,-0.407647271,0.970409888,0.547661062,0.166957995,3.405355662,2.126709249,3.599817075,1.232821877,3.558510603,3.588283486
325,325,325,325,16.3,-4.07,-4.13,9.95,1.48,-1.55,0.48,-0.16,-0.0736,1.93,0,0,0,1,60,16300000000,-4.218945832,-4.380967694,8.221671415,1.444209587,-1.385912403,0.476200717,-0.10527297,-0.30759895,0.823645589,0.281914004,0.340080842,0.073534666,1.747725398,2.542587485,2.390179973,3.774287357,2.568600883,3.786650843,1.227423767,-1.815927692,1.951133283,0.550638688,-0.414892963,0.442388289,3.321400642,2.017390171,3.643917137,1.341869801,3.592914112,3.515298455
326,326,326,326,16.4,-2.07,-1.73,4.36,1.64,-1.71,0.0923,1.34,1.61,-4.21,0,0,0,1,60,16400000000,-2.790449018,-2.423986679,6.123044297,1.598321625,-1.637103526,0.183415381,0.760023935,0.716701628,-2.417493912,0.295492407,0.311641573,0.070670682,1.667587001,2.221529068,2.134391857,3.794216021,2.408899719,3.771374369,2.895562527,-0.779944863,-0.771985766,0.593507102,0.577894382,1.197645381,3.318695886,2.034447673,3.674066958,1.049280282,3.557679821,3.398853669
327,327,327,327,16.4,-2.27,-2.13,5.91,1.72,-0.718,0.541,1.09,0.443,-2.94,0,0,0,1,60,16400000000,-2.444484147,-2.206961729,6.007265188,1.694098062,-0.924732479,0.456130513,0.957583355,0.570501743,-2.753933032,0.312127561,0.291098398,0.06899259,1.583870591,2.21816331,2.096571349,3.749359912,2.478957446,3.671492311,3.029187143,-0.479717626,-0.949554098,0.780159437,0.718472604,0.48600945,3.224325048,2.155028577,3.708734993,1.262690079,3.763656276,3.329870891
328,328,328,328,16.5,-3.72,-2.82,7.62,1.39,-0.0654,0.567,-0.201,-0.813,-1.31,0,0,0,1,60,16500000000,-3.292374442,-2.659515013,6.883706636,1.454734055,-0.258688275,0.540686103,0.263929912,-0.168506613,-1.824191664,0.31189858,0.301640434,0.060618599,1.486146471,2.199043309,2.138401249,3.818471882,2.506179954,3.529426337,2.046474184,-0.498711272,0.225305779,0.91964419,0.784483945,-0.126382587,3.06758506,2.335516577,3.558113247,1.303340511,3.559329398,3.326662629
