,Unnamed: 0,Unnamed: 0.1,Unnamed: 0.1.1,Time (s),Acceleration x (m/s^2),Acceleration y (m/s^2),Acceleration z (m/s^2),Gyroscope x (rad/s),Gyroscope y (rad/s),Gyroscope z (rad/s),Linear Acceleration x (m/s^2),Linear Acceleration y (m/s^2),Linear Acceleration z (m/s^2),SPM/RPM,Timestamps,Acceleration x (m/s^2)_kalman,Acceleration y (m/s^2)_kalman,Acceleration z (m/s^2)_kalman,Gyroscope x (rad/s)_kalman,Gyroscope y (rad/s)_kalman,Gyroscope z (rad/s)_kalman,Linear Acceleration x (m/s^2)_kalman,Linear Acceleration y (m/s^2)_kalman,Linear Acceleration z (m/s^2)_kalman,Acceleration x (m/s^2)_kalman_max_freq,Acceleration y (m/s^2)_kalman_max_freq,Acceleration z (m/s^2)_kalman_max_freq,Gyroscope x (rad/s)_kalman_max_freq,Gyroscope y (rad/s)_kalman_max_freq,Gyroscope z (rad/s)_kalman_max_freq,Linear Acceleration x (m/s^2)_kalman_max_freq,Linear Acceleration y (m/s^2)_kalman_max_freq,Linear Acceleration z (m/s^2)_kalman_max_freq,0,1,2,3,4,5,0_max_freq,1_max_freq,2_max_freq,3_max_freq,4_max_freq,5_max_freq
0,0,0,0,0.247,4.48,1.81,15.0,-1.48,0.7170000000000001,-1.33,0.0381,2.39,-2.63,90.0,247000000.0,2.790415792010349,1.3005972852215977,10.697489248679542,-1.1934876909783014,0.3648048672567625,-1.2251222878885926,1.7883677495607744,0.19319635286408324,0.07465467516216917,,,,,,,,,,3.1847116492354792,1.4882263146443286,3.1209703565160414,2.0038437570755563,2.3033487245486843,-1.948147798608442,,,,,,
1,1,1,1,0.267,2.73,1.68,15.9,-0.192,-0.574,-0.902,5.32,-3.1,7.74,90.0,267000000.0,2.776857132049991,1.3973675358992164,12.32149456192985,-0.4339519437184081,-0.198748830513651,-1.0043481416863127,2.7672518535052606,-0.6056199014303107,3.012539136080623,,,,,,,,,,2.6841980983591016,2.4787396942202147,3.387064551057488,2.2786486624624316,2.2117141782599767,-2.104969692459549,,,,,,
2,2,2,2,0.317,2.21,2.45,8.51,-1.15,-0.154,-1.5,7.22,-1.65,-0.815,90.0,317000000.0,2.5934450935045517,1.7818506503024705,10.709767916734233,-0.9971824891025788,-0.16924538159753405,-1.362261643484182,4.479505552279412,-0.9720499540895688,1.127032527711535,,,,,,,,,,2.9603179768440477,1.7505705224555248,3.351086259741164,2.5657593584412983,2.032242817632698,-1.4732590684376992,,,,,,
3,3,3,3,0.3670000000000001,1.86,1.22,8.43,-0.332,-0.584,-0.933,3.19,-3.19,0.0977,90.0,367000000.0,2.324952087477459,1.5533151485305643,9.666731351474365,-0.4731133486131943,-0.4454835235992037,-1.0510147403796652,3.934449486352032,-1.844801733938752,0.5925140925552468,,,,,,,,,,2.2839603350997564,1.7316529626517705,3.1856842205384113,2.395021604734872,2.0787367145540783,-1.145637361964427,,,,,,
4,4,4,4,0.417,1.86,1.22,8.43,-0.634,-0.0586,-0.952,3.64,-3.22,-1.23,90.0,417000000.0,2.1470118420715654,1.4129867418389568,9.088522097506829,-0.599878368281985,-0.1875191546844498,-0.9791994373998916,3.8063267992783785,-2.4069593969244485,-0.3649830864011721,,,,,,,,,,2.2795836807041714,1.4677838908173493,2.9293334507302125,2.444510960064305,2.055824425558885,-1.0624886300006977,,,,,,
5,5,5,5,0.467,0.304,1.24,2.95,-0.534,0.315,-0.0708,2.39,-1.7,1.7,90.0,467000000.0,1.4301148485939472,1.3393381123416928,6.201245149084357,-0.5479716229686538,0.14758988625754454,-0.3203226216809626,3.184462900174238,-2.114222433688715,0.7227229966322558,,,,,,,,,,1.908827828635861,1.2407648146687045,2.720286618143711,1.8413469447482151,1.4980901675400702,-0.3947132893670671,,,,,,
6,6,6,6,0.517,-0.792,1.26,10.5,-0.007640000000000002,0.8059999999999999,0.0453,7.07,-1.57,-0.433,90.0,517000000.0,0.5605683204160808,1.3054364719590017,8.226580410467726,-0.12223473732422102,0.5866621591134082,-0.05513015012161465,4.89528686659601,-1.8878850212635248,0.11360562779661708,,,,,,,,,,1.8127954322128723,1.895548212705163,2.5429291199220647,2.423245727595379,1.2610158485404788,-0.916881600118097,,,,,,
7,7,7,7,0.5670000000000001,4.39,2.17,9.41,0.0889,-0.55,-1.08,6.82,-0.746,-0.823,90.0,567000000.0,2.0623879814527006,1.6753110646906468,8.784403780464235,0.04412207435994242,-0.17134201118441705,-0.7984862782683673,5.743494607777513,-1.4122794649358483,-0.3800912490802164,,,,,,,,,,1.9153977504247328,1.5632806781406658,3.2773229983410235,2.578814644869432,1.625959457614052,-1.0678623165802854,,,,,,
8,8,8,8,0.617,4.39,2.17,9.41,-0.703,-0.7290000000000001,0.16399999999999998,0.6779999999999999,0.647,0.623,90.0,617000000.0,2.9759687304845865,1.887029885876244,9.079326978895589,-0.5445486930986638,-0.5432265893921265,-0.100378070803966,3.510552686358849,-0.5541377890550561,0.14866640852049096,,,,,,,,,,1.6447217380580137,1.6362326030737684,3.7906408778532614,2.0575673749062933,2.139326914400764,-1.2190612012362965,,,,,,
9,9,9,9,0.667,4.39,2.17,9.41,-1.32,0.199,0.418,2.65,-0.0184,2.31,90.0,667000000.0,3.5311380901190668,2.0081519830462056,9.23522097468698,-1.1555406005443931,-0.048258980357016416,0.27561065896848996,3.1311762916679364,-0.33084715289682065,1.2879735716039258,,,,,,,,,,1.9381072318672776,1.5411328501950807,3.934060142573465,2.0177446631521025,2.0441063678193085,-1.526048951329236,,,,,,
10,10,10,10,0.7170000000000001,-0.29,2.19,11.4,-1.6,1.98,0.915,3.35,-1.51,0.461,90.0,717000000.0,2.0307374285084494,2.0859931883779064,10.255804991912044,-1.5057380791449082,1.3043232669144729,0.7393709951513625,3.227647726999036,-0.8223360101455659,0.8520490502545599,,,,,,,,,,2.408305095276692,1.914477760534932,3.0995642684758486,2.419946770978929,1.7189310014746255,-1.9138321167596868,,,,,,
11,11,11,11,0.767,-0.836,-0.304,12.8,0.601,2.97,0.317,4.16,-2.05,6.06,90.0,767000000.0,0.9050439789641718,1.0629276758924924,11.455268217999222,0.1541983032482963,2.4151108037717304,0.4330178941714199,3.6386915878438617,-1.334055190686584,3.597329313516412,,,,,,,,,,2.556675143397343,2.721330276280635,2.2269534680911187,2.5929519834546357,0.9121158728239448,-2.734702795506688,,,,,,
12,12,12,12,0.8170000000000001,-0.836,-0.304,12.8,2.81,-0.713,0.836,4.22,-4.67,3.79,90.0,817000000.0,0.2213708735642601,0.477795124157014,12.089243880915713,2.246751614249919,0.32907191903594324,0.7253079126796547,3.894972224725264,-2.7245647976931866,3.6988922847283527,,,,,,,,,,0.5309857038347132,3.879441531012224,2.4365154283409467,2.5130197917736776,1.3201586495919209,-2.148999259929872,,,,,,
13,13,13,13,0.867,-1.97,-0.342,16.8,-0.5589999999999999,-0.431,0.831,2.79,-1.83,-1.21,90.0,867000000.0,-0.6391413558760616,0.1268698111624207,14.310136204654706,0.03605004121642885,-0.1777961767817563,0.8019682187666897,3.407824053458155,-2.351685813259254,1.1112552883070674,,,,,,,,,,1.1491157813450656,4.085621483822579,2.265836222865382,2.7715970743304106,2.043273414870034,-1.9223066486668388,,,,,,
14,14,14,14,0.917,-1.24,1.11,7.24,-1.1,3.95,-0.276,4.19,-4.45,-2.21,90.0,917000000.0,-0.8750883042611474,0.5477132950572103,10.97691010308174,-0.8590639950565953,2.5749015292771484,0.020098939022497042,3.7526614040653317,-3.2263209903198797,-0.6394865538853372,,,,,,,,,,2.9625884098696584,2.278078523515679,1.1133046411647345,3.0360876318950747,1.1714715127195898,-2.0277985732506467,,,,,,
15,15,15,15,0.967,-1.44,-2.02,5.73,2.13,0.997,0.117,4.44,-3.64,0.236,90.0,967000000.0,-1.0969196849941514,-0.5514346778113222,8.503246671915125,1.496072738810743,1.5226485251103663,0.09038297977120956,4.055687907050744,-3.3987539066446586,-0.17798907920961615,,,,,,,,,,1.2848741655846625,2.3902094321216265,1.1999297220878746,2.4316308558713025,0.7739842108935086,-1.4379794218837452,,,,,,
16,16,16,16,1.02,-1.44,-2.02,5.73,-0.509,2.0,0.155,4.35,-3.35,-2.64,90.0,1020000000.0,-1.2316416366089673,-1.1800759960180192,7.1957954760195815,-0.08375970911361262,1.8409792368166444,0.13725084047624467,4.185441031280426,-3.3784318859958726,-1.475795269709049,,,,,,,,,,1.8328755849813436,1.6205305193527928,0.9626759601384164,2.377972712762096,0.6374957158906653,-1.0230057157987362,,,,,,
17,17,17,17,1.07,-1.44,-2.02,5.73,-1.42,3.01,-0.447,5.48,-6.89,-1.49,90.0,1070000000.0,-1.3134605286623922,-1.5396180121541494,6.504744060249642,-1.1366071483067608,2.620562474919712,-0.2865165548764365,4.7561723499591375,-4.842150888651076,-1.4832830506698846,,,,,,,,,,2.737171038951577,0.993174133943638,0.4026234131209948,2.730859431942166,0.3628709869116121,-0.9168322371214578,,,,,,
18,18,18,18,1.12,-1.44,-2.02,5.73,-0.184,-0.35600000000000004,0.395,11.7,5.81,4.35,90.0,1120000000.0,-1.3631505022621149,-1.7452526953129075,6.139489846791574,-0.3860310465928513,0.6355864082347562,0.2077993817389716,7.8174927298036945,-0.4020387106783172,1.59163036429599,,,,,,,,,,1.5233813034862669,1.9351603400246535,2.0230049876855727,2.0716265188232144,-0.2757081340511653,-0.1822314697363091,,,,,,
19,19,19,19,1.27,2.95,5.79,9.11,-1.25,1.21,0.489,11.0,5.1,3.66,90.0,1270000000.0,0.3305521880568065,1.480324857929137,7.5399410495489825,-1.066767539538851,1.0186448237681307,0.4117591243984969,9.22056249641558,1.8913637329113144,2.681935403945726,,,,,,,,,,2.2901227033815994,1.946013471411843,3.4341933714859847,2.4677548340804947,-0.06547327396856972,-0.7300961639377932,,,,,,
20,20,20,20,1.32,1.86,5.02,7.17,0.19,0.16399999999999998,0.0777,10.5,5.76,1.01,90.0,1320000000.0,0.9311409876734168,2.9955357139771737,7.365531835603466,-0.07653806159616637,0.4487090261944995,0.16946017084322065,9.784627218840562,3.5039188282620533,1.80060379852218,,,,,,,,,,1.93319392086808,1.9641339107390001,4.222943342631583,2.369982782405977,0.17883113499034492,-0.6760539481905262,,,,,,
21,21,21,21,1.37,1.19,5.62,4.53,-0.402,1.24,0.35700000000000004,10.0,5.51,4.26,90.0,1370000000.0,1.0327906520008034,4.118976839694153,6.028716295477469,-0.3329753149017653,0.9763961396622772,0.3054860984302916,9.879578467097195,4.340109250638547,3.0970317507403005,,,,,,,,,,2.319165103604542,1.731433681304522,4.437443183016915,2.1803310589147618,-0.14384717902584582,-0.4740981125050426,,,,,,
22,22,22,22,1.42,0.539,5.62,7.57,-1.06,2.52,0.982,10.6,2.59,4.65,90.0,1420000000.0,0.8388872407129524,4.761512195573281,6.7553568374799875,-0.905810939972726,2.0057770785099014,0.796173510101437,10.19719037550297,3.6106150910199055,3.9156519398369154,,,,,,,,,,2.771511883761042,1.871549170612796,4.205383188158471,2.592559008383529,-0.349639392481742,-0.8522282500272043,,,,,,
23,23,23,23,1.47,1.23,3.22,6.85,-0.715,0.622,1.42,10.1,3.54,7.38,90.0,1470000000.0,0.9924707436676172,4.101644866060567,6.799976450177714,-0.7554675885900797,1.0829795758404457,1.248645790290405,10.154342290419445,3.5811807446982487,5.741822684142576,,,,,,,,,,2.041390387718642,2.336585676575189,4.557569434927769,2.3172708298441704,-0.3569779497634433,-0.5782853426306008,,,,,,
24,24,24,24,1.52,0.737,4.68,9.03,-0.838,1.3,1.33,10.7,1.63,7.95,90.0,1520000000.0,0.8921516141297424,4.349218354386174,7.851324194696176,-0.8204963419398412,1.2277036513537574,1.3076534587954656,10.39490594130332,2.7678744377571944,6.905824759252923,,,,,,,,,,2.194229080996082,2.711891294196651,4.467343983976752,2.610092170068874,-0.3514414686799532,-0.7663590459476759,,,,,,
25,25,25,25,1.57,1.24,3.28,9.59,-0.923,1.52,0.669,9.8,1.01,11.0,90.0,1570000000.0,1.0287459112904662,3.891523440144909,8.671025522876125,-0.9012607785497576,1.4226268966281983,0.8444269079296574,10.132630256746808,2.03514356431384,9.063997861345218,,,,,,,,,,2.7218812056288386,2.9115652143980726,4.2173705107223896,2.698166140802775,-0.459477872658334,-1.0360835442483471,,,,,,
26,26,26,26,1.62,0.175,2.7,11.0,-0.289,1.38,-0.156,7.97,4.58,10.3,90.0,1620000000.0,0.6934940468145367,3.3814740380750834,9.769023952963442,-0.4188496335300221,1.394200354398407,0.11879969568378425,9.179192866846543,3.095910347675029,9.715534941356822,,,,,,,,,,3.1456722159522523,3.2489754858541073,3.9940850209910304,2.4495651082829046,-0.3964278692767028,-1.379724948839355,,,,,,
27,27,27,27,1.67,-1.82,6.75,10.7,1.06,0.206,0.691,6.63,1.66,9.73,90.0,1670000000.0,-0.29351340944045196,4.823421937384032,10.207933884656137,0.7463622299305797,0.6018268428745299,0.533826616659395,8.055332030798121,2.49738303571706,9.723159703540905,,,,,,,,,,2.2289529375410755,4.1920881665511045,4.037394610998155,2.3442823391497223,0.11081753235696,-0.945401111487585,,,,,,
28,28,28,28,1.72,-3.02,4.06,10.4,0.375,2.13,2.19,5.76,0.78,14.7,90.0,1720000000.0,-1.3641594778858783,4.496627739016855,10.298483556341592,0.4537593290756274,1.6209176192478785,1.7350783055914467,7.0433906954574095,1.7815300948532076,12.34661420121118,,,,,,,,,,2.117480872338697,4.827008649999777,3.458373556762457,2.2179166410121427,-0.3848521941817438,-1.1384831209038997,,,,,,
29,29,29,29,1.77,-3.26,4.26,13.2,0.166,0.614,0.767,5.54,1.21,11.9,90.0,1770000000.0,-2.108624612033057,4.395335795592748,11.666407645624542,0.2270286346266113,0.9494358870406878,1.0329141193747022,6.380591868188787,1.5433004998469635,12.111189110035006,,,,,,,,,,2.4769588159305616,5.268158354206422,3.190488823335984,2.266298959265113,0.07193952233242401,-0.905657731287576,,,,,,
30,30,30,30,1.82,-3.45,4.7,10.3,1.03,0.0935,0.8220000000000001,6.54,-0.0569,8.23,90.0,1820000000.0,-2.6353605041182195,4.525751781538999,11.022212848702047,0.8597040213620898,0.37863911903026537,0.8799344230237178,6.4508700035904045,0.8762925058874858,10.065287692338023,,,,,,,,,,1.9174642139137457,5.2260695478206065,3.04576800753658,2.2974518217802715,0.3215822979708101,-0.4437810927780605,,,,,,
31,31,31,31,1.87,-2.04,3.88,6.2,0.256,0.486,1.07,6.99,-3.55,4.56,90.0,1870000000.0,-2.401572290909832,4.249328126096741,8.748773444854628,0.3840349034135352,0.4502347208073126,1.0177923627582277,6.688555769290379,-0.9687090777109582,7.163271231946527,,,,,,,,,,1.6270254430276452,4.1988421756057885,2.7595427783487176,2.446864441426083,0.3972963770054991,0.11390686996433608,,,,,,
32,32,32,32,1.92,-2.1,0.194,2.54,-0.73,1.57,0.495,8.03,-6.78,8.79,90.0,1920000000.0,-2.283149815223916,2.513384294794959,5.8216380880419685,-0.4937330107719203,1.196971064397562,0.6386018820901314,7.279957236720326,-3.3910165602631466,8.020772922236741,,,,,,,,,,2.165143908426445,3.0537738028413823,1.9454290772853315,2.4795167385101773,-0.3408734314367393,0.5958523933848466,,,,,,
33,33,33,33,1.97,0.455,-2.01,6.4,-1.34,2.49,1.36,7.33,-5.61,10.0,90.0,1970000000.0,-1.2079237792018094,0.5770820244188941,6.0943077039193145,-1.1605218378394628,2.059251472053452,1.1618446195307848,7.3020195213321175,-4.315950519165834,9.064087971297017,,,,,,,,,,2.265564734582952,2.627641627694645,1.7327998625322776,2.5893613149082286,-0.7492886011460725,-0.20243794125821665,,,,,,
34,34,34,34,2.02,-0.611,0.11,7.41,-1.2,1.94,0.527,4.34,-4.93,12.6,90.0,2020000000.0,-0.9735217093303438,0.3771405804792816,6.714592692966225,-1.1916274209870767,1.979726447511433,0.7013806725098729,5.996156102017442,-4.571903319060825,10.927982554763016,,,,,,,,,,2.692697262659783,2.8265097685452987,1.6056395693897108,2.3955877341103293,-0.5951479858111293,-0.3670539121930521,,,,,,
35,35,35,35,2.07,-2.73,0.804,8.96,-1.41,2.55,-0.017,3.27,-4.26,12.6,90.0,2070000000.0,-1.6632616172049326,0.5598641453600468,7.773193276240834,-1.3636870306345832,2.3600239435938195,0.1803265509282068,4.794277548676742,-4.441893451718482,11.80935760288108,,,,,,,,,,3.4669261799669444,3.168350834360309,1.1436839138424255,2.349528371873281,-0.4821915304023565,-0.5589034367369411,,,,,,
36,36,36,36,2.12,-3.69,1.75,9.18,-1.89,-0.524,0.0893,3.22,-4.29,13.3,90.0,2120000000.0,-2.459128197024312,1.069319591121218,8.43643451154795,-1.7783783616215136,0.4367589295636079,0.1143033939627098,4.100226913155119,-4.378580028128351,12.595123855854721,,,,,,,,,,3.0193597901378806,4.006283534233411,1.514840524627978,2.072984672293624,0.1978513269486088,0.4989684559833707,,,,,,
37,37,37,37,2.17,-3.88,1.86,10.5,-1.26,-0.057999999999999996,-0.6579999999999999,1.22,-7.78,9.54,90.0,2170000000.0,-3.01708103935906,1.407782167370251,9.40930548499925,-1.3699388303053508,0.10681973397159232,-0.44586181849628814,2.8304232894710384,-5.796386393374728,10.984668556830735,,,,,,,,,,3.0600798230393886,4.233705527857986,1.0352043207132242,2.2591833471797385,0.8429000732228923,0.5607742191678259,,,,,,
38,38,38,38,2.22,-6.09,-1.7,7.11,-1.22,0.0208,-0.4920000000000001,0.379,-7.29,15.3,90.0,2220000000.0,-4.223765422711601,0.07744952717100229,8.325294607671175,-1.25179938371998,0.04945587409398863,-0.4793266618653815,1.7496660121316132,-6.4189659958632825,13.259420396031553,,,,,,,,,,2.996155252117878,4.548345196262884,0.3378400910533728,1.7701961169448557,0.4301060984555352,1.0409052669665966,,,,,,
39,39,39,39,2.27,-7.26,-1.52,13.1,-2.24,1.86,-2.4,-4.33,-8.65,12.1,90.0,2270000000.0,-5.4160444869487945,-0.6063626175147719,10.576336641516894,-2.0304202192172145,1.2568509174680451,-1.8724248419084355,-0.9306720812110528,-7.348922749907594,12.648252348178726,,,,,,,,,,4.868015621381742,4.61228458966741,-1.13325420577822,1.9459830367376345,0.8071697194130187,0.3681493891798551,,,,,,
40,40,40,40,2.32,-12.5,-4.02,9.2,-0.833,2.95,-2.95,-4.95,-7.83,11.5,90.0,2320000000.0,-8.197796357072452,-2.0676211266704683,9.927460625086676,-1.0869515511862455,2.3859589144026643,-2.654009067441204,-2.7026703016441047,-7.5494490720773255,12.042971140967513,,,,,,,,,,5.428048547073465,4.8660972806437695,-2.9089047049500603,1.5791256798177349,0.2965085772917111,0.4041539170892087,,,,,,
41,41,41,41,2.37,-13.2,-3.71,8.18,-1.53,1.03,-1.18,-3.18,-7.01,13.2,90.0,2370000000.0,-10.162078710658632,-2.7706659741917945,9.103617896560282,-1.4360372753725443,1.4817124669111477,-1.5848843602044929,-2.9131103432551515,-7.324591817532079,12.65287863232686,,,,,,,,,,4.451295299323025,5.662045022069733,-3.1099949464286363,1.1315352030828263,0.1259513195778163,1.4680486349009925,,,,,,
42,42,42,42,2.42,-11.3,-2.7,9.87,-2.28,1.16,0.085,1.4,-6.95,12.8,90.0,2420000000.0,-10.608921607882381,-2.7404163678557256,9.464929808319427,-2.101010482567496,1.2671725009338353,-0.3736878997593174,-1.0115923960655149,-7.168451468700204,12.730431196988485,,,,,,,,,,3.8025016789653936,6.073271095637198,-2.7456841223634187,1.4304749670917998,-0.13699014960176356,1.716457511902448,,,,,,
43,43,43,43,2.47,-6.66,-2.19,8.92,-0.924,1.58,0.269,-1.5,-6.83,6.76,90.0,2470000000.0,-9.058245510055118,-2.5048024370631428,9.208021887623453,-1.173623024922513,1.4757873671669886,0.092464918953989,-1.226916316774235,-7.027375468326981,9.583222598043553,,,,,,,,,,2.9808189329272543,5.447849527370079,-2.276952943513071,1.503850885383294,0.1945301094154176,1.0270674866613598,,,,,,
44,44,44,44,2.52,-9.0,-2.23,2.44,-0.512,2.49,-0.667,1.07,-6.62,6.71,90.0,2520000000.0,-9.03537346403173,-2.3871691535960875,6.017228077913543,-0.6523185043060138,2.1521339362054834,-0.4583883244803739,-0.21427639434544066,-6.857570015473755,8.068653416104464,,,,,,,,,,3.1785392752382733,4.343013044869373,-2.5120395453120143,1.383966129545621,-0.3865713631347371,1.4217723622178655,,,,,,
45,45,45,45,2.57,-6.12,-1.73,2.19,-1.63,0.458,0.773,4.72,-6.74,8.27,90.0,2570000000.0,-7.890554599897968,-2.105858080525375,4.212875819190309,-1.4226511264752264,1.0223692059370566,0.4347592593278482,1.9610945158435635,-6.808563473527326,8.174789998918508,,,,,,,,,,2.2398685447132016,3.916704967200045,-1.4091167387831187,1.3942606432163762,-0.4894225354026187,2.25999521513706,,,,,,
46,46,46,46,2.62,-2.06,-0.898,4.26,-1.91,0.0177,1.67,0.44,-6.84,7.42,90.0,2620000000.0,-5.600992463120591,-1.5888163718334396,4.235092691194843,-1.8066419388465416,0.35238685485350274,1.3307010357611728,1.2904906333592203,-6.821667154135307,7.776915649885657,,,,,,,,,,1.4556262361213947,3.5505814026345015,-0.31083461427678244,1.2780768326624912,0.1084193332932027,2.0016566881919453,,,,,,
47,47,47,47,2.67,-6.08,-0.5579999999999999,3.64,-0.41,0.301,-0.0421,-1.62,-8.6,8.03,90.0,2670000000.0,-5.7890907504167055,-1.1475600246439996,3.954535419347589,-0.7062029311289144,0.3181185740542685,0.3349843289587973,0.007344649678500792,-7.56292581509808,7.9103245121265475,,,,,,,,,,1.7092690270639437,3.550849640113717,-0.7123661765428105,1.1475240655120136,0.3374179345643913,2.028326285963573,,,,,,
48,48,48,48,2.72,-8.06,-2.11,4.48,-0.204,-0.418,0.78,-5.71,-8.25,5.68,90.0,2720000000.0,-6.680839323306612,-1.5595468001938322,4.202266474896985,-0.310508313478,-0.17277580027561024,0.6577619915991846,-2.5132571270106516,-7.849317410584312,6.734647737576642,,,,,,,,,,1.0929151301586404,3.989469237464193,-1.1208960195416244,0.7033159076975414,0.8669964988047842,2.2133180868754643,,,,,,
49,49,49,49,2.77,-11.9,-1.52,2.12,0.0761,-0.069,0.92,-3.46,-11.9,9.19,90.0,2770000000.0,-8.730317031765594,-1.5426181929598597,3.2205788400287125,-0.005892753032609943,-0.10357097605775872,0.8479678376940175,-2.9306470158797966,-9.537754213819676,8.028943655977816,,,,,,,,,,0.8873134598263129,4.56899864439834,-1.9940075673824933,0.6480118045264281,0.5701295248098257,2.9977826767937628,,,,,,
50,50,50,50,2.82,-10.1,-5.24,6.25,0.425,-0.183,1.52,-1.72,-15.5,5.43,90.0,2820000000.0,-9.26816897232297,-3.1253376553691607,4.648803885169419,0.3336153143505092,-0.15653969726311992,1.3354045561582255,-2.396909920484265,-12.022983787142975,6.65895572609228,,,,,,,,,,0.12164484893127984,4.9395024477599865,-2.6166163382813488,1.202892463034287,0.6419352947941329,2.677145886374076,,,,,,
51,51,51,51,2.87,-7.02,-8.15,1.68,0.5489999999999999,-0.0941,0.87,-9.09,-11.4,6.81,90.0,2870000000.0,-8.385350286540817,-5.276219330147258,3.249156918333164,0.5033207555522132,-0.1149006224936889,0.9978384596965352,-5.347687956747417,-11.763306689775208,6.738576051679897,,,,,,,,,,0.08518121085961967,4.240174118527009,-2.9633425689842587,0.3060850188986193,0.7063793908865001,2.4040173375171867,,,,,,
52,52,52,52,2.92,-14.8,-4.35,3.52,0.546,-0.527,0.7290000000000001,-5.41,-11.7,6.49,90.0,2920000000.0,-10.904276941896756,-4.879737257568246,3.37684627708251,0.5369484937587776,-0.3897167657836176,0.8028451823780471,-5.375159356653169,-11.736918624391668,6.607543398952362,,,,,,,,,,0.2068197325187365,5.01991597228025,-3.6406751213091058,0.28063298044452994,0.6522662936192176,3.2189893634136437,,,,,,
53,53,53,53,2.97,-10.4,-4.22,2.56,0.174,0.277,0.202,-8.29,-11.0,1.5,90.0,2970000000.0,-10.706255598488932,-4.5973267712213985,2.991742875779954,0.25097492121854503,0.05489571979654606,0.3670416221996029,-6.660223107292079,-11.429750482696493,3.915190938881148,,,,,,,,,,0.7021243552632438,4.363241172835441,-3.886562499658767,0.19537019028566133,1.023000539272479,3.0649224343203536,,,,,,
54,54,54,54,3.02,-13.1,-3.31,-2.17,-1.52,0.0452,0.8740000000000001,-2.06,-11.6,3.3,90.0,3020000000.0,-11.64623948381792,-4.046267276066059,0.5582315970773459,-1.1444076781530372,0.04842994963634109,0.7347474482333259,-4.632125919741356,-11.500715367147794,3.5909037352851327,,,,,,,,,,0.8991223880614262,3.891618005252532,-3.8738990249386585,0.3060692917778053,0.5175739671467047,4.273159407358991,,,,,,
55,55,55,55,3.07,-6.83,-3.78,-0.129,-0.534,2.11,-1.75,-0.828,-7.49,5.12,90.0,3070000000.0,-9.75498206716397,-3.9322875754574067,0.2342352567789485,-0.6634566041446983,1.4232262213397475,-1.0674835232697084,-2.9550035748823738,-9.828937757350953,4.3969401133059085,,,,,,,,,,2.5599484435662543,2.730581515413012,-3.646144005796703,0.528978876576209,-0.1286680367676231,3.2108358681115203,,,,,,
56,56,56,56,3.12,-5.9,-0.113,1.36,0.0571,1.23,-0.7759999999999999,4.11,-5.23,6.22,90.0,3120000000.0,-8.241194566722832,-2.297384427500847,0.7649787013949039,-0.09571724856625097,1.2943697335663693,-0.8560654202173409,0.15973969704609647,-7.9119728278722725,5.357934239548034,,,,,,,,,,2.3374565519371213,2.769757909219808,-2.2897947269983354,0.9192245508591996,-0.4279627580712476,2.8105383471808927,,,,,,
57,57,57,57,3.17,-0.989,2.24,2.44,0.0834,-0.585,-0.8909999999999999,-10.0,-11.5,4.89,90.0,3170000000.0,-5.393378018613287,-0.35508918284568725,1.5546699741521963,0.0454124177176187,0.041077077137255065,-0.8814040648837788,-4.319377678123681,-9.407562167501302,5.111270792552173,,,,,,,,,,1.8962130417250116,2.5616569981056934,-1.3505793462992193,0.5322275674958522,1.3575427786539151,2.550909779166461,,,,,,
58,58,58,58,3.22,-15.5,-4.34,1.07,0.329,-0.6940000000000001,-0.00725,4.11,-4.49,7.74,90.0,3220000000.0,-9.362080891684554,-2.060889900044282,1.3261716293380204,0.2688561107436631,-0.4491227509866187,-0.2473647660025445,-0.6031237440828114,-7.357785634557756,6.496959445487425,,,,,,,,,,1.214475588188603,3.9604025281451407,-1.9114744158111243,0.4650825941517643,-0.0070317619486400034,3.664432651257018,,,,,,
59,59,59,59,3.27,-1.38,2.46,3.54,1.06,0.511,-0.905,-9.85,-17.4,5.47,90.0,3270000000.0,-6.22765007541557,-0.12565537222208345,2.369884240815913,0.8922123963047299,0.19115295274595068,-0.7243591325496603,-4.679787816944176,-11.54365922475035,5.955615566765496,,,,,,,,,,1.5525404393395636,3.2231374002252697,-1.9083389053497064,0.8525767518576671,1.4108509765237864,2.478286886190224,,,,,,
60,60,60,60,3.32,-15.7,-11.1,0.74,0.594,1.02,-1.48,-3.71,-8.16,7.16,90.0,3320000000.0,-9.947284753817438,-4.823387825896075,1.6014729315693372,0.6572455351139953,0.7438850134091238,-1.2724387412018503,-4.2522381532947415,-10.133256055846275,6.5904857435974975,,,,,,,,,,2.007055986363353,3.632351403130978,-3.7751633770136506,0.2290632770194249,0.022182424630311545,2.9167438697979797,,,,,,
61,61,61,61,3.37,-9.71,-2.08,2.35,-0.524,-0.21,-0.647,-2.02,-10.9,7.87,90.0,3370000000.0,-9.854106980417818,-3.649039619212696,1.9543670699011635,-0.2734788065937656,0.10776905045426743,-0.8187970464160116,-3.26811286253766,-10.452856059850523,7.2649593170404145,,,,,,,,,,1.9237589444941845,3.89981459215278,-3.230936765669437,0.4996450977317101,0.2472368246756909,3.4364973723714782,,,,,,
62,62,62,62,3.42,-8.46,-5.1,3.26,0.192,-0.484,-1.22,-2.26,-7.59,5.3,90.0,3420000000.0,-9.306664300029787,-4.270144862037234,2.569909623556748,0.0932802189798137,-0.2868631483999499,-1.1097966169695104,-2.8236668416663164,-9.259538236324417,6.22916536984982,,,,,,,,,,1.7478812632517329,3.812083311111644,-2.901731334844301,0.4335423176801723,0.34008468525616603,3.1338454408693823,,,,,,
63,63,63,63,3.47,-9.21,-2.33,0.804,0.368,-0.858,-1.27,-5.0,-11.5,6.31,90.0,3470000000.0,-9.26870584718925,-3.4396368149556573,1.7373689532329968,0.3097368173610119,-0.6677363703169746,-1.2259949309943698,-3.783145327762248,-10.193424901294293,6.2717759057349936,,,,,,,,,,1.5843614496973282,3.759310790703101,-2.8982732733416467,0.30842213808381896,0.6637094485336477,3.5736812608979287,,,,,,
64,64,64,64,3.52,-12.5,-6.59,2.23,0.355,-2.04,-0.526,0.939,-10.6,7.03,90.0,3520000000.0,-10.537581482551523,-4.788196941285626,1.969620591118307,0.3454004749313649,-1.5828558760088414,-0.7182763279708059,-1.7012963962592031,-10.362896849173758,6.6714606290750655,,,,,,,,,,0.719500941926803,4.424802452716915,-2.9468294318435837,0.4384855150282308,0.2671568412644737,4.172196701689232,,,,,,
65,65,65,65,3.57,-6.95,-5.79,3.69,0.841,-2.68,-0.0836,-0.736,-4.18,11.8,90.0,3570000000.0,-9.128797645541335,-5.217033701743073,2.780696011432654,0.7358921647406828,-2.314506890947224,-0.2579344381829805,-1.2757268459366655,-7.7856937153130055,9.37488085027955,,,,,,,,,,0.15990345169734452,4.846725601549621,-1.7885683065383005,-0.032469104093248616,0.1054514339657173,3.7131481341869312,,,,,,
66,66,66,66,3.62,-9.0,0.35200000000000004,9.05,0.588,-1.21,-0.311,-3.45,-11.8,5.18,90.0,3620000000.0,-9.07822094574529,-2.8331255664259407,5.736368653717089,0.6193652994090749,-1.5779459478441216,-0.2964238147144603,-2.234297160404738,-9.458968103333998,7.1636224512916336,,,,,,,,,,0.7392364078031304,5.205607532942711,-2.0069531641549103,0.8624084794337055,1.0477262304110395,2.958364220520652,,,,,,
67,67,67,67,3.67,-11.9,-7.38,3.0,-0.174,-1.76,0.0526,1.58,-11.3,3.06,90.0,3670000000.0,-10.186286642323012,-4.779483194967326,4.4463036420850495,-0.005741315830570803,-1.6993520731092704,-0.04327071087911677,-0.5526906048332625,-10.226361389878956,5.00046938669656,,,,,,,,,,0.35098463181562034,4.8063085108022126,-2.569374739952531,1.0158175325593006,0.583898292756088,3.566839100491045,,,,,,
68,68,68,68,3.72,-7.0,-6.63,2.12,-2.19,-2.48,0.403,2.42,-13.4,1.52,90.0,3720000000.0,-8.93508471005475,-5.571624628588965,3.3495643271372453,-1.7267575970715086,-2.21994167909779,0.2804172728782053,0.7578774685508864,-11.54922191319974,3.1658006164322385,,,,,,,,,,0.22684832621386175,3.798295768005547,-2.195566555763617,1.3236636181952957,0.7485492874936309,4.030306285780123,,,,,,
69,69,69,69,3.77,-5.99,-8.34,1.92,-1.77,-1.44,0.998,4.98,-11.9,-0.669,90.0,3770000000.0,-7.77859868731416,-6.756669160366273,2.67559411001192,-1.7608290398195314,-1.6998230984671063,0.8008926486593684,2.619281701342434,-11.695435799411971,1.144352310139209,,,,,,,,,,-0.24302516522000106,2.981945108171607,-1.977115286763764,1.6428259853886766,0.3497403167649262,3.5237688978414923,,,,,,
70,70,70,70,3.82,-3.07,-6.44,0.625,-2.34,-0.6459999999999999,1.45,4.99,-10.1,0.5529999999999999,90.0,3820000000.0,-5.92961003038818,-6.6211142163882615,1.7088385119342997,-2.2171680648117174,-0.9970615783080254,1.271701647451267,3.66445852817086,-11.03041402319002,0.8326312351519201,,,,,,,,,,-0.1838957062820199,2.0784594042935565,-1.3298102829530294,1.7375667024990655,0.05235943835450558,3.009246502532462,,,,,,
71,71,71,71,3.87,-2.59,-4.56,2.94,-1.86,-2.22,0.218,1.62,-13.4,0.765,90.0,3870000000.0,-4.618200512194531,-5.738823436783347,2.289271426586712,-1.9357490101855208,-1.812600835514011,0.5074333293315582,2.7631195206716317,-12.018123086058633,0.7969806010543837,,,,,,,,,,-0.08909364994524023,1.926448807752808,-0.9173503815432096,1.821378245795432,0.8068172371444913,2.9946673821839807,,,,,,
72,72,72,72,3.92,-5.79,-8.01,4.21,-1.49,-0.831,0.17600000000000002,-0.314,-11.5,2.36,90.0,3920000000.0,-5.078346726338865,-6.711034617977451,3.194801745116176,-1.5845354506713782,-1.1580020368740849,0.2670389128876901,1.40651197279228,-11.802154999154356,1.6208989729108845,,,,,,,,,,0.28023442353387257,2.19074186381005,-1.5111464346056291,1.631171215895183,0.6676185004526453,2.401470365938766,,,,,,
73,73,73,73,3.97,-7.49,-6.27,6.51,-0.902,-1.81,0.273,-2.22,-10.2,1.59,90.0,3970000000.0,-6.025362889137252,-6.522243147878539,4.757756928333912,-1.0467536468780367,-1.5927989702361822,0.2713625954666797,-0.192305851395328,-11.134332235424088,1.6046111356150918,,,,,,,,,,0.0700413906124887,3.0486323166314797,-1.6777153755040586,1.3901422160465298,1.0983026549880728,2.313654851880116,,,,,,
74,74,74,74,4.02,-8.82,-4.81,6.46,-0.0058,-0.934,0.672,-0.77,-9.23,-3.37,90.0,4020000000.0,-7.122770424547889,-5.789291844962668,5.560281936898999,-0.2265677684956945,-1.1534666307733297,0.561951936036432,-0.4469934605541568,-10.34055349897441,-1.0176683389955128,,,,,,,,,,-0.2338095915734369,3.4162640757625606,-1.9498090077826131,1.5135260169022988,1.2531742889356667,2.0344517364734376,,,,,,
75,75,75,75,4.07,-6.96,-3.63,1.78,-0.545,-0.991,1.06,0.34,-24.1,-3.13,90.0,4070000000.0,-7.058853192722068,-4.864974737119408,3.7780624646862986,-0.477466196062307,-1.045122733277054,0.9231949040837406,-0.10003219929698333,-16.075872962692042,-2.13114720894962,,,,,,,,,,-0.7010086891646714,2.857240963051899,-2.5887409584502232,2.3405712353070602,1.542370823567938,2.81118004568486,,,,,,
76,76,76,76,4.12,-6.13,-19.5,3.19,-2.26,2.37,-0.316,6.56,-10.9,-4.94,90.0,4120000000.0,-6.6941079902969065,-11.129716102534733,3.5008195809479368,-1.8819562520682809,1.2323153202445534,0.024385061792863368,2.836171539804464,-13.918425255235595,-3.611785019598708,,,,,,,,,,0.8202003226847544,1.1918349905143073,-3.729386142674241,2.4279129583906576,-0.28212642071504923,1.3169562389913527,,,,,,
77,77,77,77,4.17,0.103,-5.89,0.467,-0.117,-0.139,0.00313,0.812,-13.0,-6.1,90.0,4170000000.0,-4.024996386061481,-8.886777231067807,2.070520897389293,-0.4913158530231416,0.3178281878590836,0.008968392167543054,1.9437764303556404,-13.535600110641756,-4.923404117789988,,,,,,,,,,-0.12447855151518815,0.5255557151168295,-2.366678375963713,2.1391342141494416,0.5083080168662023,1.2784732216082664,,,,,,
78,78,78,78,4.22,-5.92,-8.46,-0.634,-1.38,0.516,-1.57,-0.746,-14.0,-4.2,90.0,4220000000.0,-4.769132913949539,-8.70408887308538,0.7954705555736208,-1.1915258824669197,0.4499827294605047,-1.1362851570182149,0.7579365695448181,-13.729174877645885,-4.5420741480666775,,,,,,,,,,1.01807115299153,0.10490102891486072,-2.9631900384623924,1.8587735210058915,0.5398613127766906,1.9179302082582224,,,,,,
79,79,79,79,4.27,-8.13,-10.3,1.08,-0.575,1.63,-1.64,5.92,-6.76,-6.13,90.0,4270000000.0,-6.088889736670933,-9.387242572353085,0.9296123993264868,-0.7057541733089882,1.2368991962535891,-1.5016383705578444,3.0337319180744986,-10.824229399063155,-5.3791216380313385,,,,,,,,,,1.4427129384439543,0.20413945506051304,-3.1879649857658543,1.887020890191889,-0.3499410370965581,1.6413279509966507,,,,,,
80,80,80,80,4.32,-1.82,-3.89,-0.845,-1.13,-0.397,-1.59,6.87,-7.79,-4.63,90.0,4320000000.0,-4.412567540611212,-7.034065747377353,0.09296876968299528,-1.0400249961478192,0.14730311021337128,-1.5657286367707357,4.725024709164743,-9.559478330416981,-4.984235286728937,,,,,,,,,,1.3155901575736233,-0.13365008529828698,-1.6732259008002075,1.9510889762905181,-0.0335549488738106,2.2099256380673875,,,,,,
81,81,81,81,4.37,-1.09,-6.09,0.836,-2.28,-0.157,-1.73,4.66,-8.75,-7.07,90.0,4370000000.0,-3.107850372381078,-6.629944355230276,0.4432719439584226,-2.017023316120117,-0.055627083604012806,-1.6848775559609457,4.696357243582046,-9.222065288777603,-6.083709883504728,,,,,,,,,,1.6728968740098824,-0.6734635854269873,-1.1439211323705818,2.0659973676383245,0.3929456962089308,2.067125219030796,,,,,,
82,82,82,82,4.42,-3.42,-8.4,-1.51,-1.45,0.213,-2.35,8.37,-8.12,-3.49,90.0,4420000000.0,-3.2304263853188218,-7.387642973981001,-0.4776009718225966,-1.5702556057157442,0.12351188433407992,-2.1673024790520734,6.3159535205051744,-8.762693832108793,-4.716480941050502,,,,,,,,,,1.8503613548702635,-0.8356695469396533,-1.214950003969937,2.046579041874685,-0.30713072183407936,2.1455072883549104,,,,,,
83,83,83,83,4.47,0.256,-9.31,1.88,-1.74,0.677,-3.06,3.66,-7.02,-6.23,90.0,4470000000.0,-1.8613645478516785,-8.210536818881524,0.6338934588912581,-1.7040002382035535,0.4926157221711167,-2.814791630698352,5.145025176706056,-8.036290652581117,-5.514306136998076,,,,,,,,,,2.462971130804748,-1.3393657060550874,-1.1583192383481815,1.9566376569927075,-0.01558556735680458,1.2236822362050082,,,,,,
84,84,84,84,4.52,-4.41,-9.87,-1.44,-1.03,1.15,-2.91,6.3,-10.7,-2.77,90.0,4520000000.0,-2.8621713707846657,-8.920894794454131,-0.3438466783347417,-1.1729434495700113,0.9310046419593584,-2.8838479956462075,5.6542182079731385,-9.146598581561047,-4.067692989862923,,,,,,,,,,2.4177597195513196,-1.1958639201547383,-1.8116184631673824,1.9748936240327757,-0.6245156079983872,1.44850924171575,,,,,,
85,85,85,85,4.57,-1.59,-14.5,1.6,-0.986,0.7090000000000001,-1.43,2.98,-10.3,-1.99,90.0,4570000000.0,-2.3626107805992578,-11.309114188365015,0.5725826978927285,-1.0256473844002434,0.7829567105570014,-1.8293464679336264,4.475237494680052,-9.627368394117504,-2.972473356878252,,,,,,,,,,1.4473115597507682,-0.8281473064423985,-1.8953041253084408,1.666788454120757,-0.6982889097870889,0.8204622511557537,,,,,,
86,86,86,86,4.62,-4.87,-14.7,1.92,0.201,1.2,-0.975,7.13,-14.4,0.7979999999999999,90.0,4620000000.0,-3.3472209068203123,-12.760633473987609,1.207824539225545,-0.05915010616667915,1.0610698186197818,-1.2096739845066165,5.645640844736294,-11.616733590864206,-0.9849340711521783,,,,,,,,,,0.6711044439574494,-0.0560545602160053,-2.5171539957720634,2.0064171616706843,-1.3363075807593805,0.5985541929021544,,,,,,
87,87,87,87,4.67,-0.8140000000000001,-18.6,4.8,2.16,-0.28800000000000003,0.784,11.1,-10.6,-14.2,90.0,4670000000.0,-2.3524670644480272,-15.260261780467221,2.901361014054573,1.6893577691028008,0.16141752016318578,0.2363727626424501,8.050300540742958,-11.192930961656284,-7.95102558929947,,,,,,,,,,-2.0416066233963424,-0.1148165754236768,-1.9042417252147108,2.495182656101884,-1.0480881191586036,-0.4127609575548004,,,,,,
88,88,88,88,4.72,3.26,-13.5,-9.11,2.99,-1.75,1.19,7.36,-15.7,-4.28,90.0,4720000000.0,-0.14854431292269155,-14.506755408460991,-2.7614125754452257,2.7141569055055457,-1.1132468132864517,0.9280553909035688,7.745968280241919,-13.071602386951149,-6.015908559557915,,,,,,,,,,-3.761569173135556,-1.1886894704155735,-0.8837993165100974,1.7292867848371891,-1.1720375017985412,0.911814727075581,,,,,,
89,89,89,89,4.77,-0.345,-17.5,1.49,2.22,-0.9,1.41,7.78,-12.3,-6.48,90.0,4770000000.0,-0.2256892033163128,-15.788058506514492,-0.7570778822937503,2.3248019199863608,-0.9710391926901972,1.2776182575539106,7.760971913364121,-12.749977169600553,-6.260546281673224,,,,,,,,,,-3.7906532867430753,-0.8218862494350543,-1.012880751087782,1.8838926446873143,-1.1474265255679728,0.2786042061898429,,,,,,
90,90,90,90,4.82,0.292,-12.9,-0.175,1.84,-1.16,1.66,8.45,-6.65,-7.4,90.0,4820000000.0,-0.022401238721272254,-14.551781721451473,-0.4826564103123769,1.9428178975727144,-1.097051200224051,1.5549664280923992,8.064743162681093,-10.207337371587403,-6.861189494820738,,,,,,,,,,-3.6734162565328012,-0.7564024751943724,-0.2918702595892062,1.7078735681761636,-1.0236387716556343,0.28049981573685495,,,,,,
91,91,91,91,4.87,1.37,-6.14,-0.627,1.47,-1.52,1.36,8.69,-4.22,-7.57,90.0,4870000000.0,0.5243716420377582,-10.950992737689765,-0.5507073950502234,1.5702762956431329,-1.3791024632005535,1.413553863374745,8.34039952475114,-7.7116488413955855,-7.234826686020732,,,,,,,,,,-3.1384433349751206,-0.7645088570361863,0.8410178056134227,1.6710384244183107,-0.5415141935582104,0.6305519043625126,,,,,,
92,92,92,92,4.92,2.21,-3.0,-0.311,0.893,-1.56,0.77,7.6,-5.27,-8.42,90.0,4920000000.0,1.186289963598575,-7.5474514246276465,-0.4376969874441419,1.0366382709329,-1.4997373128856102,0.94677292770908,8.013980059102192,-6.693901808931106,-7.859570176906692,,,,,,,,,,-2.3313080737061687,-0.9518342278595892,1.5983891720416072,1.8165276126898853,0.13282261172693016,0.9104380318606918,,,,,,
93,93,93,93,4.97,1.72,-3.64,-0.747,0.451,-1.36,0.406,7.4,-6.58,-8.01,90.0,4970000000.0,1.3958690566229068,-5.8748084686837405,-0.5835183360705507,0.5752034731784902,-1.4065508956459305,0.5545408155017795,7.743295139451145,-6.646424340914828,-7.938866756273397,,,,,,,,,,-1.6890506401147585,-1.1386919344055026,1.7863098491365557,1.9307899944282785,0.4299126536885996,1.127627123312051,,,,,,
94,94,94,94,5.02,1.93,-4.93,-0.0383,-0.691,-0.49,0.224,3.71,-12.0,2.85,90.0,5020000000.0,1.6056134010056509,-5.470369004777626,-0.3264743526364349,-0.4224607344312452,-0.7953318856751004,0.314793760723292,5.965139132886216,-8.87794330677516,-2.251703784378029,,,,,,,,,,-0.5456026576054902,-0.8147017169086436,1.3374900329223287,1.892439710267961,0.3038595981776493,1.1294079333251226,,,,,,
95,95,95,95,5.07,-1.82,-10.9,10.9,-1.06,0.00122,-0.348,-0.716,-17.1,-0.929,90.0,5070000000.0,0.2604317983091655,-7.794603564944447,4.966263252191181,-0.9247892071096674,-0.2641364416282081,-0.16594218936169847,3.0196299603846843,-12.305124964221342,-1.5544635544416625,,,,,,,,,,0.26582627370139483,0.4181364296046995,-0.3721891586492741,2.490523997456933,0.9987214607280582,-0.06828575266860511,,,,,,
96,96,96,96,5.12,-5.95,-15.9,7.27,1.09,-0.926,0.36,7.53,-6.04,-5.88,90.0,5120000000.0,-2.178301718130411,-11.264239525789973,6.052363308817678,0.6626990425392466,-0.7055124682427095,0.2155329297063701,5.00811375574375,-9.693646924764677,-3.834594742525297,,,,,,,,,,-1.0681864221319497,1.3465840899539934,-0.9316851443146382,2.237031027137799,0.1899637255566834,-0.2868990091977047,,,,,,
97,97,97,97,5.17,2.84,-4.22,2.54,0.695,-0.7979999999999999,0.664,8.43,-14.6,-0.516,90.0,5170000000.0,-0.2076978761419055,-8.248847391726859,4.39645446192209,0.6881495353433118,-0.7671894848113383,0.5408139552731444,6.516718499217348,-11.738751260456956,-2.0852553646107723,,,,,,,,,,-1.2347148938449133,0.8252425789096007,0.06750746510827887,2.759645448079696,0.2938164333767281,0.100734533068863,,,,,,
98,98,98,98,5.22,3.32,-12.9,7.68,-0.518,1.59,-0.467,5.02,-12.8,-10.3,90.0,5220000000.0,1.1775705604550786,-10.239842639682015,5.944486736581537,-0.2621971246431234,0.8047461986920406,-0.19017121537169449,5.8568612468741605,-12.181109278017654,-6.41551488741953,,,,,,,,,,-0.07278139080895782,-0.4949722363307948,-0.620810897308978,3.255997284374818,0.5248840756451911,-1.4326876452965207,,,,,,
99,99,99,99,5.27,-0.601,-11.2,-2.48,-0.317,1.29,0.298,7.17,-7.15,-11.2,90.0,5270000000.0,0.4791553877333106,-10.650852270997373,1.9727501105005616,-0.3053772854148471,1.1283466983467263,0.1639079481039758,6.4357838494457935,-10.084003292162112,-8.937572703344669,,,,,,,,,,-0.43935676293159465,-1.492344643486242,-0.6547426489393149,2.5934934320663623,-0.1328581977258178,-0.6210680061036539,,,,,,
100,100,100,100,5.32,1.05,-6.04,-3.59,-1.58,1.32,-0.812,3.17,-16.0,-9.54,90.0,5320000000.0,0.7033165830080463,-8.67710800530201,-0.6498165402076852,-1.3096752087930608,1.2561543030626448,-0.5439352125964508,4.996000028397215,-12.549954965620568,-9.255131730212971,,,,,,,,,,0.4403627579125721,-2.444477376281456,-0.9730805142217891,2.6200777601288694,0.31747328570827776,0.4137162836104248,,,,,,
101,101,101,101,5.37,-3.65,-16.0,-2.49,-2.2,1.85,-1.08,7.44,-6.93,-4.56,90.0,5370000000.0,-1.0061586937636362,-11.811781404876552,-1.5173737334025017,-2.0111779723113705,1.6521713699064868,-0.9327524505902524,6.07348462155076,-10.207401637762695,-6.780174861349592,,,,,,,,,,1.1201878701639842,-2.336070950706384,-1.6757849644688612,2.021583152513779,-0.963657027860617,0.6629807704581228,,,,,,
102,102,102,102,5.42,0.14400000000000002,-7.98,1.91,-2.46,1.19,-0.7490000000000001,6.17,-5.71,-6.84,90.0,5420000000.0,-0.5545104480656402,-10.171530095454212,0.098466619900206,-2.364812854501084,1.3439638317783522,-0.7994735797030782,6.1160353229666935,-8.332759789822871,-6.811710720657798,,,,,,,,,,1.3519705961407702,-1.9402677277383948,-0.8894972613662631,2.077988432142387,-0.5243503464545827,0.4399449660337157,,,,,,
103,103,103,103,5.47,-1.21,-7.81,-0.737,-1.97,0.184,-0.917,7.64,-4.83,-4.79,90.0,5470000000.0,-0.8119103413450316,-9.160641807433274,-0.29541533693774497,-2.0537328123223184,0.5704203707571548,-0.884717553711486,6.787904511505334,-6.87271223061274,-5.7460011397784765,,,,,,,,,,1.1489210243288008,-1.5694874072638212,-0.31479246515774034,1.8382779715532027,-0.5519198684068396,0.9781077163357624,,,,,,
104,104,104,104,5.52,0.242,-7.68,0.989,-1.47,0.445,-0.698,6.54,-6.9,-5.94,90.0,5520000000.0,-0.3980572258179501,-8.526830871873678,0.31012416639204576,-1.5937993778687864,0.4867814584196576,-0.7492880421369269,6.678611005092554,-6.884086570234631,-5.848264287015407,,,,,,,,,,0.905717356956374,-1.3953954690224142,-0.052987816740207916,1.9346142408757585,-0.3421780599566168,0.7305763233771285,,,,,,
105,105,105,105,5.57,-0.84,-10.4,-0.539,-1.14,0.407,-1.0,5.85,-5.93,-3.54,90.0,5570000000.0,-0.5716008150385847,-9.328668758778221,-0.09019665423370282,-1.2362427717995066,0.4335777121112267,-0.9311338292040416,6.313301805447612,-6.48639672793199,-4.631502989280711,,,,,,,,,,0.8713813532879972,-1.3056097788951386,-0.19542061353917276,1.616324105718474,-0.5963309359602964,0.7397780607051547,,,,,,
106,106,106,106,5.62,-1.49,-10.1,1.46,-0.8290000000000001,0.659,-0.703,4.84,-8.91,-4.09,90.0,5620000000.0,-0.9322409506391718,-9.658848791701326,0.6406458480261505,-0.9153689513272047,0.583904744886457,-0.7656643620340906,5.663768330282988,-7.496621794548933,-4.34605920924264,,,,,,,,,,0.6938757288760432,-0.9634066891726274,-0.5602840353114397,1.712000518216621,-0.5207072414107222,0.5222715384227659,,,,,,
107,107,107,107,5.67,-2.51,-13.4,0.611,-0.251,0.418,-0.399,3.69,-8.75,-3.44,90.0,5670000000.0,-1.5518007645805711,-11.260304335378326,0.6266692702060193,-0.3919008371902656,0.4732680876835453,-0.4997162514365291,4.79359448429325,-8.019064628080866,-3.8684459230946806,,,,,,,,,,0.14324494750421748,-0.6478978682912362,-1.0432756565794354,1.430213786318507,-0.6834944291666022,0.46037147750840096,,,,,,
108,108,108,108,5.72,-3.76,-13.3,1.06,0.345,0.629,0.116,4.94,-7.83,-1.75,90.0,5720000000.0,-2.41892398618858,-12.133426640833314,0.8309636507876339,0.18871642777987274,0.577120816063616,-0.0531264409630155,4.858140207419464,-7.940257210299968,-2.751744086798645,,,,,,,,,,-0.3283703496023033,-0.09608616220954214,-1.3422748873370476,1.292864357180847,-1.0632685057155464,0.3834961075208164,,,,,,
109,109,109,109,5.77,-2.79,-11.8,2.79,1.77,0.177,1.08,12.2,-11.8,-5.73,90.0,5770000000.0,-2.5646393689801257,-11.990698463960712,1.7545541903843709,1.4346378420589323,0.3102928067148553,0.7687501023967136,8.094940744567598,-9.549105242468917,-4.321679779880878,,,,,,,,,,-1.6951274118043749,0.3678824353649152,-1.1120937101725648,2.1965306582475,-1.2600938393464038,0.21294199108534972,,,,,,
110,110,110,110,5.82,4.43,-14.7,-0.462,3.02,-1.37,1.19,8.11,-15.3,-7.03,90.0,5820000000.0,0.1820394649191277,-13.150455410356527,0.7095564633745866,2.6837728465126203,-0.8102417148932909,1.074290094345351,8.101579756677435,-11.946237918822801,-5.749323678838644,,,,,,,,,,-3.356188948704713,-0.4047012754465955,-0.4232978529039895,2.235585484782772,-0.7940168582486034,-0.0453597776415688,,,,,,
111,111,111,111,5.87,0.67,-17.0,-0.8859999999999999,2.14,-0.991,1.08,5.76,-13.2,-6.52,90.0,5870000000.0,0.3736534826712801,-14.798310524752376,-0.04267095882407068,2.255324639407055,-0.930783737929012,1.0784316203446425,7.069249218588894,-12.46884068291133,-6.155572255849358,,,,,,,,,,-3.4621302470928508,-0.8110600370014875,-0.7451189917188656,1.9209757923199515,-0.7911813311786553,0.026392833091868143,,,,,,
112,112,112,112,5.92,-1.59,-13.8,0.177,2.18,-0.8959999999999999,1.66,6.67,-8.41,-7.75,90.0,5920000000.0,-0.3974406935249065,-14.370968860990185,0.060893237122161936,2.195975069939189,-0.9075875736155442,1.5002533577815769,6.893232526862542,-10.777003137204044,-6.996047044619687,,,,,,,,,,-3.6078342776161367,-0.5276006421423092,-0.6331171973077049,1.6973290558354424,-0.8008938475972968,0.12983889984564467,,,,,,
113,113,113,113,5.97,-0.199,-7.77,-0.785,1.69,-1.09,1.25,7.44,-5.09,-8.1,90.0,5970000000.0,-0.3195163239193024,-11.545325443780627,-0.3379043814437428,1.7973083651714552,-1.0292327160211316,1.318740201409382,7.134285547750161,-8.406502405129983,-7.5779768002986465,,,,,,,,,,-3.0567145463191467,-0.5960125289766615,0.1564876399592107,1.5895024791432333,-0.5127491025731296,0.5356554233749126,,,,,,
114,114,114,114,6.02,1.14,-3.69,-0.711,0.989,-1.68,0.746,7.64,-5.6,-8.89,90.0,6020000000.0,0.25361153046448603,-8.182735970648803,-0.5138008694559911,1.1604278565610902,-1.4632089512782676,0.9033216666411564,7.357239467778113,-7.236674246081492,-8.269587137756936,,,,,,,,,,-2.4041173326002543,-0.7798515425604258,1.051666008236336,1.7274966410701662,0.11654312072991635,1.0721563188271612,,,,,,
115,115,115,115,6.07,2.03,-3.78,-1.06,0.488,-1.71,0.467,7.12,-6.15,-9.8,90.0,6070000000.0,0.9511698167222108,-6.29807900285261,-0.7713072229670138,0.6306100022313497,-1.6277861788731849,0.5868499028940255,7.25264781814124,-6.7837182907634,-9.076317698079807,,,,,,,,,,-1.9265407343632948,-1.139470045388761,1.570829710113164,1.8200836619170495,0.5658531260789773,1.3075937264464474,,,,,,
116,116,116,116,6.12,2.09,-4.22,-1.6,-0.418,-0.952,0.35600000000000004,5.23,-9.78,-3.97,90.0,6120000000.0,1.3983695129216132,-5.40852612745126,-1.1619956582945303,-0.1956084645016608,-1.1771256077515038,0.41941041769078174,6.360924489512322,-8.032651581543602,-6.384611359936607,,,,,,,,,,-1.116197695976587,-1.2693412397266368,1.4754108160907895,1.8514849423815705,0.5711974252661498,1.4201433903248732,,,,,,
117,117,117,117,6.17,0.314,-8.27,4.38,-1.41,0.197,-0.225,-0.6779999999999999,-16.1,3.71,90.0,6170000000.0,0.9725555893677942,-6.633422995149174,1.450786369926236,-1.1524491113285136,-0.26076438397222,-0.04799177370905144,3.257678756450475,-11.395346534905304,-1.0634129464942603,,,,,,,,,,0.24629167785188655,-0.4675826526011937,0.1824943611968365,1.9986335999147573,0.6785852045005931,0.7207104431378557,,,,,,
118,118,118,118,6.22,-5.5,-15.1,12.2,-0.239,-0.701,-0.35100000000000003,2.13,-11.7,-3.79,90.0,6220000000.0,-1.5691096684152903,-10.257668025330444,6.5185187976525905,-0.43272631676568,-0.5543436781553936,-0.2677689708626487,2.760519857733668,-11.522334477737813,-2.5006857575104418,,,,,,,,,,-0.08780255469556196,1.1769652014568202,-1.1556400461267642,2.299158901586465,0.8241203426510701,-0.2417686071950607,,,,,,
119,119,119,119,6.27,-2.49,-10.4,4.76,0.513,-0.527,0.75,9.11,-8.98,-7.24,90.0,6270000000.0,-1.930728035988867,-10.318595191734863,5.689462641496612,0.31242826478885977,-0.5361090443517457,0.470436741926232,5.559810601275703,-10.46261869385547,-4.9989325166479155,,,,,,,,,,-1.085533305051182,1.0613296462977189,-0.8072490487245133,2.5616718312287072,0.3321994706185836,-0.14895422312491827,,,,,,
120,120,120,120,6.32,4.36,-7.47,1.21,-0.3,1.47,0.0807,4.45,-19.7,-7.1,90.0,6320000000.0,0.5395366089140221,-9.099211342043644,3.577613433004328,-0.1701148585771915,0.8017021127292222,0.1877538387496961,5.070529089162674,-14.313015997399232,-6.106473561130509,,,,,,,,,,-0.4384830658828453,-0.6588035767788866,-0.9586989866078888,3.1679094638423955,0.5512095770184305,-0.5110479712320171,,,,,,
121,121,121,121,6.37,-0.965,-18.3,0.958,0.8490000000000001,0.9,-0.177,9.33,-5.49,-11.5,90.0,6370000000.0,-0.05126996021970598,-13.037746157321415,2.342592843292071,0.6328638322893103,0.8672538716962795,-0.07680852857270742,6.948399033958527,-10.635337881161664,-8.949576994990307,,,,,,,,,,-0.9942000397152156,-1.2596724861626147,-1.1763971248451028,2.5534111279975837,-0.485955675988026,-0.8344914275793602,,,,,,
122,122,122,122,6.42,3.9,-4.13,-3.39,-1.24,0.737,-0.648,6.05,-16.2,-9.24,90.0,6420000000.0,1.5003282741626107,-9.22465228798674,-0.3600465025981765,-0.8427988734389884,0.7803916464728895,-0.4911037377836333,6.552322560691646,-12.954843861848245,-9.10266829832195,,,,,,,,,,-0.10158222870586077,-2.462068662465876,-0.5741740408210251,2.8727279151421974,0.20844727474629926,0.26514593081722665,,,,,,
123,123,123,123,6.47,-0.381,-15.9,-1.84,-1.83,2.43,-1.2,4.98,-8.35,-6.7,90.0,6470000000.0,0.7615618506368206,-12.082134512922757,-1.0577727633882257,-1.620632219523162,1.8804637109557432,-1.0052786838911427,5.8591338151590575,-11.03541725510091,-7.83614349139137,,,,,,,,,,0.9530672099857366,-2.883317697277428,-1.412662319729732,2.248920368155878,-0.6914716948666856,-0.1091573776951183,,,,,,
124,124,124,124,6.52,-2.12,-9.14,0.0192,-2.32,1.34,-0.8059999999999999,6.19,-5.29,-6.29,90.0,6520000000.0,-0.3699796636727689,-10.822709995109037,-0.5500323754777809,-2.171676470407036,1.5200454527440088,-0.8607383497671317,6.005002585212806,-8.640567817434523,-7.021120884587951,,,,,,,,,,1.2660654468385957,-2.226237223006624,-1.057375010743704,1.9937669072739497,-0.6752072861706937,0.3696942853266827,,,,,,
125,125,125,125,6.57,-1.07,-7.16,0.0263,-1.98,0.203,-1.01,6.83,-5.99,-5.96,90.0,6570000000.0,-0.6448660632307504,-9.254832156865591,-0.2783196324965728,-2.0206511879051945,0.6417491862919089,-0.9690004397075714,6.368718588132478,-7.5357374680920675,-6.46176952950515,,,,,,,,,,1.145766087953375,-1.7324054119994572,-0.46311890383924204,1.908722974530512,-0.3905059382987477,0.8933032958835208,,,,,,
126,126,126,126,6.62,-0.362,-8.72,0.127,-1.7,0.128,-0.718,6.56,-6.5,-5.31,90.0,6620000000.0,-0.533789245939677,-9.025889370391424,-0.08723109589538253,-1.7680044558754144,0.29914598764611106,-0.7869454078867018,6.453048665938977,-7.1040133362443525,-5.8546342713119515,,,,,,,,,,0.8519619690303677,-1.4749254750655512,-0.17204637676979762,1.8154600468681168,-0.3526121240271904,0.9322925939686878,,,,,,
127,127,127,127,6.67,-0.503,-9.84,0.5429999999999999,-1.26,0.326,-1.1,5.18,-5.56,-3.37,90.0,6670000000.0,-0.5216988278178915,-9.374381662112484,0.20989226970350394,-1.36773870926286,0.3170540887168665,-1.0140094199848,5.89180051018226,-6.460425687452653,-4.544902570895782,,,,,,,,,,0.9572043411995188,-1.2532927924215458,-0.19582111118512727,1.5667448362294776,-0.4606434691015739,0.7186018291283521,,,,,,
128,128,128,128,6.72,-1.85,-9.72,2.05,-0.826,0.522,-0.818,4.83,-6.81,-4.78,90.0,6720000000.0,-1.0433006827871425,-9.52232887313426,1.077413733139874,-0.9408931328546,0.4537260923399513,-0.8718403580390229,5.423685223996945,-6.606137942292023,-4.6688301926587235,,,,,,,,,,0.7908873279550812,-0.8464933327602187,-0.4526143048114655,1.607505175694417,-0.4017042449119263,0.4739315693590206,,,,,,
129,129,129,129,6.77,-2.22,-11.4,0.306,-0.399,0.574,-0.406,5.54,-8.16,-2.37,90.0,6770000000.0,-1.5053710049095896,-10.326093907906555,0.713729595534303,-0.5139258942495197,0.5339329858821875,-0.5339581548857409,5.474964821590471,-7.253830724165561,-3.45704187307724,,,,,,,,,,0.3790078818042023,-0.581232929831332,-0.7372896714681152,1.51553338392765,-0.7450412812245361,0.5162268909572368,,,,,,
130,130,130,130,6.82,-1.62,-12.8,2.47,0.122,0.731,0.008020000000000001,2.72,-9.23,-2.14,90.0,6820000000.0,-1.5503839124779808,-11.385086478524425,1.5417258648225671,-0.012868579341366648,0.6653507946273126,-0.14085187899904844,4.260385409107437,-8.077552751850567,-2.762786265717228,,,,,,,,,,-0.06299596339497393,-0.20417034737075312,-1.073491888501647,1.4068238713500043,-0.7051317566785958,0.05258973238235472,,,,,,
131,131,131,131,6.87,-4.72,-13.5,2.59,1.36,0.7559999999999999,0.871,10.0,-9.57,0.335,90.0,6870000000.0,-2.7950395119039495,-12.29040683050695,2.0359362015135134,1.0688389843726696,0.7258018919079215,0.5930620572413976,6.790805302475323,-8.699646072439798,-1.1298422368018648,,,,,,,,,,-0.991404717903227,0.6893912596515616,-1.3021613094017208,1.7750809353770796,-1.524886709477718,0.032749517487541104,,,,,,
132,132,132,132,6.92,2.38,-12.8,5.54,3.05,-0.918,1.5,7.95,-17.1,-10.2,90.0,6920000000.0,-0.7628872585439677,-12.508545887052207,3.68793219613258,2.6298309204380885,-0.3703979696545673,1.2508800784785057,7.30185857858172,-12.2011469672175,-5.911017675950161,,,,,,,,,,-3.019930319926635,0.5165713033982705,-0.8090880598293747,2.6406872224385625,-0.4117361828928213,-0.6517258263858199,,,,,,
133,133,133,133,6.97,0.752,-19.1,-3.84,2.27,-2.09,0.723,7.26,-13.2,-6.6,90.0,6970000000.0,-0.16801616073858272,-15.330116529240653,0.13887757140222678,2.3463137282397017,-1.517146517934303,0.8679993775056059,7.283404517057762,-12.617496562903176,-6.274202646384071,,,,,,,,,,-3.6507369014260713,-0.5745981083102095,-0.8601200360286438,1.8877354283276608,-0.7357708189178201,0.34254095887108416,,,,,,
134,134,134,134,7.02,0.204,-14.1,0.153,2.3,-0.873,1.23,6.28,-10.1,-7.41,90.0,7020000000.0,-0.021931584355705275,-14.803546921277508,0.1455356097106268,2.3098222810958404,-1.0875854458798104,1.130564801770945,6.841034357886484,-11.568134261313947,-6.872918339912407,,,,,,,,,,-3.5576720311572565,-0.6668625539548059,-0.7152466195646433,1.7723287864767896,-0.7140761750948286,0.0808661911153744,,,,,,
135,135,135,135,7.07,-0.63,-9.86,-0.46,1.73,-0.348,1.33,7.38,-5.1,-7.68,90.0,7070000000.0,-0.260709966856961,-12.687387605927524,-0.13994504476512798,1.852970016179896,-0.5943791253241053,1.2752186854705416,7.078647816182702,-8.87203628683724,-7.298357276229223,,,,,,,,,,-2.9637283769393803,-0.7023313370147677,-0.198195794511646,1.6278701863016851,-0.7545766266252072,0.1657578301606792,,,,,,
136,136,136,136,7.12,0.831,-3.97,-0.469,1.11,-1.43,0.969,7.25,-3.98,-8.29,90.0,7120000000.0,0.1679864237545467,-8.955779523740445,-0.295078491110966,1.2675707475536575,-1.1516284165650958,1.0531128806908925,7.154191734304197,-6.832899752983364,-7.821084430089238,,,,,,,,,,-2.4216356899224403,-0.7043287432925649,0.8986990192504578,1.6053482111762352,-0.10665479408103436,0.7675682466204321,,,,,,
137,137,137,137,7.17,1.37,-2.33,-0.625,0.594,-1.6,0.5329999999999999,7.49,-5.57,-9.28,90.0,7170000000.0,0.6399972262982572,-6.119515506913574,-0.4506204699391578,0.7368523705017126,-1.4506333644104954,0.6758658664419422,7.302239189973992,-6.306488145646771,-8.590126197909644,,,,,,,,,,-1.8590921587965483,-0.9039182276483958,1.5504794345243302,1.8018000603810345,0.4560096978402468,1.2135380823938575,,,,,,
138,138,138,138,7.22,2.13,-3.77,-1.26,-0.418,-0.922,0.374,6.36,-8.21,-5.47,90.0,7220000000.0,1.225096654568839,-5.113770259471512,-0.8322036309438992,-0.17307634634321578,-1.0981043645840447,0.4569172602465445,6.886834912384205,-7.0999247495820095,-6.945405957005618,,,,,,,,,,-1.064904987530212,-1.1920336380335297,1.617896514196044,1.9014173565807269,0.5231270959745247,1.3371155521793692,,,,,,
139,139,139,139,7.27,1.14,-6.86,2.72,-1.62,0.113,-0.228,-0.598,-18.1,6.86,90.0,7270000000.0,1.1916806036993364,-5.861270064148122,0.8424879897034461,-1.313133211711575,-0.29045688891296995,-0.03986526001555374,3.5870009539184338,-11.68506166770864,0.3318731861765354,,,,,,,,,,0.3853168643628859,-0.491126913476125,0.38911925744488296,2.0196172163791184,0.5798714658515763,0.9850575246482648,,,,,,
140,140,140,140,7.32,-5.73,-17.5,15.2,-0.378,-0.762,-0.386,3.19,-11.3,-4.97,90.0,7320000000.0,-1.526348607709943,-10.843402418573413,7.611357976336821,-0.5763251279574534,-0.6049142013756996,-0.29092287252136456,3.4119754446649937,-11.524557353656226,-2.4629167227722366,,,,,,,,,,-0.046562517908596966,1.3541879884094985,-1.1536079393074472,2.5138752276927754,0.7917673462633683,-0.5094462553566187,,,,,,
141,141,141,141,7.37,-1.67,-10.2,3.48,0.95,-1.02,0.954,11.6,-8.05,-5.74,90.0,7370000000.0,-1.5827581107104465,-10.567984312437778,5.663623213349703,0.6262935569948228,-0.8817218757504697,0.6120415525797882,7.021824304614492,-10.076265464128726,-4.190373920469584,,,,,,,,,,-1.4638411216363625,1.1731586641326408,-0.4056734791359199,2.6390206839339387,0.061159636420689376,-0.13487430998121167,,,,,,
142,142,142,142,7.42,6.56,-6.59,2.55,-0.269,1.86,-0.18600000000000005,4.65,-14.8,-9.02,90.0,7420000000.0,1.6147679609212402,-8.86514871977319,4.19570096427465,-0.0791241429381857,0.946646373795353,0.033207992824067056,5.976159814846548,-12.045249243077686,-6.7362273519991325,,,,,,,,,,-0.23267318222472586,-0.9223484860934978,-0.27155231240122923,3.1532003112948463,0.4893564436807473,-1.0961643980828149,,,,,,
143,143,143,143,7.47,-1.16,-14.1,-0.907,-0.311,1.51,-0.21600000000000005,9.88,-7.47,-9.99,90.0,7470000000.0,0.5251626045098089,-11.106005237460431,1.7900251147664563,-0.26182324337624474,1.3223292137355926,-0.14754694604530588,7.697243173004341,-10.138158248607278,-8.451396757886876,,,,,,,,,,-0.2159608736769248,-1.648162580980916,-0.7177766067480985,2.7714510752019037,-0.5029276932458001,-0.6711214796699236,,,,,,
144,144,144,144,7.52,3.82,-6.75,-2.31,-1.48,1.06,-0.898,3.77,-13.3,-9.05,90.0,7520000000.0,1.8189905914403048,-9.241352070902598,-0.14293770673412265,-1.221646374527134,1.147390059008698,-0.6918637299885999,5.9658421979117024,-11.456101752205033,-8.766940121721225,,,,,,,,,,0.4568575219092399,-2.625583974595617,-0.4522171540119832,2.6301958981671443,0.16084022722333652,-0.048063529391660614,,,,,,
145,145,145,145,7.57,-2.97,-13.6,-1.93,-1.93,2.18,-1.12,5.11,-7.84,-5.7,90.0,7570000000.0,-0.061566618269255365,-11.107136644419146,-0.9854508189022956,-1.7797707436521126,1.8360052534157263,-1.0023984907670649,5.588527702132084,-9.948810211768961,-7.150256003711298,,,,,,,,,,1.2185168933062442,-2.4912314146219336,-1.3596839493057602,2.0799057885563523,-0.6881734721211208,0.2008308143839036,,,,,,
146,146,146,146,7.62,-2.22,-9.19,0.6729999999999999,-2.22,1.35,-0.677,6.98,-6.0,-5.23,90.0,7620000000.0,-0.9091476292865374,-10.28647746191,-0.203571760400768,-2.126635221076556,1.5119036244032833,-0.7663812394043704,6.2019851348743895,-8.302836484809216,-6.138026538315756,,,,,,,,,,1.3292846025890204,-1.8262361046664397,-1.0366187910460445,2.0108332572647143,-0.7512407138510965,0.4841643036615007,,,,,,
147,147,147,147,7.67,-0.491,-8.3,0.6970000000000001,-1.76,0.184,-0.899,7.01,-5.15,-5.69,90.0,7670000000.0,-0.7449479873071807,-9.436136167060829,0.2210041283147996,-1.8377568069924688,0.6263663883079449,-0.8625719481028346,6.5582141874770326,-6.98864674559178,-5.901857189504859,,,,,,,,,,1.0600160668367848,-1.4731761500377123,-0.3847982912170837,1.8711364730200173,-0.4950188383021675,0.7339213985168009,,,,,,
148,148,148,148,7.72,-0.414,-8.18,-0.0503,-1.36,0.401,-0.758,7.24,-5.48,-5.01,90.0,7720000000.0,-0.6149902019557483,-8.898428431462158,0.0930974002225856,-1.4613237392849372,0.4760766149238546,-0.7867240889826929,6.858792523624281,-6.359800905467057,-5.431730340958148,,,,,,,,,,0.8802664660803576,-1.337740485699842,-0.08042646684469701,1.797520479868308,-0.5416345304685218,0.7676110146598829,,,,,,
149,149,149,149,7.77,-0.184,-9.13,0.261,-1.08,0.484,-0.852,7.24,-6.15,-4.64,90.0,7770000000.0,-0.44574749608447023,-8.997556152484645,0.17225533041430224,-1.1608720219863486,0.4813604699200917,-0.8340698525026952,7.026855097735991,-6.272350103124203,-5.014383424024119,,,,,,,,,,0.8070675168689845,-1.2899593496502049,-0.018086637480071176,1.7904913228109636,-0.6223919717962137,0.6427744331497193,,,,,,
150,150,150,150,7.82,-0.0838,-10.4,0.266,-0.97,0.546,-0.941,4.99,-7.4,-3.84,90.0,7820000000.0,-0.303616717015213,-9.597893045423028,0.21645139349906395,-1.0104805862060866,0.5244665456555638,-0.9116281557597076,6.128868106315966,-6.7423859268026565,-4.3953276304946485,,,,,,,,,,0.7933118908494707,-1.2785598800652065,-0.22232229152054075,1.6393029689928935,-0.5924935551788062,0.4900853307940887,,,,,,
151,151,151,151,7.87,-2.3,-12.2,0.6729999999999999,-0.455,0.701,-0.674,4.56,-8.02,-2.71,90.0,7870000000.0,-1.0875633112662393,-10.711763748606224,0.4316918927129436,-0.57280757060085,0.6421911473890046,-0.7392722981740554,5.4372022900461054,-7.274931133679483,-3.5069365714556056,,,,,,,,,,0.5232770089846122,-0.8752964921235878,-0.7471488607223135,1.4754221389385032,-0.7995512423639816,0.4007826692330172,,,,,,
152,152,152,152,7.92,-2.8,-13.0,1.46,0.0119,0.855,-0.145,3.02,-8.39,-1.15,90.0,7920000000.0,-1.7600087861048397,-11.691277486399931,0.9164892747464776,-0.11210608401760523,0.7841067025811066,-0.3082361582409758,4.371531988943217,-7.7397229378904004,-2.264518535050354,,,,,,,,,,0.1326553780084772,-0.3268187171777619,-1.1865375680679413,1.2620398206049226,-0.9444633786252012,0.1935886115122384,,,,,,
153,153,153,153,7.97,-4.61,-13.0,2.89,1.34,0.535,0.863,9.73,-10.3,-3.2,90.0,7970000000.0,-2.8791531322101496,-12.25149572446445,1.8469038475800428,1.0320341328773073,0.6179852810578425,0.5412819837331841,6.7339158528936816,-8.806917577773289,-2.757641305657881,,,,,,,,,,-1.0906335998045402,0.4897706694270923,-1.3581064115513657,1.8232615506581484,-1.3410331603316508,0.14093394210601792,,,,,,
154,154,154,154,8.02,1.92,-13.9,1.5,3.0,-1.28,1.49,8.47,-14.8,-8.59,90.0,8020000000.0,-0.9946052893333934,-12.957162462354978,1.6833555202902886,2.5826294145010587,-0.6477214947709323,1.2294038331155333,7.499302181283076,-11.305000796620872,-5.8320675930137575,,,,,,,,,,-3.2017710597885936,0.16132991078110331,-0.7316589469696602,2.1854638464070364,-0.7374252760164051,-0.05752950431205262,,,,,,
155,155,155,155,8.07,1.03,-17.2,-2.67,2.43,-1.94,0.991,6.34,-13.1,-7.07,90.0,8070000000.0,-0.19957637365164305,-14.7733728296754,-0.3690403550669668,2.4623700388671925,-1.5095014957700603,1.0564853427124379,6.988201502069027,-12.053206458103226,-6.484622170270578,,,,,,,,,,-3.7754673015596913,-0.598091381809723,-0.7054279305653617,1.7249265696170193,-0.7054276933641229,0.4587390330871163,,,,,,
156,156,156,156,8.12,-0.757,-14.3,-0.407,2.6,-1.31,1.45,6.1,-8.72,-8.25,90.0,8120000000.0,-0.41846740043771796,-14.570738594396813,-0.38693648776905,2.570811056077679,-1.3764601736192006,1.3419084707431623,6.5966206814612045,-10.663833577964144,-7.415210316384442,,,,,,,,,,-3.9089564051125487,-0.5524138017379683,-0.581687375047438,1.5015152456880434,-0.6858156269057282,0.35066404220240577,,,,,,
157,157,157,157,8.17,-0.613,-8.68,-1.09,1.98,-1.05,1.27,7.33,-4.74,-7.96,90.0,8170000000.0,-0.4948571171696824,-12.049119999933579,-0.7183968266063554,2.10530054005976,-1.1587541015573644,1.2897519799280823,6.919945077998924,-8.19461518405798,-7.7023867205848875,,,,,,,,,,-3.271356315358283,-0.598475878251039,0.06708053708635263,1.4020463133934224,-0.5892732709094449,0.6016847684046782,,,,,,
158,158,158,158,8.22,1.11,-3.76,-0.443,1.3,-1.43,0.988,7.45,-4.62,-9.13,90.0,8220000000.0,0.13534366804649045,-8.50083825299798,-0.5885605838571233,1.4707898950811713,-1.339639440230522,1.0708859506447754,7.1536299387730375,-6.704616285710872,-8.454928232766122,,,,,,,,,,-2.6010488037385957,-0.7278783326448095,1.017299848738462,1.5791588407611896,0.011167813327289456,0.9267538219625291,,,,,,
159,159,159,159,8.27,1.81,-3.13,-1.24,0.373,-1.3,0.682,7.24,-5.18,-10.6,90.0,8270000000.0,0.7929534194728485,-6.201770690818317,-0.8956826557041849,0.6058217235037758,-1.3132051102594473,0.7888201259477061,7.191707746697588,-6.0691138183990825,-9.585665619701883,,,,,,,,,,-1.9037066554954447,-1.1884682002449671,1.5666333050089865,1.746310622891525,0.4712612197819007,1.19509339082483,,,,,,
160,160,160,160,8.32,2.12,-3.59,-2.38,-0.465,-1.03,0.435,5.52,-10.1,-2.65,90.0,8320000000.0,1.314062562800368,-5.083763162470847,-1.5954662967240756,-0.2378977460306065,-1.1243444946384242,0.5321881750906514,6.4547031065050335,-7.749299247264544,-5.929650451920216,,,,,,,,,,-1.1048266921194665,-1.2622420520001212,1.5600554245200768,1.772816539155419,0.4645451543809327,1.557286010090888,,,,,,
161,161,161,161,8.37,0.486,-9.08,5.71,-1.92,0.219,-0.327,-3.89,-19.5,3.0,90.0,8370000000.0,0.988896125147538,-6.7944120540448045,1.8487065121811088,-1.5632559726358015,-0.22851022887181136,-0.09099609517347174,1.8940409953813264,-12.647317555342276,-1.222540891826263,,,,,,,,,,0.4224990919870779,-0.4879716660812913,-0.15136643417839502,2.023324226527285,1.0328586386275498,0.6872543603799809,,,,,,
162,162,162,162,8.42,-8.66,-19.0,11.6,0.25,-1.11,-0.18600000000000005,4.88,-7.18,-5.24,90.0,8420000000.0,-2.8000653338630266,-12.019196454532384,6.445968296269599,-0.1345593664004714,-0.8163480915780602,-0.1599040993905654,3.2104587157698745,-10.368387737756043,-3.3402743014170877,,,,,,,,,,-0.5261899508131379,1.4503743067082562,-1.5103663130202538,2.016651711135684,0.4577740564557238,-0.08946403032479525,,,,,,
163,163,163,163,8.47,0.244,-6.26,3.36,0.418,0.128,0.855,6.01,-13.0,-4.4,90.0,8470000000.0,-1.6047113501630574,-9.553886407006356,4.991083971400428,0.3008119884919211,-0.18659199394505266,0.5762236856293554,4.4446906358588,-11.465316790028279,-3.898890278900188,,,,,,,,,,-0.9377467349368704,0.9345810291986124,-0.8990173989147044,2.482448120235217,0.4140024666801172,-0.11133174981022548,,,,,,
164,164,164,164,8.52,0.919,-12.1,3.93,-0.484,1.83,-0.123,5.94,-9.24,-12.9,90.0,8520000000.0,-0.6136917372823961,-10.643788559573133,4.490834409658572,-0.31755532294420746,1.158209922637281,0.06906446135136024,5.103926660618705,-10.537742875139726,-8.643668145867279,,,,,,,,,,-0.16125909614601716,-0.5827021410053612,-1.1766951884816423,2.753431382498098,0.2740428033681221,-0.9524663376817868,,,,,,
165,165,165,165,8.57,0.462,-8.26,-4.79,-0.0828,0.179,0.0996,9.62,-8.82,-10.1,90.0,8570000000.0,-0.19128542334712795,-9.623372325680233,0.11537144520195496,-0.13258743261146874,0.5052055718634998,0.09121242549692013,7.094924722827983,-9.821739827934016,-9.411348294803362,,,,,,,,,,-0.7408767241215886,-1.5811257063502488,-0.465815630782286,2.423298843297512,-0.1764701605575822,0.3745995029871225,,,,,,
166,166,166,166,8.62,3.76,-8.53,-2.28,-1.6,1.46,-1.04,3.25,-14.2,-8.35,90.0,8620000000.0,1.3603188419548016,-9.155337840852322,-1.0139299192946536,-1.2887878922687634,1.1419280247594643,-0.7292757900275583,5.399815434029387,-11.646720141647794,-8.851877245366682,,,,,,,,,,0.4832478850683311,-2.709494856696306,-0.6705919344786951,2.4475251381669203,0.14864486462205292,0.3028683382630637,,,,,,
167,167,167,167,8.67,-3.44,-15.0,-1.22,-1.77,2.29,-1.13,4.91,-6.63,-6.88,90.0,8670000000.0,-0.5246867951315866,-11.65723285897429,-1.1110819743037954,-1.6679434490792913,1.9075411548110623,-1.0199280952198628,5.1838707769744135,-9.555611955266713,-7.812436592646023,,,,,,,,,,1.1637358731986749,-2.484668194233375,-1.6032245106446157,1.9162257757241663,-0.7395163751011464,0.19873722781425668,,,,,,
168,168,168,168,8.72,-2.3,-8.38,-0.467,-2.17,1.3,-0.7929999999999999,5.85,-5.36,-6.33,90.0,8720000000.0,-1.2218228352937817,-10.254364386253203,-0.8074285872862639,-2.0635227882703617,1.5023910011936137,-0.8553331490664592,5.477546662259921,-7.8067644653205255,-7.030995946769383,,,,,,,,,,1.3310376095051966,-1.964906428536428,-1.1582838047278037,1.7653944115488855,-0.6692948858594634,0.6524418852596121,,,,,,
169,169,169,169,8.77,-1.42,-8.03,-0.311,-1.76,0.153,-0.802,7.64,-5.05,-5.09,90.0,8770000000.0,-1.2996437050242355,-9.302191840946596,-0.573386597404785,-1.8243717816357559,0.6025245059867502,-0.8166496691637222,6.430905902640352,-6.657668579712862,-6.007833852341692,,,,,,,,,,1.0146728553988964,-1.4752222973099294,-0.4911274441655135,1.6903855602917617,-0.6033363925117613,1.0728815547008708,,,,,,
170,170,170,170,8.82,0.414,-8.5,0.5770000000000001,-1.53,0.403,-0.894,6.88,-5.69,-4.94,90.0,8820000000.0,-0.6267242343985948,-8.958801630222242,-0.031035139956491545,-1.5924310007329692,0.4694678752954086,-0.8727532183660541,6.628897755497463,-6.2543174741870935,-5.4449438833927175,,,,,,,,,,0.9877864127113946,-1.4033827982933496,-0.11298753072251312,1.7273944025762638,-0.5195562694761522,0.8137636220761706,,,,,,
171,171,171,171,8.87,-0.285,-9.81,0.34700000000000003,-0.942,0.5539999999999999,-1.06,4.68,-5.97,-4.23,90.0,8870000000.0,-0.4925347923133287,-9.32316999791041,0.14719008209234208,-1.0799448335534327,0.5258397086509844,-1.0085665567761275,5.7696884816114835,-6.135805969994823,-4.804507406118877,,,,,,,,,,0.9312915863950536,-1.2915376739264124,-0.2126171339995241,1.5199824917424016,-0.5106922130325505,0.5571292827465119,,,,,,
172,172,172,172,8.92,-2.43,-10.7,0.606,-0.8340000000000001,0.713,-0.71,4.76,-7.2,-3.11,90.0,8920000000.0,-1.2533452802609728,-9.912542583020194,0.3634966931461445,-0.8861605214738056,0.6506510305606309,-0.7920109729355161,5.32454792376618,-6.579391507382975,-3.9112773129888128,,,,,,,,,,0.7803019035845932,-0.8976715480308821,-0.6112515495760462,1.4370819918150457,-0.6778156841778831,0.5631088911903497,,,,,,
173,173,173,173,8.97,-2.36,-12.2,1.4,-0.316,0.546,-0.4270000000000001,3.4,-7.89,-3.13,90.0,8970000000.0,-1.6879101979437887,-10.89172284745209,0.852157684799854,-0.4369209251047453,0.5808625464409828,-0.5272620924195836,4.476073860987543,-7.1256894578358425,-3.4994406582206072,,,,,,,,,,0.3511913692760345,-0.5127650398237851,-0.9575694951398004,1.2970909043993517,-0.6835132755321801,0.3954562563847195,,,,,,
174,174,174,174,9.02,-3.81,-12.9,1.18,0.415,0.6990000000000001,0.0874,4.96,-7.69,-2.01,90.0,9020000000.0,-2.521219654135516,-11.75139574414922,1.0067193999879842,0.23432270564793545,0.659644705819223,-0.08143688188610965,4.689422058190321,-7.360909782596877,-2.714307976472049,,,,,,,,,,-0.2086136386718911,-0.0056310836625695845,-1.27744176734829,1.2371532130688865,-1.0360300440407766,0.33224471042251985,,,,,,
175,175,175,175,9.07,-2.58,-12.1,2.41,1.92,0.141,1.23,11.3,-13.0,-8.37,90.0,9070000000.0,-2.5443016913537013,-11.900621170984426,1.668298135676809,1.56249777010667,0.31377683659467903,0.8697713391996252,7.603823042499642,-9.711439143095888,-5.695607367478429,,,,,,,,,,-1.88896458005574,0.24049252267554014,-1.171265914433793,2.1880975651722765,-1.047985236994586,0.1778281720204456,,,,,,
176,176,176,176,9.12,3.64,-16.3,-3.15,2.9,-1.23,1.33,7.27,-14.5,-6.42,90.0,9120000000.0,-0.11582891855678755,-13.783840725278734,-0.6032956260171796,2.616339622426172,-0.7157194801269758,1.2035833024238554,7.456650701483928,-11.707444252918869,-6.077458355183624,,,,,,,,,,-3.487223969529978,-0.681849379562048,-0.6480414268207972,1.8750035707450865,-0.966004684944486,0.20690279071901907,,,,,,
177,177,177,177,9.17,-0.0814,-16.6,-0.287,2.64,-1.12,1.11,7.54,-13.0,-6.91,90.0,9170000000.0,-0.1023092529360492,-14.989339969239788,-0.4541775898609111,2.6349821370674307,-0.9853214692437752,1.1357056996587922,7.493396831941909,-12.246217373487074,-6.51631808864619,,,,,,,,,,-3.723281900089805,-0.737169770667806,-0.8365897486094905,1.873523922631952,-0.9649657015501658,0.17805999738888922,,,,,,
178,178,178,178,9.22,0.517,-13.9,-0.12,2.34,-1.27,1.4,7.11,-6.97,-8.1,90.0,9220000000.0,0.14088322953365776,-14.523031545884006,-0.2966290741571937,2.402560401187704,-1.1751646309359065,1.3274029810210417,7.324368996119634,-10.046943401305748,-7.351128600080953,,,,,,,,,,-3.734753815611787,-0.7607945129222896,-0.3110252354747587,1.5897519963889974,-0.8248904076921268,0.11659762507718,,,,,,
179,179,179,179,9.27,0.414,-6.71,-0.948,1.79,-0.882,1.11,7.26,-4.24,-8.25,90.0,9270000000.0,0.2481316584951843,-11.178546599899066,-0.6037188581751726,1.919913144540694,-0.9796623621407684,1.1697167903417165,7.295990782469442,-7.6264480782491235,-7.8249529880158875,,,,,,,,,,-2.9609005557925365,-0.84395059631351,0.4601619151797605,1.520997895507502,-0.5081398985382685,0.410955648135382,,,,,,
180,180,180,180,9.32,1.0,-3.12,-0.797,1.12,-1.17,0.732,7.07,-4.9,-8.94,90.0,9320000000.0,0.5433778893918175,-7.728965199140991,-0.6948415314487173,1.2896473655649277,-1.1065925283813938,0.8522331084919488,7.196358459036006,-6.489988864693933,-8.412730359945844,,,,,,,,,,-2.2112250367872472,-0.9476671930815536,1.1789459811883272,1.6525922801012711,0.07100271635328875,0.8586127517560472,,,,,,
181,181,181,181,9.37,1.26,-3.46,-1.17,0.24,-1.15,0.544,7.48,-5.01,-9.44,90.0,9370000000.0,0.8247835060920832,-5.901570838611399,-0.9188556675054242,0.462611547554804,-1.1355395924861398,0.6286662418951718,7.321407316365838,-5.8730885124092325,-8.954237420535389,,,,,,,,,,-1.5890148870182368,-1.2115605377373544,1.589271420353351,1.7655852805210357,0.3843341349706041,1.1841946703231905,,,,,,
182,182,182,182,9.42,2.08,-3.62,-1.37,-0.918,-0.688,0.241,4.48,-11.1,0.231,90.0,9420000000.0,1.3176861804065405,-4.924910281422613,-1.1315483264087691,-0.6251968136267706,-0.8370895047641197,0.3474851044471724,6.068718057118704,-8.051810494024437,-4.11239964246018,,,,,,,,,,-0.5562715180329544,-1.1056852496270044,1.4298264165361687,1.802050011532204,0.3963386353841923,1.4475771180617734,,,,,,
183,183,183,183,9.47,-0.8759999999999999,-10.4,8.42,-1.69,-0.221,-0.469,-2.58,-18.2,0.127,90.0,9470000000.0,0.4562619961702417,-7.268604127754347,3.371543164753528,-1.4641742130610578,-0.4262387573016992,-0.2447258927334101,2.2557637752173125,-12.281857941997346,-1.8776740266472447,,,,,,,,,,0.42710422136448895,-0.06940645640916081,-0.27806240716078345,2.199395474591328,1.1380466845259618,0.4720238680082009,,,,,,
184,184,184,184,9.52,-7.56,-17.8,8.57,0.6940000000000001,-0.929,-0.0396,5.19,-6.14,-4.85,90.0,9520000000.0,-2.6915911487276025,-11.776725254414911,5.8223631136022975,0.2362896092408316,-0.7615144587515509,-0.09594447931816504,3.5493784844007648,-9.721760979910336,-3.4444837949927414,,,,,,,,,,-0.6929437704372088,1.3471786808439252,-1.3307219087426765,1.9082941057169065,0.3027064806143513,-0.0642237410741042,,,,,,
185,185,185,185,9.57,0.424,-5.26,3.68,0.637,-0.19,0.8290000000000001,8.66,-12.2,0.3720000000000001,90.0,9570000000.0,-1.468150166550527,-8.98714367862892,4.812342915777734,0.5520164667526811,-0.3803894078530857,0.5749339964231835,5.802494570793554,-10.75475972725255,-1.4326908927280604,,,,,,,,,,-0.9362316897246616,1.2408498273565371,-0.4426823703422489,2.4837907443487923,0.021701829958878573,0.044508089146737706,,,,,,
186,186,186,186,9.62,4.44,-9.67,6.17,-0.999,1.85,-0.546,3.58,-12.4,-11.9,90.0,9620000000.0,0.8518824626306171,-9.279450568726393,5.452412373595295,-0.6700569823905346,1.1069872789745163,-0.2380991243778311,4.822664901251354,-11.440541390680766,-6.950350205034439,,,,,,,,,,0.3607896243466859,-0.6347276340107437,-0.6765513044826944,3.050197529321401,0.6860464498702709,-1.2561345728151592,,,,,,
187,187,187,187,9.67,-2.17,-11.7,-4.03,0.141,0.743,0.152,8.72,-5.25,-10.4,90.0,9670000000.0,-0.3347607042357341,-10.315602859675222,0.9819150657522266,-0.031010769699818086,0.8642555709514388,0.044846619505019,6.5408804337608055,-8.860151871237953,-8.768772753673728,,,,,,,,,,-0.5100861287970277,-1.357764218107092,-0.6191130181413979,2.254633754452876,-0.3188997515338875,-0.1077652247869684,,,,,,
188,188,188,188,9.72,2.56,-4.97,-2.73,-1.41,1.55,-0.851,2.75,-16.7,-8.28,90.0,9720000000.0,0.8019638035000196,-8.027337546090564,-0.7680727403783405,-1.1175408655103771,1.3215569692951294,-0.6049266780998153,4.869597613100944,-12.128018546778787,-8.511124576866296,,,,,,,,,,0.5507892193220761,-2.3640868710331158,-0.8137871300766667,2.5408529101620103,0.29564324394137875,0.4115788163744167,,,,,,
189,189,189,189,9.77,-4.19,-17.4,-1.39,-1.87,2.15,-1.09,6.46,-6.34,-5.97,90.0,9770000000.0,-1.1582976322988263,-12.039445672627213,-1.0612812515464858,-1.7104167941228998,1.8740196803231888,-0.956758903526144,5.570757224267652,-9.715411787506321,-7.17161494643325,,,,,,,,,,1.131724669449991,-2.234360566378516,-1.807698184669109,1.937180571787133,-0.9465951598319212,0.365248558141942,,,,,,
190,190,190,190,9.82,-0.946,-7.99,0.242,-1.94,1.26,-0.855,5.88,-4.94,-5.89,90.0,9820000000.0,-1.0749318643613155,-10.30601981305326,-0.4468473963126289,-1.8913095272978624,1.4645492268801108,-0.8829513971268228,5.707092922211323,-7.7248875987166175,-6.496033900157814,,,,,,,,,,1.302948457361054,-1.8387256144661772,-1.069373675333838,1.8051735888579532,-0.7141372353980219,0.5180513090259072,,,,,,
191,191,191,191,9.87,-1.63,-7.52,-0.134,-1.71,0.459,-0.875,6.94,-5.9,-5.41,90.0,9870000000.0,-1.2928979157078857,-9.113422371389772,-0.2993550344523928,-1.7484525585425934,0.7939800119118192,-0.8771841091157739,6.250643833461129,-6.96422382302598,-5.923549982697463,,,,,,,,,,1.1341473485948554,-1.4367899893257332,-0.5876673917601971,1.7790165418291184,-0.5623643775585021,0.9388216333924142,,,,,,
192,192,192,192,9.92,-0.517,-9.2,0.0503,-1.46,0.0672,-0.728,8.17,-5.67,-4.57,90.0,9920000000.0,-0.988215677135828,-9.150483138052412,-0.13450965684726662,-1.521175691311215,0.30931323831060226,-0.7689782434708803,7.096829085521533,-6.424755433894654,-5.210049797007523,,,,,,,,,,0.8011061070961747,-1.2474681081018033,-0.16409640772182615,1.7601598931568276,-0.6409755826682451,0.9955424157101744,,,,,,
193,193,193,193,9.97,0.826,-9.66,0.56,-1.2,0.331,-1.03,4.72,-5.83,-4.35,90.0,9970000000.0,-0.2758032721726137,-9.36858938304756,0.19291793972233634,-1.2681156937262958,0.32377545896401605,-0.9583018878618366,6.048958006932784,-6.176844825069412,-4.7566894899772105,,,,,,,,,,0.8709518967204195,-1.3223682210555487,-0.060787927225866775,1.5581357583598476,-0.4725011597813841,0.6193293759597207,,,,,,
194,194,194,194,10.0,-2.51,-10.5,0.35700000000000004,-0.997,0.555,-0.924,4.81,-7.06,-3.45,90.0,10000000000.0,-1.1531352779819242,-9.85290661284214,0.2702746643365648,-1.0544988038086016,0.4779718506392257,-0.9334221440302032,5.502739426759025,-6.544968397138914,-4.067890930726675,,,,,,,,,,0.8565750546882507,-0.9894506817206046,-0.5302846575596684,1.453559752638982,-0.621822746080869,0.6842878934422105,,,,,,
195,195,195,195,10.1,-2.36,-12.1,0.929,-0.419,0.507,-0.473,5.09,-7.16,-1.68,90.0,10100000000.0,-1.6270510019665672,-10.81480869578514,0.580831698564003,-0.5537780019414565,0.4973298314791813,-0.599469867884862,5.320775349973436,-6.8013305807117055,-2.809155828395109,,,,,,,,,,0.43982456535438347,-0.5372515837587734,-0.7827378806190379,1.3284317977851952,-0.8870716574370461,0.5376004189529588,,,,,,
196,196,196,196,10.1,-2.16,-12.3,2.44,0.187,0.8340000000000001,-0.0372,3.6,-7.52,-1.75,90.0,10100000000.0,-1.836331270312176,-11.450567119624253,1.4573393456524175,0.029894156052902576,0.7218445910659811,-0.1916456559238271,4.562138276010535,-7.100891939117327,-2.25084029831792,,,,,,,,,,0.049400963186037206,-0.095753762215328,-1.0210852134253547,1.2721017074105716,-0.9220282466081652,0.07947575803394906,,,,,,
197,197,197,197,10.2,-3.97,-12.3,2.31,1.74,0.721,0.97,11.4,-9.72,-6.06,90.0,10200000000.0,-2.6741876130976427,-11.814179645202564,1.8593274336451515,1.3773169502125135,0.7212813702944026,0.6509163646423486,7.576741451049236,-8.192609004413447,-4.2587723976660765,,,,,,,,,,-1.3038014664729545,0.34266746952413113,-1.1141324563456565,1.9834554241892348,-1.3448210337002748,-0.017171090260115474,,,,,,
198,198,198,198,10.2,3.63,-13.4,-1.33,3.16,-1.32,1.29,8.62,-15.9,-5.71,90.0,10200000000.0,-0.198637622928719,-12.493013593662212,0.3557143212239389,2.781924674817648,-0.6399851225889223,1.11445492389978,8.036682071591326,-11.405263392421976,-5.023761748275122,,,,,,,,,,-3.2239030898205496,-0.2559720599520057,-0.40188719606889295,2.122912962334194,-0.9274686782308336,0.09926426145264676,,,,,,
199,199,199,199,10.3,1.0,-18.5,-0.12,2.18,-0.649,1.03,6.37,-11.9,-6.43,90.0,10300000000.0,0.2720474968521057,-15.064393932630262,0.13143810864219874,2.3076575786528317,-0.6459968539901141,1.053198263300902,7.3018930552434504,-11.611483186810293,-5.765035636438537,,,,,,,,,,-3.2945135464435413,-0.7637197753921406,-0.7534820857377371,1.848448966758537,-1.0251216332207014,-0.1860498938846763,,,,,,
200,200,200,200,10.3,-1.11,-13.3,-0.268,1.83,-1.16,1.59,7.11,-9.02,-7.32,90.0,10300000000.0,-0.2706596448963656,-14.30911881275962,-0.0568775761555731,1.9313027172601056,-0.9887693921937296,1.442550016646916,7.217293356282799,-10.53128123808968,-6.584708082606968,1.2228868759308946,0.4273915630345301,0.9412578490628728,2.3864794770803006,2.3227135211460856,2.519008881731878,0.6019332108239805,0.3565428218955182,1.8615980546098605,-3.4716467578302868,-0.5828149188192809,-0.4986083583383685,1.689790276572867,-0.8592634943089532,0.2253051627927711,2.3448770265841614,1.697327437197247,2.1599507800233777,0.18445922234370699,3.303378904808826,1.6805560294967912
201,201,201,201,10.4,-0.0215,-9.45,-0.603,1.5,-1.39,1.36,8.47,-4.54,-7.89,90.0,10400000000.0,-0.1728187839759723,-12.229100276824695,-0.3143477861883693,1.5914716411689227,-1.2563374779885534,1.382675049867567,7.769573380892986,-8.0339488663995,-7.272769890590276,1.2347803733876033,0.3993586478902516,1.00464377571392,2.2933677507872083,2.1333930294728294,1.9170277380336669,0.5992090576988609,0.33332271819872683,2.0280058885075904,-3.1609371701482463,-0.6154303589103663,0.29908311134494103,1.5549177990981342,-0.6693499183572854,0.5595762253059623,2.1341643537652204,1.8086336471943958,2.239603947896519,0.16945328269606824,3.3214399935922434,1.5990564772648461
202,202,202,202,10.4,1.92,-4.12,-0.608,1.12,-1.76,0.959,7.31,-4.41,-8.18,90.0,10400000000.0,0.648996434379022,-8.757878618853459,-0.4527905434867629,1.21999075980029,-1.5922141946005928,1.0753760876587553,7.566961558818552,-6.5233863037022495,-7.75100058737921,1.2434361416024768,0.395300734844155,1.0731991297647416,2.4738555525265906,2.153881127539479,1.6639132579945068,0.5528761142859528,0.33161182180485543,1.9392497028528817,-2.6047793173095046,-0.7704714969529689,1.2953224336438107,1.5738065741036935,-0.020899294769289388,0.9049130847990784,2.0624135556707643,1.9266422946220716,2.162585851164928,0.15370832001763976,3.217927447103049,1.5774934244786418
203,203,203,203,10.5,1.33,-3.5,-0.426,0.447,-1.32,0.42,6.75,-4.99,-9.35,90.0,10500000000.0,0.91641525965492,-6.507165067889581,-0.44016010205182216,0.6109376000300444,-1.4106831296202602,0.6000202893728614,7.206788284495995,-5.884228225558844,-8.593885452568218,1.1998507035056571,0.4211880427698644,1.02551239827411,2.623641119113119,2.3317525652267075,1.8204217612884328,0.5061195146194668,0.33257904092590923,1.90176698363026,-1.7600768148491617,-1.0447456595382845,1.6052027255930037,1.708490912822066,0.4192842891150548,1.0790412532710747,2.20786651828842,1.8752401950403894,2.188070753220043,0.15856433774453532,3.1781776590790254,1.604200836943217
204,204,204,204,10.5,1.21,-4.02,-1.31,-0.289,-0.7859999999999999,0.276,6.66,-7.69,-4.52,90.0,10500000000.0,1.0317011342069955,-5.442496867935449,-0.8502473696142845,-0.09813923239832767,-0.9941015718933764,0.3650026767059399,6.965726046474638,-6.6369240585823075,-6.446407748536824,1.1330161462706327,0.4431539528506719,1.011561090853944,2.7575250290696123,2.482829864203575,2.005884302611035,0.4876015100536962,0.3371438770708948,1.9085285379778631,-0.9618902169056559,-1.1295412492556876,1.5443853713336215,1.8024708248483758,0.3403231564446207,1.287421602464047,2.359207238340217,1.7794755608569948,2.121907581965375,0.17593890335546936,2.738345947711913,1.5784370196298538
205,205,205,205,10.6,0.903,-7.64,4.24,-1.37,0.106,-0.39,-3.39,-17.5,3.25,90.0,10600000000.0,0.9811623316882038,-6.38317088033764,1.5495571040624143,-1.1002609386059368,-0.2604783731538578,-0.18261401677873468,2.4002042594718658,-11.164955702202908,-1.3351154468440996,1.1139963299915392,0.4416916518426147,1.0022436411927198,2.8599554530794595,2.8462516938984948,2.2201930442637168,0.5138834461308853,0.3381968203865339,1.941431315569011,0.3611206720289988,-0.4692414547549469,0.1490583782733077,1.8648006237705173,0.8773456647915364,0.6770252080546612,2.5120837995108127,1.8021363156149994,2.0549642961902945,0.17637392391088763,2.5602318180482175,1.4887351365842847
206,206,206,206,10.6,-8.55,-17.4,11.6,0.0119,-1.31,-0.28300000000000003,4.51,-9.31,-4.59,90.0,10600000000.0,-2.7615671536051116,-11.099089129341538,6.287853314977906,-0.22396956940901447,-0.9603713572224176,-0.2554257282646854,3.330348541356855,-10.391758841355463,-3.050871175234965,1.144359890772665,0.4216423048099604,1.0936220808102723,2.9004548343525465,3.1025749227305717,2.6271656136895043,0.5544395697819996,0.3219123721864855,1.9795899119588751,-0.3978973614096606,1.4822440262303571,-1.3256505275284776,2.0700895892070608,0.5724251371935196,0.1372396634825595,2.6874697298925176,1.8170999901713722,2.0874940303199994,0.1796396657004359,2.506375426036184,1.434928535021661
207,207,207,207,10.7,-0.376,-8.88,3.9,0.521,-0.636,0.7809999999999999,5.5,-11.0,-7.55,90.0,10700000000.0,-1.8247944826821323,-10.149174899917767,5.162096415465171,0.3630052158050838,-0.7440582680885941,0.4963120715368058,4.286881271156662,-10.645290642858775,-5.422508599900518,1.1810938566425129,0.3997817874842407,1.1621315009785196,3.1112610928116435,3.0995269697771133,3.0917715555978225,0.5495662743881882,0.3474676686701256,1.924984006593228,-1.2342281776230224,0.9498205986354316,-0.8303812564689346,2.301929813362248,0.6138811448849674,0.015847631330145957,2.6705510293301034,1.8799882300313977,2.0832135029714345,0.18443660246654484,2.42648952957616,1.361728262483287
208,208,208,208,10.7,0.414,-10.3,0.8140000000000001,0.0345,1.07,-0.149,7.7,-9.09,-11.3,90.0,10700000000.0,-0.9456570092534878,-10.213737920572687,3.1121799936989523,0.10417011735846687,0.4656802718162532,0.02825588758735686,5.7916204675753065,-9.99700238703262,-8.52072582638097,1.1282640247213895,0.4328503302681129,1.1316600085997188,2.7579025975489486,3.2146825874222644,3.2845834934107785,0.5296144856538092,0.3528482871278321,1.920623216969674,-0.6094028250378632,-0.5592451348676873,-0.8855998030803133,2.5210151382720603,0.15802409376754745,-0.24984246553898398,2.649264957742378,1.7560365054799343,2.1228106902204757,0.19442479074492516,2.5830123939165244,1.38357611847323
209,209,209,209,10.8,2.09,-8.36,-3.29,0.498,0.746,-0.0769,8.33,-9.54,-9.24,90.0,10800000000.0,0.2463951300107245,-9.420217542310413,0.0938628719872221,0.4144756778885888,0.6526166922352149,-0.04801552332720406,6.910714053214606,-9.806511088473725,-8.89987854684058,1.0572085703050529,0.43760629014812624,1.1284670020477063,2.487958532928558,3.1421929161475144,3.2231068522905284,0.5468827132702972,0.3347295870948289,1.9236037993144284,-0.7656375939929133,-1.610183946540061,-0.37759021862983533,2.3895081046956586,-0.2044580017822016,0.12306684827967405,2.435767596704851,1.7708429802952839,2.1444705193099476,0.21199521633884288,2.816616019977713,1.5035038204195803
210,210,210,210,10.8,2.3,-9.3,-1.51,-1.39,1.23,-0.853,4.53,-13.3,-8.42,90.0,10800000000.0,1.0528116926809368,-9.368756707653283,-0.6622806247937101,-1.0073027667997412,1.037655505412153,-0.6318848939668198,5.861130396616735,-11.262694335924882,-8.646918977084116,1.0460503849816425,0.4086528912920511,1.150162616429247,2.4075061135073184,2.7143883663405206,2.6882780831584716,0.5749436799747915,0.3298148099797576,1.909121974788456,0.2858537178982811,-2.4406710242583483,-0.6456385261933001,2.457265796598413,0.023839132967472157,0.26429383599922324,2.2252437402245704,1.9088951682077941,2.1343933096176664,0.2075889287470544,3.007561351911421,1.44571340145572
211,211,211,211,10.9,-2.07,-13.9,-1.2,-1.54,1.7,-0.92,5.65,-8.2,-6.58,90.0,10900000000.0,-0.1734646531336106,-11.308422980216221,-0.9157892346818748,-1.4270243539385976,1.479352285724446,-0.8408598535338547,5.768049527524633,-9.986078227720718,-7.557378631862197,1.062926604445304,0.39298318830871626,1.2067791355038155,2.3084910318615943,2.348108229255529,2.23200554089738,0.6084186837807967,0.30397388399751885,1.885719497259115,0.7680171925898671,-2.332585686379306,-1.2842599729570157,2.06165416898691,-0.6333179505975212,0.2798958893183696,2.060439284310383,1.9844641206598201,2.113651752375469,0.1969617589685997,3.264457029100008,1.4243645970523124
212,212,212,212,10.9,-1.43,-9.78,0.0168,-2.12,1.38,-0.767,6.59,-5.4,-6.42,90.0,10900000000.0,-0.6668852284991154,-10.65415855846874,-0.4761186736700358,-1.9730320909439485,1.4130973624532026,-0.7872880185170458,6.130422328013108,-8.074473539012072,-6.957829354856634,1.13746495264058,0.3573677651009843,1.2390339746229684,2.3873485406061623,2.0794048049586684,1.8325544005319223,0.6192048273314937,0.2724181612772523,1.9470751025758088,1.1466596220070038,-2.0282795313663544,-0.9840663145890148,1.9210586222274033,-0.7156113613580753,0.4338426688423829,1.9115361647078128,2.094793855062413,2.202129344536686,0.18498801203009888,3.476192213776339,1.3067340154877787
213,213,213,213,11.0,-0.685,-7.94,-0.359,-1.94,0.47,-0.772,7.72,-5.27,-5.76,90.0,11000000000.0,-0.6739985998407089,-9.492322433854016,-0.42090290210776776,-1.9470055645240745,0.7841753400651219,-0.7761993608575198,6.831218238374103,-6.905491099490305,-6.326414613530169,1.2097094260925696,0.34114136955833896,1.4349851748404652,2.2045752743699656,2.034714671582777,1.5871183857654203,0.5702781573279544,0.28417600891370354,1.7464329127133786,1.0452610720492463,-1.727520935710776,-0.3794647062506396,1.8553202080186928,-0.6200391198904925,0.8046988629902172,1.7201464201719405,2.257011452313483,2.1359849656912573,0.16403892845581225,3.5189919818499975,1.2887770657411763
214,214,214,214,11.0,0.464,-8.61,-0.079,-1.54,0.382,-0.866,6.48,-5.09,-5.2,90.0,11000000000.0,-0.227125424207072,-9.114630977874976,-0.259712279603377,-1.626318616828751,0.5159772319710124,-0.8413333394527372,6.676376906267638,-6.148744069402985,-5.732644686886834,1.1844157436046632,0.3748888836593014,1.2889950865851143,2.4465647701876403,2.25089611461414,1.6681225585360882,0.5297756874730842,0.298239614242362,1.6088878627777086,0.9477936557307912,-1.6203179288069869,-0.008582946583003268,1.7018865725080676,-0.5305406674991768,0.719154468993452,1.9469023426499146,2.0342348157113013,2.1551831452522894,0.17831360559127576,3.1946632223947766,1.315771169201126
215,215,215,215,11.1,-0.735,-9.17,0.0455,-1.19,0.61,-1.1,5.67,-5.36,-3.48,90.0,11100000000.0,-0.426559354613702,-9.138332548251547,-0.11581950356603485,-1.2825354694092996,0.5786780735761197,-1.028948829402643,6.232696253069992,-5.819973699051395,-4.5452023218748066,1.1817824519879716,0.3959207992263818,1.2126911098702056,2.6339677115399334,2.40605491771443,1.822221337122209,0.5159071977593713,0.3006559927388149,1.5713406553838605,1.0719586780171606,-1.3834433476963257,-0.09459411210608176,1.5354689720670842,-0.6297622298863033,0.6409263299618029,2.075394198651125,1.9537035088125017,2.178231906572594,0.1866585925525256,2.641528273520186,1.2500927479107797
216,216,216,216,11.1,-1.42,-10.1,1.33,-1.14,0.337,-0.947,5.04,-6.64,-3.58,90.0,11100000000.0,-0.8166670068553026,-9.549988841721136,0.5658142403067563,-1.170229228633554,0.4175105622858567,-0.9695099232843928,5.706873068560285,-6.161783371998816,-4.036412704598268,1.2177438034556176,0.3818834094078283,1.2146617658475791,2.7077067279461318,2.709605334853379,2.06294583292764,0.5256562059438604,0.2993516480598995,1.5625466921838171,0.9510054933423044,-1.010176277215875,-0.294478827794594,1.4984358808140208,-0.5493016658412208,0.5947911310845346,2.200551704175954,1.9129928391096607,2.036097663249988,0.18206413165501573,2.459501389624079,1.202848019637889
217,217,217,217,11.2,-1.96,-11.9,0.8740000000000001,-0.478,0.618,-0.58,3.89,-6.86,-2.29,90.0,11200000000.0,-1.2656349305118222,-10.55594608868186,0.7111088743950744,-0.6248095053680267,0.5512106543460815,-0.6869915216544823,4.905869548523804,-6.452819502768634,-3.1158216734590503,1.254980465454974,0.3636172565905935,1.2798875965729744,2.7178804974802167,2.982786379516959,2.498747155653958,0.5727482623980047,0.28393031272825003,1.581901004260826,0.5801797030056404,-0.6633438658755479,-0.6575647613174024,1.276034701326709,-0.7363355186058059,0.3957874420767067,2.3478081465466496,1.8566822757099573,1.9956442370899374,0.18934975140389707,2.35155992774286,1.1414637551304507
218,218,218,218,11.2,-3.17,-12.3,1.87,-0.000916,0.7120000000000001,-0.14300000000000002,2.71,-9.01,-1.6,90.0,11200000000.0,-2.0134475467708994,-11.302514521629215,1.2574697960327423,-0.13323272457286206,0.6584360290979295,-0.29242492003601506,3.937778084488159,-7.518723424341159,-2.316782717037621,1.3551494051962412,0.34439016396804856,1.3808270314234161,2.883293483756172,3.0406996619470466,2.9433332384235964,0.5476800337993414,0.3073550026814844,1.4592894750425929,0.15625807614685222,-0.1217101075981843,-1.170850305780769,1.213890561479594,-0.7765322175356381,0.25776725346607643,2.0681969837313217,1.8836087909829005,2.0100290022689307,0.1871687656723403,2.3169026597120284,1.1478783220566395
219,219,219,219,11.3,-4.58,-14.1,2.52,1.25,0.503,0.882,10.4,-9.0,0.153,90.0,11300000000.0,-3.021290108903896,-12.50002016787897,1.8526915017953376,0.9566409220906072,0.5547806353440135,0.5594061256183032,6.786773198382663,-8.13616062571102,-1.0148798163753092,1.288141128440576,0.3834344189291629,1.3484886178927935,2.5896832350203374,3.1088180748081933,3.400750162167553,0.5234953999451594,0.3265695630185522,1.3216278189447346,-0.9838221561818166,0.7302319523622349,-1.2749623054730232,1.6205500842518767,-1.5819933077106891,0.18874091754674915,1.9520346834718336,1.6809471301387138,2.0059453300924797,0.19650518521400792,2.3643315848670325,1.2118224272473441
220,220,220,220,11.3,2.83,-13.1,4.83,2.8,-0.6990000000000001,1.47,6.85,-14.2,-9.4,90.0,11300000000.0,-0.723585533986558,-12.756850668339133,3.256347920212096,2.409056262396033,-0.2813263073829809,1.2198758790335704,6.814647912399306,-10.663737147594027,-5.4349495375556325,1.220523673933893,0.4096960934719633,1.2343393334661552,2.1977658798030952,2.8507630018855354,3.0298935975663133,0.52880438111777,0.3163040024009317,1.3274600919993522,-2.8017615842626546,0.4115698511914089,-0.6775125605158757,2.2417520717759944,-0.5617008411971547,-0.6677903855543416,1.9747621698773605,1.5289336152214872,2.071781941739736,0.21487175408262435,2.6605890068854268,1.2753012980089324
221,221,221,221,11.4,-0.402,-17.1,-4.47,2.28,-1.35,1.02,6.68,-12.6,-6.36,90.0,11400000000.0,-0.5973042309675873,-14.61600083551045,-0.3862500299417769,2.3073705171088177,-0.9939912568749708,1.0749023790983383,6.755285705213537,-11.470825419889042,-5.922573832286206,1.2197719810925158,0.3944855508891571,1.2569745867258733,2.0735985738297242,2.6205194128466385,2.4811375537468523,0.5401118745389475,0.3028893164173545,1.350684141384188,-3.4070493081133995,-0.5336757794607856,-0.8804145525195931,1.6444316707350686,-0.9091032190127718,0.3532621104919719,1.9687036969511729,1.6550531572442055,2.0754065440224774,0.20250133646075338,2.8386959212304794,1.2332962712612467
222,222,222,222,11.4,-0.551,-14.4,0.00718,2.24,-1.33,1.49,7.02,-10.1,-7.6,90.0,11400000000.0,-0.5791213268677098,-14.523538285245644,-0.2007668657093228,2.254288096876301,-1.2180649669740646,1.3759799820979992,6.871990103865229,-10.899427485703187,-6.806799742808215,1.1907517121308775,0.3683047989355467,1.3631563335587151,1.9797208034166909,2.2584371311654725,2.168894667454889,0.5881373952501965,0.2554318063107681,1.3024917443777329,-3.697671957955474,-0.4773383698420712,-0.6596200319265776,1.6144257041603125,-0.7866665187312284,0.3705006801632703,1.9931409845875994,1.6803933219749092,1.9458841209957927,0.1929737306368292,3.0137389669946124,1.2008627160319758
223,223,223,223,11.5,0.0575,-10.8,-0.73,1.78,-0.86,1.25,7.63,-4.68,-7.71,90.0,11500000000.0,-0.3291306872859436,-12.929622134957429,-0.4502746113938663,1.8805880537018544,-0.9792826918244276,1.2846044881065102,7.206173450108769,-8.306997368338049,-7.2829060324955694,1.2433502142957291,0.3106642492144025,1.342992986104731,1.9205492956477368,1.855813772572431,1.7874915974976564,0.6223577465504605,0.21355940176631416,1.4330251614481342,-3.1592182609948334,-0.6724078405110657,-0.045881197646804366,1.4487663985385557,-0.7790541227435862,0.3774179152827312,1.7799876451227399,1.6340813699870662,2.0864978755812444,0.17450474818384842,3.0270214144554406,1.1643973357641455
224,224,224,224,11.5,1.02,-4.49,-0.464,1.24,-1.27,0.955,7.44,-3.47,-8.45,90.0,11500000000.0,0.20065055603594056,-9.316915605141617,-0.4567454596706682,1.3758573490990993,-1.1731529245844363,1.0455365509154344,7.3092604237834475,-6.290802587733589,-7.898119170315184,1.326429339104477,0.28351462143239026,1.5378380788818542,1.9256834110201464,1.7851669596592,1.5644373227591546,0.55682817812458,0.22130192651813835,1.3550280941872714,-2.4941941706777544,-0.7557787192828391,0.9490031127065458,1.4955600259793584,-0.2221695797090688,0.7234848613236344,1.6122025741630015,1.8038398450499897,2.0296425812993943,0.1528832642083111,2.9146312270825088,1.2172919447720336
225,225,225,225,11.6,1.25,-2.6,-0.735,0.495,-1.34,0.49,7.16,-5.01,-9.55,90.0,11600000000.0,0.612712683301186,-6.4416394179719765,-0.5879289772034882,0.6818141928019682,-1.2844180231176738,0.642596138848116,7.243456017274183,-5.756928605688336,-8.768879452055348,1.2395366242536408,0.31118093991658224,1.5119095804786924,2.2116512470269067,2.00514146667426,1.7407879520086285,0.5240229242208196,0.2428796595756075,1.3070246037938609,-1.7597581055419562,-1.0115362254476792,1.5073989248623465,1.6953500263775259,0.3457038977482387,1.1221328705799478,1.8884938006539305,1.6462887461044562,2.047967020628836,0.16622793463240207,2.7745979995277907,1.2453130078066994
226,226,226,226,11.6,1.6,-4.19,-1.51,-0.281,-1.2,0.32,5.7,-7.65,-5.2,90.0,11600000000.0,1.0004040516106831,-5.477791526361238,-1.0226407075950297,-0.07680421174741836,-1.2281223256823446,0.40861148740062064,6.562993552166244,-6.546013359871161,-6.887606766651404,1.2248426645715151,0.3449014159809357,1.4725630984409874,2.3526527303467173,2.1805871657013616,1.852153705440847,0.5069671873546068,0.24266857997184554,1.2875152554683185,-1.1255032106875855,-1.1411098369583532,1.576381768997585,1.6797847379646622,0.47745333435722204,1.4097397122961852,2.1407483543334687,1.468884791437009,2.0651247378541546,0.17917490280744486,2.5173906639299406,1.2792461547336806
227,227,227,227,11.7,0.393,-7.21,3.03,-1.42,-0.0861,-0.132,-0.568,-17.5,5.71,90.0,11700000000.0,0.7618865545985171,-6.219289277296633,0.8879826791964542,-1.1351320109292975,-0.4665434896556323,0.01649647967723844,3.4191573755056703,-11.111939106665456,-0.24699796069084545,1.2175769523479838,0.3408532476745872,1.445671287361764,2.7375756488990355,2.461116211829216,2.069970997628116,0.5174225505909373,0.2168804622507336,1.3731624377409968,0.17947271856455851,-0.3544509911360626,0.3227145562350319,1.86841889724894,0.5831778173924107,1.049990276073706,2.30542651779094,1.4656472573012531,1.9757062016629632,0.17363333388375196,2.282530828019314,1.1843045983665055
228,228,228,228,11.7,-5.72,-17.6,14.1,-0.198,-0.816,-0.203,2.76,-8.91,-6.02,90.0,11700000000.0,-1.783442736124644,-11.090972813299036,7.116807785642827,-0.3967490438539033,-0.6995850547135253,-0.14270816849099982,3.1285551175390256,-10.194109691037852,-3.2901353316558573,1.2274734737071091,0.3138389938391549,1.5887707481703326,2.9178061213861954,3.0986863904671202,2.514423605532796,0.5756767249384807,0.17547556807792455,1.5240338057004748,-0.27889088551958424,1.3122487117797244,-1.0664561396475003,2.183615379928065,0.7328154156674693,-0.43672357732093936,2.537701432098929,1.535867875794188,1.9262680366435876,0.18254549648370788,2.194240134750542,1.14945341475248
229,229,229,229,11.8,-2.06,-8.49,2.51,0.905,-0.906,0.82,8.74,-7.35,-7.69,90.0,11800000000.0,-1.8920421655523247,-9.977587416622693,4.944921499852423,0.6289221400911599,-0.8372367132176509,0.555560971946792,5.602468819772715,-9.008605771133057,-5.609447316412406,1.3089947117337848,0.2883129415088145,1.8008360635549223,2.9722151694833867,3.2327407982124883,2.954868516174757,0.555373551381004,0.17156372193447222,1.4480068095094272,-1.3769145951303328,0.985425353146152,-0.4435770538129707,2.248520719541664,0.32161870444590485,0.04832000700574321,2.4969429574761337,1.7167646105802927,1.9314692066929497,0.19350142815813134,2.0511061022836827,1.1544838684038206
230,230,230,230,11.8,3.9,-6.7,0.8140000000000001,-0.215,0.868,-0.152,4.69,-19.5,-7.61,90.0,11800000000.0,0.3823967918161428,-8.574567039564322,2.9973925102969794,-0.036019115186693214,0.2999320939227226,0.04235457345852034,5.200189350955636,-13.381710157974739,-6.664003857181449,1.256582999963618,0.31097308888515823,1.7386973911720458,2.497305006078661,3.2413330308930863,3.3690051687418014,0.5116501457770276,0.17252154419743346,1.3372652535127958,-0.5772871478057879,-0.6742335098054137,-0.6784339110189029,2.9711452654448345,0.6576046322334677,-0.11242138796396256,2.370818379783592,1.65751737271722,1.8350326171511802,0.20759185408442193,2.1942597765889134,1.180307591640677
231,231,231,231,11.9,-0.7090000000000001,-18.9,0.565,0.514,1.29,-0.2,9.89,-5.2,-10.1,90.0,11900000000.0,-0.046176628388451664,-12.994522825860171,1.8506374957987977,0.39735071954532414,0.9601772709354052,-0.13342945805501338,7.267783061873372,-9.971346136063985,-8.475229523293496,1.1710280441956966,0.32664828030197257,1.6204970040401216,2.1061626068462016,2.817786611514712,2.957623634714793,0.5100572199020471,0.15087784486329994,1.281776769241712,-0.7878919714715231,-1.385817625698362,-1.0759177748530802,2.44452266875134,-0.682550275434538,-0.7234353939334358,2.229272565576,1.5448046542209708,1.7977678112561017,0.2250100777955956,2.480258893196961,1.2885815777499139
232,232,232,232,11.9,4.13,-4.89,-2.16,-1.19,0.875,-0.35,6.25,-13.9,-8.89,90.0,11900000000.0,1.5937387328711796,-9.525260606045011,-0.04018346919376037,-0.8533511680506602,0.9033752231689558,-0.2905118721022968,6.8190737511499915,-11.608917978639731,-8.693868730138137,1.1805643030977069,0.3015929943650593,1.5984071680244205,1.9552615454622653,2.350043799916082,2.3894718654503038,0.5188090296829106,0.12742161004254018,1.285089659796498,-0.11100993356693632,-2.3544178317921673,-0.3584403127595457,2.7245245845096377,0.007740940146011152,0.011856999397842141,2.0599090956746924,1.673310577376911,1.666411684977192,0.2182117349187444,2.7066576670429883,1.2166784496109593
233,233,233,233,12.0,-0.0862,-14.5,-1.43,-1.58,1.96,-1.14,4.7,-8.46,-6.8,90.0,12000000000.0,0.9340546481723928,-11.654772178704688,-0.6954144845318421,-1.4258907306446795,1.6080051385499314,-0.9066605230763763,5.884839095991888,-10.296361557732023,-7.695548946470756,1.1628481401622166,0.2655349335165373,1.6755739742042333,1.9055085897398385,1.8257869685107684,2.165602838882556,0.5537673002907656,0.09343709161042756,1.2617507281909983,0.7853273303909011,-2.6853235235798723,-1.0809633968794592,2.175826521952072,-0.5776288347803089,-0.14772005442289834,1.9592843876049297,1.7520231958105217,1.5308605218054703,0.20102739741119674,2.840386899636907,1.1693187522810637
234,234,234,234,12.0,-2.21,-9.95,-0.00239,-1.91,1.47,-0.735,5.63,-5.8,-6.98,90.0,12000000000.0,-0.30056349522597997,-10.925018878685927,-0.36868707576856896,-1.8073290013162613,1.5159738635311089,-0.7821521406604888,5.772488411410137,-8.422153307627564,-7.318359803961557,1.1925251902237808,0.21964747100311924,1.6487272222636191,1.883177434821916,1.4934412377132549,1.7196233960200873,0.5815667966101924,0.06618564896935754,1.3282884405982809,1.058708645722526,-2.157889334511519,-1.029818160094453,1.9344592076137617,-0.6343723285015914,0.2017420324809587,1.8282677058425099,1.72512015330282,1.5752349060140343,0.18207727416489475,3.058196486058457,1.1168032367775311
235,235,235,235,12.1,-1.55,-8.25,-0.7609999999999999,-1.94,0.6990000000000001,-0.836,6.09,-5.46,-5.78,90.0,12100000000.0,-0.7911964748809593,-9.779937054667805,-0.5536435682215965,-1.9118628841085807,0.9711596442394832,-0.8212089572663187,5.912469591946008,-7.187445586739451,-6.507440362994673,1.2568436175441546,0.19703787678265644,1.7977273120950343,1.845102289911331,1.509813593420858,1.4608395324700516,0.5068814015631665,0.09540332801525728,1.2733086789253143,1.1098242188723413,-1.7948264556472255,-0.6482655548561471,1.7278418240182531,-0.556111651849496,0.7301685601326781,1.646772849234306,1.879011517349677,1.538288748204484,0.15434527710008855,2.9877595260009855,1.1614544591372793
236,236,236,236,12.1,-1.09,-8.72,0.0455,-1.63,0.256,-0.713,7.55,-5.4,-4.85,90.0,12100000000.0,-0.9085316778080604,-9.326215266083718,-0.2711764554423135,-1.6897781046624576,0.4942421387131721,-0.7427230994068258,6.6344065682978615,-6.442388681142304,-5.6337495204639785,1.1509356591537951,0.2312790064248481,1.8439241564905096,2.226961702883876,1.763023250199074,1.615004690022516,0.4659214242599141,0.12673447060261026,1.1497285755083766,0.8908621133159708,-1.414506913451775,-0.2679422305700052,1.699882203335071,-0.5998888284346741,0.9137237844059418,1.879868153019233,1.7672098402937197,1.5799563698128576,0.17544784444144487,2.8161462533984265,1.1571366362162285
237,237,237,237,12.2,0.227,-9.42,0.725,-1.27,0.341,-0.979,5.89,-5.34,-3.86,90.0,12200000000.0,-0.4626272170584317,-9.366361256228457,0.1984724054995669,-1.3590274606253754,0.3920497613853821,-0.9140988658087702,6.306220503329133,-5.982882536862574,-4.698748328229393,1.1246037309279686,0.2568009093752177,1.7781188566406891,2.4323079272882904,1.9829256589602549,1.7036973570139329,0.4449957325880065,0.12163022505735455,1.0840793597862315,0.92100923850206,-1.2818460331998718,-0.0782979498544553,1.5788139793380411,-0.5618171924802845,0.6512099656868645,2.1701412941475935,1.5959611305600627,1.545141761450227,0.19205155332692406,2.4497519343993055,1.1591271359958515
238,238,238,238,12.2,-1.07,-10.0,1.24,-1.04,0.374,-0.98,4.02,-5.47,-4.71,90.0,12200000000.0,-0.7011324586012152,-9.637599793745958,0.689502120663168,-1.1076600245489097,0.3800129507923405,-0.9618981298973138,5.298296051451628,-5.769098768902474,-4.704679470955036,1.1161067909600575,0.2289295377414848,1.7051381144313502,2.8453788776893125,2.1395508758113797,1.8951179402378002,0.4628402107368844,0.11709324563118875,1.2050694461410494,0.8884468873063595,-1.0647877000420958,-0.2516991911068541,1.4034687248803084,-0.4235858385418429,0.4857490206750642,2.340515963150862,1.6019526744626653,1.2429543879279223,0.17766617159610898,2.2695047727527315,1.0812090259506073
239,239,239,239,12.3,-2.85,-10.6,0.012,-0.498,0.473,-0.635,4.13,-7.46,-3.43,90.0,12300000000.0,-1.5449570740484235,-10.049569753736748,0.3700927531233728,-0.6272980530645917,0.4420230878154944,-0.7247931670433778,4.7832302341328665,-6.473913362362652,-4.032754445237568,1.1258155384180113,0.2144323499865273,1.8958617955997912,3.049364488883361,2.523907132067188,2.243830016852756,0.5463359050031259,0.09412088924818056,1.2958827494319192,0.5460800641465073,-0.7205438736802291,-0.6803458844488814,1.2781810712384198,-0.5895602101914309,0.6435366098677827,2.6039676236946385,1.6522929729413485,1.1594693492120074,0.18664588124738174,2.174879019909484,0.9755345357755673
240,240,240,240,12.3,-2.7,-12.9,1.07,-0.204,0.282,-0.281,2.72,-9.3,-2.1,90.0,12300000000.0,-1.9985232978994318,-11.269738872848494,0.7000650750264579,-0.2937739911472074,0.3353087181242533,-0.4029021788021971,3.873615368191128,-7.651904812988441,-3.0139365839583014,1.2616973488041858,0.1912232689337064,2.059074549495533,3.1154132753527035,2.953067786736479,3.1435651395257023,0.5490979772425592,0.1053441102113836,1.2081016117793786,0.08421505034323036,-0.3163239471264033,-1.128747385120957,1.1509032727618804,-0.6438711133421179,0.5684978547905861,2.794846554473198,1.8362703572416275,1.199259137867188,0.19928823705438542,2.0966853480744603,1.0012378392113324
241,241,241,241,12.4,-4.24,-14.6,2.3,0.7879999999999999,0.773,0.35700000000000004,5.57,-8.31,1.23,90.0,12400000000.0,-2.8787139427625785,-12.695307100846446,1.4543567174473848,0.5585749521221723,0.6271912935505077,0.1482682151517256,4.621499356833744,-7.926217332518848,-0.7768193906119674,1.2581371545703803,0.21404145082738346,1.9602276463939985,2.602871217744473,2.975686691085122,3.4948370254514654,0.5063321901310619,0.12497212703362676,1.1376703974377285,-0.4776994357106926,0.4745851245152724,-1.5140295517256608,1.1733711497327366,-1.3078144578561954,0.21597135818674726,2.7623536246341174,1.7692586832151405,1.2177169734099274,0.20793261776846556,2.0791934176025135,1.070712922354135
242,242,242,242,12.4,-1.77,-12.9,5.85,2.29,0.0641,1.34,9.46,-12.2,-12.3,90.0,12400000000.0,-2.443340353658648,-12.782928793306198,3.526689139361113,1.9227954883753249,0.2516833868488489,1.0126522369810604,6.7546457875185775,-9.707648521715976,-6.8510632592827365,1.1975085475290572,0.23754966341003786,1.911317893379998,2.2179412505516902,2.694853979489192,2.7630129506310808,0.4876488887779124,0.11928034247597008,1.0891927934139145,-2.195642306600904,0.5726027814037311,-1.310777944581106,2.252450133677606,-0.7062992521497159,-0.4872336593092017,2.590448083733355,1.7120059662373375,1.332963954714948,0.22058697582879291,2.271048768492021,1.1777757101080353
243,243,243,243,12.5,2.14,-15.6,-6.77,2.49,-1.57,1.29,5.78,-12.9,-5.11,90.0,12500000000.0,-0.6435385524571899,-13.988818403381979,-1.3277000350255848,2.3697060110229837,-0.9631401053594516,1.213817413746029,6.324954469440463,-11.038309088011859,-5.9332921854700045,1.2047520875660986,0.22672034320934345,1.858052930240811,1.852213272828488,2.29234404601943,2.1019800950427485,0.4814772446506342,0.1149435344032487,1.0379966356816548,-3.4734128110136733,-0.6499647657608524,-0.7654345517896727,1.421639354963831,-0.911719298740974,0.5937103619831907,2.1703096957821413,1.8230722975071134,1.2900963558539449,0.21155129104467463,2.620145904813672,1.0823549924998335
244,244,244,244,12.5,-1.33,-15.2,1.24,2.4,-1.08,1.03,6.58,-11.2,-7.93,90.0,12500000000.0,-0.9131005974660462,-14.507282711995316,-0.11715408634422644,2.393575258467957,-1.0410703287880465,1.0804913938511431,6.4373961815043295,-11.105706269644664,-6.985821809677013,1.2046850630747372,0.2052564752401244,1.802348863065742,1.6739834157991995,1.80765751601448,1.931778359341137,0.4998817226853946,0.08452059127471957,0.9883292203923281,-3.4684478172096185,-0.4612840636872962,-0.9439587756683104,1.6144737300031582,-0.7511870042424856,0.3444947571497638,2.0128816728442667,1.8953919663513064,1.2378709271022574,0.1918825022183354,2.6877827524338045,1.0394484210437083
245,245,245,245,12.6,-0.215,-12.4,-0.955,1.94,-1.26,1.45,7.26,-6.45,-8.0,90.0,12600000000.0,-0.6389680695288595,-13.605228678801774,-0.5121577622369629,2.0361952964139376,-1.1870676466570185,1.3485025112984894,6.8000570558340945,-9.165078560725588,-7.520428161965031,1.2574895329183673,0.16051219577643325,1.6347961148587855,1.5660338331976391,1.3416296237435517,1.4566988170949666,0.5248036176526132,0.04531478067669813,1.0406827135144887,-3.4596524616724427,-0.5842573199183326,-0.3307670229834977,1.415932303998213,-0.7199876662105364,0.4900271111402858,1.744415671781623,1.8575851099686165,1.330703646700929,0.1707190613324689,2.735988628573472,1.0239345490505116
246,246,246,246,12.6,0.843,-6.53,-0.5820000000000001,1.55,-1.15,1.25,7.23,-4.0,-8.11,90.0,12600000000.0,-0.05702378336140568,-10.576571354110358,-0.5450849956692053,1.653113344079316,-1.1623483809756263,1.2770569095496331,6.9896057110557885,-7.012130418700577,-7.831210497069982,1.3740002728911298,0.12922548435728062,1.832914582169037,1.4253933713119733,1.0674057466937732,1.1424666005682351,0.4578672736811248,0.0818824577862141,0.9569668295522304,-2.8989940225873605,-0.6749511003780467,0.5946953658711136,1.4091979338144385,-0.3690485790126929,0.6331468511313254,1.3665366955766647,2.1035826822285966,1.4145595248471239,0.1519350982586098,2.614697496612022,1.0772612363181746
247,247,247,247,12.7,1.32,-3.34,-0.311,0.879,-1.28,0.785,7.12,-5.19,-9.28,90.0,12700000000.0,0.4837106443777015,-7.478848758539073,-0.4347252764902918,1.0431756890340766,-1.2408065328407047,0.9201594085591204,7.047092500093153,-6.252615896287413,-8.594914485214929,1.292503750740336,0.17260280201376793,1.9323273656420268,1.877448899497724,1.3806387927540942,1.3913173016402989,0.4367785956507027,0.1218801674973161,0.8174415074271131,-2.1723098935696044,-0.8680512430929884,1.271539007816832,1.6438803778718842,0.2083176625995975,0.9244015444773944,1.658932707338131,2.069672202273692,1.6008607675103972,0.17460138143227627,2.49065794214779,1.119086912088814
248,248,248,248,12.7,1.71,-4.22,-1.15,-0.00153,-1.18,0.546,6.75,-5.2,-8.31,90.0,12700000000.0,0.9652541560705338,-6.083849736061901,-0.7719425818024401,0.2200335100065696,-1.2002565301887629,0.6487750197798959,6.916113536174741,-5.813856287469015,-8.44472700260252,1.335697646674252,0.20588044784360932,1.9028247195263857,2.102031506642771,1.4865168325473592,1.5264955261551536,0.412085689017461,0.11942330362635245,0.7334207767644829,-1.5038851552948305,-1.1850042425013896,1.6167792857214758,1.6702129867918691,0.4342837081968112,1.1583218145443188,1.912079344790427,1.9646409837293415,1.6182122442117284,0.1942527042012991,2.2210884604811203,1.172067408582309
249,249,249,249,12.8,1.69,-4.41,0.0455,-1.13,-0.469,-0.00298,2.7,-11.6,2.68,90.0,12800000000.0,1.2498498543599914,-5.367333266253212,-0.38655807917808616,-0.8436818817227391,-0.7126045164817332,0.17604565506831935,5.057358514382361,-8.22568178638608,-2.5805210716347986,1.3515218480741615,0.1883809329523671,1.7372293075079523,2.4506057588881576,1.7460801611416947,1.7462578853393746,0.411701924181499,0.11169663333067156,0.8385202885392434,-0.190768394935272,-0.8547688090062491,1.2004037578854052,1.6769710449271542,0.427675330566839,1.2341223893338482,2.036637088991585,1.9068201623523906,1.353805347586204,0.18673121040528384,2.1132430711151637,1.1147976214389983
250,250,250,250,12.8,-2.25,-11.6,11.1,-1.46,-0.652,-0.7190000000000001,-0.266,-15.1,-2.47,90.0,12800000000.0,-0.1244831520488172,-8.035319606706942,5.0287967393396436,-1.3292899104471951,-0.6721892738534888,-0.4731466678634022,2.710453146845485,-11.091088628309159,-2.522261830580113,1.378780208695513,0.1719366450751192,1.8529612563798517,2.8847933176950424,2.3785033877116577,2.2606539241942984,0.4936158999690805,0.08751211817518806,0.9292963536773328,0.4684139911108249,0.3852562474026506,-0.33481028906103244,2.2544861501156364,1.1639794784626043,0.18524713441138127,2.121693504533921,2.0119650686357478,1.369114761085689,0.1925011004674155,2.0484343767875437,1.0267182710649982
251,251,251,251,12.9,-4.85,-15.2,6.2,0.335,-0.275,0.328,8.52,-7.28,-6.93,90.0,12900000000.0,-1.9801152264714041,-11.102268083303144,5.580962142920941,-0.017966305477515432,-0.4073162212255168,0.1079390899243804,5.271704229859965,-9.50252116834942,-4.845724073514484,1.5702246281132868,0.153337406579298,2.0060056720573884,2.9721613648582212,3.003335094219215,3.0686329095558005,0.4891155995589857,0.08945125366305219,0.8740574389065691,-0.6599986995653916,0.8708326200182975,-0.930454723443964,2.321411778147953,0.1826962758013892,-0.2284063723354154,2.0560949429247843,2.165049542164886,1.4165169621055111,0.20963549925820638,1.9996129887946335,1.1156269959736025
252,252,252,252,12.9,3.92,-7.14,1.73,0.581,0.6459999999999999,0.52,3.67,-14.6,-3.05,90.0,12900000000.0,0.3367622224587425,-9.4061599350155,3.7654204064859487,0.4539698682129874,0.2951073153016115,0.4068140924672728,4.565562033499852,-11.627292025533974,-3.899139408896877,1.5903594082942625,0.1785190626722566,1.9351409964115882,2.313305059295113,2.9633364433634206,3.2803103556096422,0.4427223924553212,0.1180298193497804,0.7629844427651096,-0.8004056937301633,-0.015122317881890038,-0.4776183312077712,2.4676616301806478,0.31408970124311963,-0.5494420105264518,1.992416109469545,2.1435402881149823,1.3997797685983826,0.20976889630907078,2.00512167924194,1.2754508672212124
253,253,253,253,13.0,-1.55,-14.5,5.26,0.028999999999999998,1.23,-0.541,7.52,-7.28,-10.6,90.0,13000000000.0,-0.404137998962661,-11.586654330529587,4.4700422538912745,0.11912855577666735,0.918557907613106,-0.2806521244131435,5.868083036870363,-9.815220103012779,-7.431381450697678,1.532950307649804,0.21090640097815666,1.7549988111380808,1.8028948518520438,2.4169393707314364,2.620968787989018,0.4470790248648988,0.11845026887262156,0.7109543044122094,-0.20952198047515871,-0.526589037209933,-1.0522737400910198,2.608703781210536,-0.06722311406529308,-1.0567554357152515,1.897878106848621,2.0709907300636217,1.6107126032937142,0.22196720896856723,2.257029341196643,1.387318366517823
254,254,254,254,13.0,1.83,-7.26,-2.6,-0.677,0.6679999999999999,0.0801,8.15,-10.8,-10.4,90.0,13000000000.0,0.4731709655923265,-9.734565356471924,1.1368605179123414,-0.5081552713133107,0.7514686940790622,-0.018992271640872138,6.874110013385582,-10.225703783994133,-8.996236764274768,1.6762886335177172,0.20663317004133008,1.784480050901479,1.5239054549283866,1.9127121075478857,2.0275860675600046,0.3792733216205991,0.12004718091137905,0.7193236372209673,-0.3744129669211211,-1.6398330558567067,-0.4325669466819714,2.620039632607063,-0.03536148136413116,-0.0773541779646639,1.7398918350917054,2.3291572686174593,1.587261202070399,0.19363132254949175,2.4712425166487098,1.431462395722617
255,255,255,255,13.1,2.13,-11.6,-2.66,-1.56,1.49,-1.12,5.35,-10.5,-7.89,90.0,13100000000.0,1.1237803002774076,-10.533092708197046,-0.6531749775897937,-1.3369223814671258,1.2439720414739208,-0.8175725208801089,6.202176649603403,-10.340038062102645,-8.413103269257352,1.5426283439209416,0.18834495130083104,1.8782144076575784,1.472494068281875,1.2712780950044629,1.7821521610571618,0.3746992695372415,0.09081584383844744,0.7090028099191137,0.5785867214877254,-2.638171649122418,-0.7247920655893825,2.318499091503771,-0.2890895257863909,0.05971563662812481,1.6925703476264347,2.3809736666694996,1.4936128471156334,0.15202233258066586,2.496096744841676,1.2819903117469673
256,256,256,256,13.1,-1.23,-12.2,-0.826,-1.86,1.58,-0.825,6.79,-6.28,-6.68,90.0,13100000000.0,0.19948979716068085,-11.246637213982911,-0.7346535759706143,-1.7490645445765736,1.4680585657206893,-0.8229597933110797,6.461329904503492,-8.647701566562434,-7.499528004547407,1.544606406885238,0.14597228904285364,1.6658319196063058,1.3552038964995818,1.070005953355579,1.4371314345325024,0.3945225746792073,0.040508073127595516,0.7889709941672222,0.9387481266814784,-2.429419676136586,-0.8960674486694679,2.02211673669752,-0.7448387417713653,0.16226572374859904,1.5980269237022966,2.289852248987992,1.5001425825510724,0.12122594736697492,2.554523030292362,1.2252847640450502
257,257,257,257,13.2,-0.165,-8.89,-0.275,-1.78,0.95,-0.878,5.24,-4.71,-6.15,90.0,13200000000.0,0.05636069488677525,-10.237843568485527,-0.5179492268192883,-1.7734391171506867,1.1225815652268132,-0.8628814372815926,5.922882937908947,-7.0063582472344565,-6.788147894304832,1.7237012584353468,0.10764045437141684,1.9079555136605664,1.091016624644268,0.8335790214826158,1.0366422027121227,0.3497015188902945,0.07692254141520481,0.6942794096412782,1.0715759500327635,-2.1062483733245023,-0.4871663230751846,1.7131716986604164,-0.5747658734920551,0.3364956781461039,1.2155673537074028,2.4825842547156496,1.5932818473056838,0.103866572179019,2.517504923196547,1.2956594190726312
258,258,258,258,13.2,-1.81,-8.12,-0.256,-1.5,0.7290000000000001,-0.664,6.03,-4.81,-5.05,90.0,13200000000.0,-0.6765281811921857,-9.331268917086438,-0.3944528857110707,-1.5579915771559367,0.8601143577964374,-0.7186292189213653,5.970107655082054,-6.0908551285107135,-5.871913634477768,1.6843780565255235,0.14429875355089927,1.9460400275654324,1.7936144548621735,1.2534316577633866,1.350750071839925,0.29948256219086583,0.12113367716961618,0.5986426720460338,0.9838861822284763,-1.57128152788208,-0.3159753565608697,1.569894589452704,-0.5984389574690583,0.6455531766680507,1.5214935808367271,2.516359079645028,1.773924117663292,0.12172236427960971,2.234185065011732,1.3809370754840793
