,Unnamed: 0,Unnamed: 0.1,Unnamed: 0.1.1,Time (s),Acceleration x (m/s^2),Acceleration y (m/s^2),Acceleration z (m/s^2),Gyroscope x (rad/s),Gyroscope y (rad/s),Gyroscope z (rad/s),Linear Acceleration x (m/s^2),Linear Acceleration y (m/s^2),Linear Acceleration z (m/s^2),SPM/RPM,Timestamps,Acceleration x (m/s^2)_kalman,Acceleration y (m/s^2)_kalman,Acceleration z (m/s^2)_kalman,Gyroscope x (rad/s)_kalman,Gyroscope y (rad/s)_kalman,Gyroscope z (rad/s)_kalman,Linear Acceleration x (m/s^2)_kalman,Linear Acceleration y (m/s^2)_kalman,Linear Acceleration z (m/s^2)_kalman,Acceleration x (m/s^2)_kalman_max_freq,Acceleration y (m/s^2)_kalman_max_freq,Acceleration z (m/s^2)_kalman_max_freq,Gyroscope x (rad/s)_kalman_max_freq,Gyroscope y (rad/s)_kalman_max_freq,Gyroscope z (rad/s)_kalman_max_freq,Linear Acceleration x (m/s^2)_kalman_max_freq,Linear Acceleration y (m/s^2)_kalman_max_freq,Linear Acceleration z (m/s^2)_kalman_max_freq,0,1,2,3,4,5,0_max_freq,1_max_freq,2_max_freq,3_max_freq,4_max_freq,5_max_freq
0,0,0,0,0.0,4.64,5.47,6.09,-0.945,1.11,-0.5579999999999999,3.49,0.904,-2.58,90.0,0.0,3.4118384348723056,4.108463098963574,4.820280442512222,-0.799298206725673,1.0007703608885967,-0.4519047839964052,2.289814945900921,0.6797667904674685,-2.077651649862166,,,,,,,,,,3.4019391405417587,-2.2970331083033155,2.994913676774282,-1.500931033473934,-1.2324480197706185,-2.0923839965854483,,,,,,
1,1,1,1,0.0495,4.95,5.69,5.85,-0.276,0.833,-0.294,2.29,0.96,-2.61,90.0,49500000.0,3.7669826629597503,4.4808087846462845,5.1942012739749215,-0.42657785571997703,0.8916655610586679,-0.3487275710813135,2.289870298899042,0.7502229834392719,-2.290845237386892,,,,,,,,,,3.1663457004888285,-2.479843871152238,3.157903448889768,-1.6369863479183442,-1.3177924637257137,-2.3726314701652047,,,,,,
2,2,2,2,0.0995,3.18,5.54,6.02,-1.1,1.05,0.187,1.56,0.79,-3.76,90.0,99500000.0,3.572738441509518,4.841287702411539,5.582601733353068,-0.9304147080678916,1.0022236864024496,0.0244083304760988,1.9922707700333049,0.7644872367654512,-3.033804697035365,,,,,,,,,,3.1823588455807617,-2.544628563662486,3.3531144737830143,-1.5838532071018685,-1.2066724647487816,-2.408510660367872,,,,,,
3,3,3,3,0.15,2.11,5.09,5.04,-0.193,0.337,-0.0641,2.3,0.8009999999999999,-1.49,90.0,150000000.0,3.0272956281263075,4.9365516500295,5.311955818401524,-0.3770355308948008,0.5348645649980595,-0.037584741168868285,2.1287557529107684,0.7790873567299506,-2.2153655713810867,,,,,,,,,,2.660516620372753,-2.417504183141841,3.476592280264037,-1.5871092340924404,-1.4220275431940672,-2.096784665814234,,,,,,
4,4,4,4,0.2,2.52,4.74,7.49,-0.381,0.659,-0.305,2.66,1.1,-1.41,90.0,200000000.0,2.8299707117781883,4.858154354410794,6.413701295572943,-0.3800111594158223,0.6221242507045919,-0.22498186379464147,2.370146071385568,0.9120620648338844,-1.7841098517046257,,,,,,,,,,2.790742737320754,-2.277427150511352,3.783589694407656,-1.7053681894919384,-1.0781463341833497,-2.0787336562607406,,,,,,
5,5,5,5,0.25,2.64,4.98,7.6,-0.124,0.535,-0.0683,2.73,0.8240000000000001,-1.22,90.0,250000000.0,2.7549474687289637,4.907444735288412,7.015815457869978,-0.1878541188127001,0.5608782700300902,-0.11517868010904027,2.534815809862912,0.8751380312060345,-1.4813936744324163,,,,,,,,,,2.556232050549819,-2.2682589042858505,3.9896213505010234,-1.8329148861074973,-0.9778948308049,-2.1666978631212324,,,,,,
6,6,6,6,0.3,2.59,4.6,7.83,0.477,-0.674,-0.192,2.19,1.1,-1.74,90.0,300000000.0,2.68944853518698,4.782457856292729,7.429398862852966,0.31117292123515705,-0.3072115293126721,-0.1690155405274282,2.376702003849611,0.9697945380726232,-1.620232357460184,,,,,,,,,,1.9170389817257305,-2.4205791190786567,4.259535623799716,-1.910381797561037,-1.2571224882029388,-1.9893461070441991,,,,,,
7,7,7,7,0.35,2.21,4.93,7.28,-0.264,3.79,0.0795,1.49,1.79,-3.15,90.0,350000000.0,2.4986870445351377,4.842542698216934,7.353493411092751,-0.1205411124550092,2.573030869470605,0.005145758117066995,1.969863230379292,1.315518703293408,-2.44160373769356,,,,,,,,,,3.3156803527636334,-2.007882380201867,3.877823063469767,-1.3506446230410298,0.08902305457062795,-3.0000498046676096,,,,,,
8,8,8,8,0.4,1.15,5.75,5.82,-2.29,2.19,1.27,2.28,0.773,1.29,90.0,400000000.0,1.9616907233853629,5.212319264447509,6.574329265507598,-1.7488963447268548,2.3037692938826417,0.8915638193203999,2.1121860530801952,1.0867412443166329,-0.4379680959794667,,,,,,,,,,3.283855022447862,-1.7970731528219543,3.78229191264752,-1.5835896423743436,-0.35295346263876404,-2.3769753429564715,,,,,,
9,9,9,9,0.45,0.285,4.35,10.2,-1.43,1.15,0.342,2.26,-0.00387,1.2,90.0,450000000.0,1.2939224420284667,4.860860886827365,8.416544911468087,-1.5095386739723935,1.4926968283844009,0.5064259266800566,2.1800218860432508,0.6267680945712577,0.4415213855957716,,,,,,,,,,2.901582142349972,-1.5126866849875664,4.439345339544751,-1.809599175478476,-0.1441334706899424,-1.9527694211636424,,,,,,
10,10,10,10,0.5,-0.285,2.78,10.3,-0.515,1.2,0.614,2.89,-0.334,1.13,90.0,500000000.0,0.665032831205161,4.012694021903004,9.373537686705141,-0.7630565374234879,1.2869379336210651,0.5818145524628233,2.5058551156385835,0.2215372707814527,0.8111929725020457,,,,,,,,,,2.1516457127620243,-1.3555475587628183,4.684345020468895,-1.8433590665896695,0.2260010946913979,-1.9615768293586824,,,,,,
11,11,11,11,0.55,-0.256,2.16,10.1,-1.19,0.982,0.25,1.97,-0.0989,0.743,90.0,550000000.0,0.29817017129999795,3.2575090680645986,9.742657160806294,-1.0835123573935994,1.0725737939879458,0.3492767564867477,2.2599318431269886,0.08638166064344012,0.7745774262741271,,,,,,,,,,2.259481396771628,-1.1878742512258975,4.714629391316066,-1.7306323902679368,0.3915215830681877,-1.6364156529575893,,,,,,
12,12,12,12,0.6,-1.47,2.06,9.67,-0.629,0.103,-0.389,2.33,0.248,1.08,90.0,600000000.0,-0.4061300212814582,2.769382461897481,9.705739712158154,-0.7423638896836449,0.3909864128584663,-0.16811239407118572,2.292088660214849,0.15455021385037826,0.9385710352510904,,,,,,,,,,2.0237549703623943,-1.0127648766316393,4.829371787680198,-1.5845756696913271,0.31347387700887885,-1.0147304174301892,,,,,,
13,13,13,13,0.65,-1.33,1.95,10.0,-0.121,-0.115,-0.276,1.93,0.34700000000000003,0.275,90.0,650000000.0,-0.7741289470898713,2.4353861345868126,9.855254925576252,-0.275979776222464,0.03528996393407008,-0.24372072499540165,2.12591278060296,0.2357232305584577,0.5822732268451436,,,,,,,,,,1.591893447314198,-1.0209066880814637,4.954694300550766,-1.4597296255722048,0.3178985384587077,-0.8809350600274918,,,,,,
14,14,14,14,0.7,-1.61,1.88,9.29,0.0382,0.145,-0.29600000000000004,1.53,0.975,0.975,90.0,700000000.0,-1.107076379034242,2.2089996049744625,9.568045876849276,-0.04016231410278834,0.11241351429699534,-0.2803583835358521,1.8524263592265136,0.5475415221456559,0.7931439417839947,,,,,,,,,,1.476302768036429,-0.9146278366282552,4.91610470743353,-1.2830433179410183,0.3514156178000701,-0.8101750111796902,,,,,,
15,15,15,15,0.75,-2.07,2.43,9.98,-0.28800000000000003,1.04,-0.935,2.76,0.924,-0.124,90.0,750000000.0,-1.4906320784370592,2.299083861591149,9.777361722306496,-0.2261846360214372,0.7644847868077164,-0.7391354868053146,2.268945468700833,0.7063273414353856,0.3006927012714669,,,,,,,,,,2.181490131517993,-0.7070194599099895,4.921195237455756,-1.1045100873078093,0.8661869458077701,-0.7041648142509379,,,,,,
16,16,16,16,0.8,-1.07,2.3,8.8,-1.46,-0.623,0.096,1.35,0.238,-2.09,90.0,800000000.0,-1.3230841517844236,2.299457278745248,9.280759136621997,-1.1522633983081445,-0.2108841286147356,-0.15386710663275238,1.8472074093082564,0.5087923028400155,-0.9829657227054124,,,,,,,,,,1.7825471039977066,-1.1147264002020951,4.873175330708555,-1.1168273667058362,0.2607076432143323,-0.33526427803851844,,,,,,
17,17,17,17,0.85,-2.43,1.19,6.91,-1.68,1.53,-1.26,3.28,-0.537,-0.942,90.0,850000000.0,-1.7639956118545197,1.8472199978795367,8.076163748747128,-1.5483725808418347,1.012916104101631,-0.9290522242053416,2.5047689214847906,0.06768922836374175,-0.9609695736312088,,,,,,,,,,3.0547486270105875,-0.6105989112423377,4.230423369811029,-0.7420957811379036,0.8384933559114183,-0.09881360664797152,,,,,,
18,18,18,18,0.9,-0.508,-0.481,8.1,-0.223,2.01,-1.89,2.85,-0.551,0.894,90.0,900000000.0,-1.2637020847929252,0.8981902547017384,8.088275268449587,-0.5535727164585748,1.7138424277804667,-1.6024906639810217,2.6632081914265253,-0.1932667201442181,0.03503773242503616,,,,,,,,,,3.3717681986654062,-0.3530564523549491,3.8756687807185917,-0.7290540591074341,1.2231920588856682,-0.5988775758564464,,,,,,
19,19,19,19,0.95,-1.89,-1.27,9.45,-0.913,1.52,-1.86,2.28,-0.102,-0.371,90.0,950000000.0,-1.513171740629326,0.014391888871559287,8.780174740890857,-0.8233521030826862,1.5775757851190948,-1.7829548911322426,2.487339762471485,-0.1547714740234714,-0.1829801515643792,,,,,,,,,,3.4525912411628523,-0.2569175730409445,3.952068624425425,-0.6445574805579135,1.5022198254529793,-0.4056151506657101,,,,,,
20,20,20,20,1.0,-3.07,-1.46,7.74,-1.72,1.3,-2.26,1.14,-0.4970000000000001,0.769,90.0,1000000000.0,-2.1332942003387583,-0.5866001998481586,8.251656313512957,-1.4963592641612318,1.3824465580903458,-2.117271198709809,1.8689956940582781,-0.2991195057241326,0.32817604024208435,,,,,,,,,,3.8236755663427537,0.102414708733672,3.793690496798831,-0.3850498707236165,1.446815385355219,0.22436873361154547,,,,,,
21,21,21,21,1.05,-4.61,-2.96,8.32,-1.32,0.848,-2.15,-0.8140000000000001,-0.0747,2.08,90.0,1050000000.0,-3.119826294608449,-1.554046169340639,8.286381948585896,-1.3639873386559231,1.0067432965013892,-2.140207822305793,0.6376697077589408,-0.2044619569087021,1.2688003057232693,,,,,,,,,,3.3577771084272587,0.5017364198818548,3.910496586782183,-0.059575347805122025,1.4532093153111107,0.6344385802515771,,,,,,
22,22,22,22,1.1,-6.59,-3.75,9.11,-1.69,1.1,-1.56,-2.5,0.7440000000000001,1.96,90.0,1100000000.0,-4.502080780037903,-2.4491615430485028,8.7048664809876,-1.6086863871342072,1.0723005639963001,-1.7335943675556136,-0.8023229992964247,0.1955883173992352,1.6399330701232218,,,,,,,,,,2.898045571771484,0.9103722527920372,4.1706268610753705,0.41065827275084377,1.7918461498176292,0.9301514235491892,,,,,,
23,23,23,23,1.15,-8.16,-3.97,8.43,-1.36,1.3,-1.04,-2.55,1.77,2.32,90.0,1150000000.0,-5.959118740098822,-3.069086192861708,8.565205517014133,-1.4220270473736685,1.232367833503012,-1.2475188979697758,-1.604396608388713,0.8596569198180624,2.005088151999983,,,,,,,,,,2.2291144675139014,1.2228589136850636,4.3318403753437975,0.8767506251125039,2.0695281127025176,1.1976445872317565,,,,,,
24,24,24,24,1.2,-8.24,-3.79,8.04,-0.841,1.53,-1.17,-1.75,2.43,3.09,90.0,1200000000.0,-6.867649022910952,-3.3629452844382506,8.298345784632076,-0.9859190291307232,1.4415961673184234,-1.1931931201337176,-1.6712193914001885,1.5220094690749404,2.58762064230064,,,,,,,,,,1.9110806272612528,1.4557411995754246,4.3847337245836036,1.1434947548869223,2.2735151455497933,1.3907097032136306,,,,,,
25,25,25,25,1.25,-7.5,-3.74,8.08,-1.16,1.75,-0.7809999999999999,-3.49,2.93,2.18,90.0,1250000000.0,-7.119529767347437,-3.5166404471043267,8.187403092878608,-1.1165809246228269,1.6583967470958798,-0.9043255139734604,-2.5059251028969056,2.1158835936735514,2.3687528622202487,,,,,,,,,,1.8184811568373933,1.4709031802582064,4.411010104351681,1.393861081541856,2.330432562597124,1.309211818308182,,,,,,
26,26,26,26,1.3,-9.28,-3.76,6.41,-0.975,0.992,0.0483,-2.34,3.07,3.35,90.0,1300000000.0,-7.980097399872494,-3.615838738793339,7.2842950625861755,-1.0103129487710094,1.1899356278197184,-0.2367193581315199,-2.429775895383358,2.5183188136674466,2.8956236208832817,,,,,,,,,,0.9065708493488708,1.4521397381088503,4.393209901529358,1.5161339407054906,2.0037581713657446,1.7098353510672442,,,,,,
27,27,27,27,1.35,-8.27,-3.95,6.76,-1.18,0.593,0.28,-2.34,3.2,3.16,90.0,1350000000.0,-8.095572825201952,-3.752049673992398,7.017898072613901,-1.1376768360532916,0.7703040356536124,0.12540092882912485,-2.3885743763395886,2.805844061899764,3.0375779123500384,,,,,,,,,,0.4749796710855307,1.3137749848481295,4.3913144457864846,1.4796696576717638,1.748777199313108,1.8870369610583797,,,,,,
28,28,28,28,1.4,-8.42,-3.97,5.93,-1.13,1.04,0.392,-0.823,2.38,3.1,90.0,1400000000.0,-8.224800074755207,-3.840890664375324,6.465131195962802,-1.1319147429280556,0.9598938752326204,0.31223528427064395,-1.6700743829209277,2.6262280176381894,3.071094775086564,,,,,,,,,,0.3860661249765504,1.2965019580517159,4.1700185912714405,1.4639317541786787,1.7953293114191318,1.9171219325517483,,,,,,
29,29,29,29,1.45,-7.14,-4.81,5.24,-1.05,0.112,0.555,0.069,2.66,4.32,90.0,1450000000.0,-7.7926978183705105,-4.235919285612005,5.842635411304544,-1.070431033313118,0.3638445933792135,0.482366380634044,-0.8719488122920391,2.6404726848019875,3.741682002716884,,,,,,,,,,-0.017397393044859145,1.0620370397749015,3.9038516441036015,1.1918682902174618,1.3593739048612643,2.0711313743809,,,,,,
30,30,30,30,1.5,-6.46,-4.51,5.81,-0.565,0.28600000000000003,0.399,-0.3,2.34,4.04,90.0,1500000000.0,-7.261851941384442,-4.347640243753505,5.8260531563928,-0.6910639520191988,0.3091216999060352,0.42394267131327695,-0.6094603485417358,2.5137367506847705,3.901860839094791,,,,,,,,,,-0.12397380013754772,0.9313823922853656,3.7967004160095335,1.0356839068865806,1.2622074106293542,1.8233732272628087,,,,,,
31,31,31,31,1.55,-7.0,-4.71,5.27,-0.674,0.236,1.01,-1.22,1.33,2.46,90.0,1550000000.0,-7.1575499566978475,-4.49534545426039,5.543519584276243,-0.6782560874263107,0.2577188801486887,0.8346554513875086,-0.8896595946557163,2.0144503191984446,3.1276681422034285,,,,,,,,,,-0.4806162622557506,0.7839537348201104,3.6769982372350474,1.1001468001437922,1.1726766010783938,1.6283273484234766,,,,,,
32,32,32,32,1.6,-8.18,-5.51,3.48,-0.975,0.153,0.984,0.271,0.132,3.32,90.0,1600000000.0,-7.56481675039017,-4.908939344631522,4.495034332123437,-0.900986535496884,0.18410398907308445,0.93931710120973,-0.3569899690225994,1.22045457968043,3.2309387685390867,,,,,,,,,,-0.5899601653905752,0.9106150974845398,3.296616130649167,1.178784847879009,1.0834107951157346,1.9713622016805703,,,,,,
33,33,33,33,1.65,-7.09,-6.3,4.02,-0.631,0.628,0.984,-0.603,0.294,2.56,90.0,1650000000.0,-7.375685773353777,-5.475963993283561,4.253666854976685,-0.6983396788155023,0.4961523713572185,0.9706311862784098,-0.4698930666013181,0.8296867694859802,2.870684894779254,,,,,,,,,,-0.6056000701231955,0.9144178218643629,3.036151235222584,1.2836713116111258,1.235735042957943,1.7008707238764431,,,,,,
34,34,34,34,1.7,-8.23,-5.85,2.93,-0.84,0.122,0.825,0.897,-0.138,2.28,90.0,1700000000.0,-7.715979685892369,-5.6284286261643,3.5811047287841786,-0.8046672464518698,0.2331321292518175,0.8685718956193591,0.1574247366887821,0.4215277008046109,2.553522549044243,,,,,,,,,,-0.6590222670536103,0.9308350009837429,2.8452265948535116,1.3351822233174626,1.1386134965918149,2.100696978598961,,,,,,
35,35,35,35,1.75,-7.07,-5.85,2.28,-0.5770000000000001,0.505,0.146,0.838,0.581,1.32,90.0,1750000000.0,-7.458670364277463,-5.718745578637508,2.9200064902996545,-0.6337844862504087,0.4242487909832523,0.3621888111711273,0.469765902702143,0.4887912568831971,1.891195015287114,,,,,,,,,,-0.2131743282561366,0.8848361969030204,2.5482702782468607,1.4699100810695154,1.1536028123796496,2.136562662381198,,,,,,
36,36,36,36,1.8,-7.25,-4.96,1.11,-0.565,-0.362,0.281,1.88,2.21,1.33,90.0,1800000000.0,-7.375551892730748,-5.409465488756387,2.0003325853929765,-0.5821561356969049,-0.12846545310140178,0.3052911561882734,1.1169744994090196,1.2147771831450311,1.5898670030013444,,,,,,,,,,-0.3693771300365053,0.5932857174178331,2.4224247256769686,1.4426681746844623,0.6969146059168573,2.513285673674252,,,,,,
37,37,37,37,1.85,-6.25,-3.26,0.785,-0.224,-0.35700000000000004,-0.745,1.87,2.22,1.27,90.0,1850000000.0,-6.927217251181477,-4.5332997032169065,1.3828156564355076,-0.31333084475212925,-0.2891198145880521,-0.4307597188857792,1.4625657620156016,1.6387685353322876,1.4181176133904092,,,,,,,,,,0.1774752356452996,0.4916489726001708,2.3627661267517843,1.4037197900811278,0.3700001722951384,2.6836732644862686,,,,,,
38,38,38,38,1.9,-5.44,-3.53,0.606,-0.504,0.37,-1.76,1.28,2.68,0.956,90.0,1900000000.0,-6.334822540758362,-4.124334358871569,0.9881114982345334,-0.4564435522941311,0.17422578568153102,-1.362299944538179,1.3787795666714728,2.0779479341496234,1.1699881795056004,,,,,,,,,,1.350713532318135,0.5584112370757344,2.154450513708116,1.5074355068690324,0.4052678351292553,2.67874438037263,,,,,,
39,39,39,39,1.95,-6.54,-3.23,0.5579999999999999,0.339,1.18,-2.4,-1.15,1.64,0.4320000000000001,90.0,1950000000.0,-6.416549688244476,-3.759785521038928,0.7695695755954336,0.14060148924446908,0.8812611669277612,-2.089526957842423,0.21822908220529705,1.89322656247504,0.7737328336952011,,,,,,,,,,1.971280925539074,0.8934769390674202,2.128841134205183,1.9085308093079727,0.6486373496191038,2.402727693958055,,,,,,
40,40,40,40,2.0,-8.27,-5.04,-0.383,0.636,-1.54,-2.1,-0.315,-0.588,0.831,90.0,2000000000.0,-7.154824122100711,-4.28162692397635,0.1839428588822697,0.5124383281541922,-0.8208279801104315,-2.0968664670528683,-0.026489469347593414,0.8466739399889267,0.8044818484458175,,,,,,,,,,0.8226821673788851,0.9088616494972479,2.206810529550773,1.9326057020574736,-0.05656182816390766,3.2347608791055498,,,,,,
41,41,41,41,2.05,-6.57,-8.1,0.0431,-0.358,0.0165,-0.569,-2.98,-4.33,1.34,90.0,2050000000.0,-6.921874546090031,-5.838073483609168,0.11237985385956856,-0.1408964070820653,-0.2322062695628984,-1.0261277160625897,-1.3819647258125654,-1.3367871315555857,1.0920229672243724,,,,,,,,,,0.4149968537120189,1.152371867215456,1.7078824896639508,2.0074383464538177,0.1839353651334088,2.5453207398072673,,,,,,
42,42,42,42,2.1,-8.56,-12.4,0.747,-0.903,-0.338,-0.445,-1.26,-0.482,1.73,90.0,2100000000.0,-7.5743798468792605,-8.512847826914834,0.4348337104498869,-0.7129171066115982,-0.3065767525519549,-0.6188696288739861,-1.3259905966723702,-0.9762478181029108,1.434578347051042,,,,,,,,,,-0.008654358054290946,1.2777155580972337,1.3999573209588243,2.2193593734266277,0.6695287989567591,2.8633250688442415,,,,,,
43,43,43,43,2.15,-6.7,-8.59,0.879,-0.493,-0.337,-0.399,-1.44,0.459,2.02,90.0,2150000000.0,-7.22609305239795,-8.544296681564148,0.6605169656266958,-0.5478514404809058,-0.3279635826569561,-0.4647835555798375,-1.378313755900698,-0.3708769172848952,1.7489146222661427,,,,,,,,,,-0.1620080498853365,1.124542107194996,1.4552974149392923,2.115670488783548,0.59949567264892,2.6493636293240184,,,,,,
44,44,44,44,2.2,-6.68,-7.76,0.948,-0.0736,-0.16899999999999998,-0.14400000000000002,-0.985,0.241,2.02,90.0,2200000000.0,-7.0085708648894505,-8.224601521020327,0.8065886294801355,-0.19188718136711214,-0.21621595411564,-0.2399763496032224,-1.197807529230897,-0.11279432267721935,1.8944711869297173,,,,,,,,,,-0.4020080738116773,0.9941513159762728,1.5387084853851225,2.0022246520431035,0.5793979266210142,2.360393858264158,,,,,,
45,45,45,45,2.25,-6.15,-8.02,0.912,0.63,0.0354,-0.315,-0.7390000000000001,-0.175,3.12,90.0,2250000000.0,-6.666581285657838,-8.141201972875526,0.860148707011259,0.42500595996719903,-0.03933590647095725,-0.29255340996867224,-0.9872437907563548,-0.1390319555535509,2.5525065310391706,,,,,,,,,,-0.5384390957627477,0.9903583384578604,1.5086983022715321,1.8626451301998792,0.5788592870069859,2.0270137959772225,,,,,,
46,46,46,46,2.3,-5.86,-8.48,2.08,0.537,-0.588,-0.789,-0.972,1.29,1.78,90.0,2300000000.0,-6.345300433071567,-8.279302741989332,1.4799615898609937,0.5090665919223353,-0.4250337508930329,-0.6404663906753836,-0.9802478525468772,0.4637171539730688,2.1377168811727683,,,,,,,,,,-0.4431425752870243,0.8096716222576934,1.6874776422266924,1.795155897828564,0.5420724150435793,2.097736696103414,,,,,,
47,47,47,47,2.35,-5.87,-7.17,1.07,-0.241,-1.66,-0.7070000000000001,-1.37,-0.264,1.75,90.0,2350000000.0,-6.155976687117763,-7.827128449235232,1.271657955055915,-0.05391935945440785,-1.293185710119562,-0.6870935887523093,-1.159119534091822,0.15677448856479326,1.9295361901739307,,,,,,,,,,-0.4460012014019085,0.664178351127047,1.7722666099129918,1.6500637286044335,-0.00558926983522704,2.5266793423307026,,,,,,
48,48,48,48,2.4,-5.99,-8.91,1.42,0.913,-0.508,-0.705,-1.25,-0.16399999999999998,1.22,90.0,2400000000.0,-6.089864052399876,-8.268528820618393,1.3470313142548012,0.6718322161951382,-0.7412187900204114,-0.6996425064944328,-1.2008279420221666,0.021475523078704983,1.5485578640401951,,,,,,,,,,-0.5912423436294162,0.6900360111866845,1.6483136552986717,1.7917043688640202,0.34506946423514023,2.0548257016000773,,,,,,
49,49,49,49,2.45,-5.75,-8.88,1.37,-0.8959999999999999,-2.2,-0.461,-0.463,0.397,0.473,90.0,2450000000.0,-5.954487950158597,-8.517776936911622,1.3587018279106164,-0.5049533396976376,-1.766707415372326,-0.5324002830053034,-0.8622114032464114,0.17986740377955426,0.971047850154626,,,,,,,,,,-0.5906869637615799,0.3847406287975144,1.664290422789237,1.61317664150231,-0.07986857008283904,2.712370451381724,,,,,,
50,50,50,50,2.5,-4.59,-8.49,0.883,-0.204,-1.55,-0.616,-1.07,-0.735,1.07,90.0,2500000000.0,-5.410979337563199,-8.506454400073132,1.1169952105377503,-0.27906338939728303,-1.6143672086241163,-0.5909875059397586,-0.9575733015131074,-0.2060130757734867,1.024179242803384,,,,,,,,,,-0.5100123965164676,0.3336668984219628,1.479811533630616,1.5434285009001916,-0.17051074385861434,2.4010322899219894,,,,,,
51,51,51,51,2.55,-4.77,-9.8,1.64,-0.242,-1.21,0.405,0.415,-0.368,0.67,90.0,2550000000.0,-5.155661700096497,-9.033729931923453,1.3827367149096124,-0.2512443016030921,-1.3301066783961095,0.10700701542657433,-0.32764863889520945,-0.2743372843333628,0.8340062593448501,,,,,,,,,,-0.9650033200199738,0.10436778485632207,1.3571890589649134,1.3870166109020827,0.04921326568287412,1.9755937221399529,,,,,,
52,52,52,52,2.6,-3.34,-9.4,1.39,-0.149,-0.903,0.422,1.02,-0.232,1.01,90.0,2600000000.0,-4.432439535729259,-9.183028893893301,1.3864272213768978,-0.17450164425480988,-1.029860811416314,0.3277561408954845,0.29083716903496604,-0.25647990540105325,0.9285043282575812,,,,,,,,,,-0.9450184851610126,-0.11408914071332155,1.1472692275394627,1.1625066628299132,0.09403207101656606,1.5474080431241255,,,,,,
53,53,53,53,2.65,-2.87,-9.19,1.86,-0.618,-2.46,-1.13,1.31,2.38,0.6629999999999999,90.0,2650000000.0,-3.8100818949794304,-9.185870287257886,1.6270520730037648,-0.5073831925968302,-2.0352147683427138,-0.6938488383024914,0.7585686698583467,0.8555568272203241,0.7859444352407203,,,,,,,,,,-0.3113634681125612,-0.37024463395740864,1.2473050939978323,0.972798311447274,-0.3240208875453793,2.203525738679053,,,,,,
54,54,54,54,2.7,-2.53,-6.58,1.66,-0.142,-1.66,-0.203,0.8740000000000001,0.511,0.586,90.0,2700000000.0,-3.300194190935954,-8.123664610586879,1.6437930727646248,-0.2331334062252061,-1.7714476619259332,-0.3498587766018716,0.8115443835538937,0.7102267392306247,0.6785862895168101,,,,,,,,,,-0.4224016034167883,-0.5588792320213507,1.3503461893529132,0.7841581049964225,-0.46496238125707,1.7012377155489635,,,,,,
55,55,55,55,2.75,-2.56,-8.6,1.78,-0.674,-1.64,-0.152,1.82,1.53,0.85,90.0,2750000000.0,-3.005356853744054,-8.317828743580657,1.71300052146449,-0.564039643702693,-1.6790430631584643,-0.21119805596536909,1.2743619978536618,1.0559975926867278,0.7706251750833586,,,,,,,,,,-0.28713437625926336,-0.6923973386213186,1.2529860742839254,0.6582986379535672,-0.4240534549346546,1.6575260885604246,,,,,,
56,56,56,56,2.8,-1.49,-7.62,2.11,-0.0748,-0.8029999999999999,-1.3,1.23,-0.569,1.53,90.0,2800000000.0,-2.401753437540268,-8.033379530487398,1.9147180120013232,-0.1968255180753072,-1.0632055486225431,-0.9742375048182198,1.2540026446189383,0.3705924288879172,1.178363856318973,,,,,,,,,,0.5069338480219315,-0.4532123281480254,1.1338852438891942,0.580017914413448,-0.19934771960945447,1.282711220108007,,,,,,
57,57,57,57,2.85,-1.7,-9.85,2.76,-0.298,-0.833,-1.31,0.311,0.266,1.37,90.0,2850000000.0,-2.1222280273577048,-8.773871078824532,2.344210275255344,-0.2727651976421374,-0.9013765108800782,-1.2095420046231358,0.8212238397827303,0.3264765550388173,1.281260964342428,,,,,,,,,,0.7682294723505536,-0.3685111229222472,1.0507957916229334,0.6213873533596451,0.0009514366080960591,1.1307748696116855,,,,,,
58,58,58,58,2.9,-1.86,-9.2,2.72,-0.428,-0.818,-1.33,0.747,0.111,1.6,90.0,2900000000.0,-2.017776244196576,-8.94756980259745,2.535151045067732,-0.3892815389473751,-0.842764814294837,-1.2939597811318193,0.7871597641647674,0.2355910407061663,1.4524047057606473,,,,,,,,,,0.9139476035365696,-0.3205258541950848,1.0335955252311029,0.5864264278354963,0.06972122982519863,1.1057593015142042,,,,,,
59,59,59,59,2.95,-0.795,-9.49,2.86,-0.0852,0.12,-0.0286,2.54,0.703,-2.54,90.0,2950000000.0,-1.5307147899935176,-9.168675272699904,2.7002084713101566,-0.16104362128638647,-0.16596398619857644,-0.4071874184554275,1.5916029772503308,0.4327387293115124,-0.6912769413648396,,,,,,,,,,0.4677526703477089,-0.8847475694051066,0.8640875437570174,0.5946561362163794,0.4766522742640808,0.31082101371790444,,,,,,
60,60,60,60,3.03,2.14,-9.02,-1.32,-0.0852,0.12,-0.0286,1.16,17.4,5.94,90.0,3030000000.0,-0.06857994106993681,-9.108072399045042,0.6575191657064301,-0.10411681542563624,0.03506191183502835,-0.14187089374393935,1.393524388508672,7.589332831591967,2.8693207390725584,,,,,,,,,,0.7822995449294159,-1.6376318876487497,0.4583169204669098,0.5657564635277574,-0.557382557596579,0.2386976334118975,,,,,,
61,61,61,61,3.08,1.19,7.46,5.3,-0.392,-0.0947,-0.256,0.324,17.2,6.38,90.0,3080000000.0,0.43274302416947,-2.3545896316618675,3.0163884346117067,-0.3201965412098491,-0.056157635373951284,-0.22185332204941666,0.9026800799785412,11.643001239564695,4.754344821668224,,,,,,,,,,1.7147750450580108,-2.0002042197918244,2.6110347942164767,-0.2231798128063404,-1.3502484854431291,0.07815665924305279,,,,,,
62,62,62,62,3.13,0.826,7.66,6.85,-0.115,0.047,0.0538,1.14,17.6,6.61,90.0,3130000000.0,0.5893868140451014,1.727560402733176,4.964266786036871,-0.16617985715013356,0.016359734511437463,-0.02867368031292683,1.011594964367547,14.15559447453618,5.750720331311452,,,,,,,,,,1.9680778037518376,-2.280591984911687,4.07133578968015,-0.7703010393487443,-1.6031934289214569,-0.19856595689393336,,,,,,
63,63,63,63,3.18,0.0742,7.48,7.21,-0.179,-0.0825,-0.229,0.439,17.2,6.88,90.0,3180000000.0,0.384175398656361,4.072371603109046,6.105335780396151,-0.17580242041962202,-0.05313631643933636,-0.16906366926715652,0.7488099568688664,15.439689782010147,6.357075785507293,,,,,,,,,,2.2614347431992035,-2.2778231198038665,4.975560098260417,-0.9795055918609136,-1.7417924429015217,-0.1294434622489369,,,,,,
64,64,64,64,3.23,0.8809999999999999,7.78,7.37,-0.257,-0.321,-0.0683,1.34,16.3,8.2,90.0,3230000000.0,0.5820726907180311,5.583676312701707,6.747918329915168,-0.2367478043129889,-0.2414381397714009,-0.09844783556038783,1.0201289540706706,15.802558344729187,7.3466153576914195,,,,,,,,,,2.322673704132579,-2.3263951440430093,5.454025121191085,-1.3626767089769172,-1.9918325749547383,-0.1515657827374636,,,,,,
65,65,65,65,3.28,0.311,7.41,7.6,-0.421,0.29600000000000004,-0.0323,0.7040000000000001,15.9,8.08,90.0,3280000000.0,0.4740978535603857,6.32812287195537,7.180865504144918,-0.3750440588168571,0.13636812842854226,-0.052091001678722784,0.8750456800984677,15.843657945304473,7.740398845423479,,,,,,,,,,2.5788747871716806,-2.1887203033113223,5.688155670856219,-1.4193768403024614,-1.8462225868138225,-0.2871501416022025,,,,,,
66,66,66,66,3.33,1.21,6.48,8.73,0.79,-0.317,-0.125,0.355,16.1,5.04,90.0,3330000000.0,0.767225557642953,6.3900310812361925,7.967988737641942,0.4994162356578226,-0.1823389142275625,-0.1031861017900756,0.6363774734746371,15.951780215528428,6.290446746732996,,,,,,,,,,2.068529263479746,-2.5101763243273183,5.982634271683687,-1.401226971860316,-1.807354908115232,-0.6507193768691901,,,,,,
67,67,67,67,3.38,0.627,6.08,8.67,-0.04,-0.0147,0.11,0.934,16.4,5.56,90.0,3380000000.0,0.7113703038139763,6.26365608573391,8.324684427778687,0.0945404996386463,-0.0644927336402866,0.0462161041606684,0.7729674684526711,16.14083396775127,5.898240660877369,,,,,,,,,,2.1897565250201003,-2.5657749829165004,6.037024722216902,-1.400799237819177,-1.6265024139988766,-0.6347387861301598,,,,,,
68,68,68,68,3.43,0.309,6.33,5.96,-0.645,-0.0812,-0.0225,1.68,16.2,6.86,90.0,3430000000.0,0.5510964385075867,6.290699181312195,7.123175728595988,-0.4605447519499192,-0.07623754818252103,-0.0019405890853755122,1.1892382287984515,16.165789836601242,6.414647764387097,,,,,,,,,,2.505878902606299,-2.478242032206296,5.678936078153614,-1.355670818525816,-1.8691927126050587,-0.20641256349145276,,,,,,
69,69,69,69,3.48,0.85,6.61,6.31,0.177,0.471,-0.136,0.366,16.4,5.13,90.0,3480000000.0,0.6701569924048466,6.4208527333612535,6.709996792367901,0.017984414378050817,0.3084574591418285,-0.09589030114986546,0.8114237483523605,16.264576809642644,5.724869092262023,,,,,,,,,,2.557308392425893,-2.5161134425943605,5.55659357529658,-1.1392826803846283,-1.8034277751737344,-0.5079129642812226,,,,,,
70,70,70,70,3.53,1.61,6.41,7.43,-0.0925,-0.21600000000000005,0.12,0.431,16.0,4.35,90.0,3530000000.0,1.0445192826355976,6.4164288766626685,7.0758341594811975,-0.06494312133507406,-0.060223699703091486,0.05540702383416954,0.6368332138214343,16.152981376069047,4.986646870294422,,,,,,,,,,2.3613444699803057,-2.7631715124630203,5.653855069070885,-1.232649356224394,-1.946828907175946,-0.6127450577191101,,,,,,
71,71,71,71,3.58,0.412,6.63,5.79,-0.506,-0.194,0.5770000000000001,1.27,15.9,4.09,90.0,3580000000.0,0.7925714982010269,6.503484850096627,6.422494973528577,-0.3959921512382607,-0.15426526998195644,0.4209427885401829,0.9274168672661479,16.046276601161214,4.505201407539844,,,,,,,,,,2.1792869725256008,-2.865082713768347,5.5125435729472265,-1.1697442465809031,-2.077280534683865,-0.42321982050358253,,,,,,
72,72,72,72,3.63,0.321,6.19,4.89,-0.34700000000000003,-0.227,0.747,1.79,15.8,4.39,90.0,3630000000.0,0.6047331270040076,6.375702082695551,5.643826069280497,-0.35921956106569713,-0.20539605875083525,0.6494457878014979,1.3232881606549631,15.942400063993807,4.443345095407493,,,,,,,,,,1.926375029413418,-2.916477194270513,5.288226546580258,-1.118614874113238,-2.201332681397371,-0.3011232973235741,,,,,,
73,73,73,73,3.68,0.86,6.12,4.42,-0.981,0.349,1.11,2.82,15.6,7.63,90.0,3680000000.0,0.7064121247975967,6.2714726746887015,5.0219935814835726,-0.8259163327635037,0.1843312264694026,0.9722051844703934,2.010184563984527,15.797979844102475,6.154387549454461,,,,,,,,,,2.0967169670108734,-2.7579138896559527,4.9637012205176285,-1.3392608142252431,-2.242703296273873,-0.2972152840532298,,,,,,
74,74,74,74,3.73,0.95,6.03,4.42,-1.03,1.44,1.62,4.3,15.0,10.5,90.0,3730000000.0,0.8034390838168706,6.173043594507579,4.7161174838071815,-0.9790976945266884,1.0670366330406116,1.4261840067947371,3.0610656668859417,15.461401189284295,8.487720573364228,,,,,,,,,,2.2146261658285376,-2.4846786147601234,4.651472028570021,-1.6625057199291633,-1.9999157675659296,-0.6159053926263809,,,,,,
75,75,75,75,3.78,1.37,5.97,7.07,0.884,-0.8009999999999999,1.39,4.96,14.9,8.21,90.0,3780000000.0,1.0291140518490898,6.090278816729728,5.912137780939879,0.4193085882002514,-0.2461488139772423,1.4008260095228326,3.9325569009816115,15.224608509752727,8.338601317191495,,,,,,,,,,0.9079771324870402,-2.872727490466892,5.147325859612076,-2.1006334898292267,-2.2820252914256534,-0.6606889522825353,,,,,,
76,76,76,76,3.83,2.05,5.47,9.77,0.215,2.13,0.0288,3.56,16.0,11.2,90.0,3830000000.0,1.4357576879218985,5.837440489726125,7.872338299359996,0.2659583861788094,1.4242275261589925,0.4393012601591023,3.761576730108808,15.551659658567688,9.875000541029985,,,,,,,,,,2.516320207325281,-2.2652895263108124,5.333302965348323,-2.1874547039921266,-1.1432962933995048,-1.2849717323295335,,,,,,
77,77,77,77,3.88,2.34,5.45,7.81,0.468,1.92,0.596,3.13,15.5,10.1,90.0,3880000000.0,1.7959393170378892,5.67951180074944,7.840663849250468,0.4176070383824746,1.7727437865692146,0.549116766994427,3.4717228559863123,15.529870212985088,9.995811948868843,,,,,,,,,,2.553778310764629,-2.2833904018650637,5.209016259540755,-2.181204384448617,-1.07683532650223,-1.6568597651201789,,,,,,
78,78,78,78,3.93,0.962,6.55,10.6,0.026000000000000002,1.17,1.03,2.77,14.5,10.5,90.0,3930000000.0,1.4637610481954089,6.0343405452071766,9.242697398408552,0.1236741207949223,1.3490291700765673,0.886122843558198,3.14967626836627,15.095482886681488,10.266530666507217,,,,,,,,,,2.1880909551138137,-2.2169370251806355,5.78090373000052,-2.3990051004331567,-1.0138586608869034,-1.5965898268946526,,,,,,
79,79,79,79,3.98,0.213,6.13,9.53,-0.219,1.63,1.02,2.72,14.6,10.4,90.0,3980000000.0,0.9655525603932352,6.073333328151867,9.388677240702124,-0.13353066212967496,1.5465449962078894,0.9799448119565644,2.9524819460591174,14.886494105420113,10.3381954817585,,,,,,,,,,2.2551144544162915,-2.0198511301942315,5.8704493854912085,-2.2920551107672793,-0.8237453596429813,-1.4838991931825305,,,,,,
80,80,80,80,4.03,-0.603,5.38,9.62,0.0816,0.488,0.618,3.54,14.7,8.77,90.0,4030000000.0,0.3407600049992068,5.790716630971078,9.506213505301425,0.027942391050373744,0.8024129738718,0.7262915138215527,3.2221156987504527,14.8078329715644,9.496168890786556,,,,,,,,,,1.9020027067327976,-2.0558236871468427,6.041168931141793,-2.1767535516878183,-0.8808901875465758,-0.9324255101586466,,,,,,
81,81,81,81,4.08,-0.994,5.65,9.23,0.333,-0.5579999999999999,0.43,4.56,13.9,7.09,90.0,4080000000.0,-0.1909073132030028,5.733357713578143,9.36586772346534,0.2569129294387145,-0.15392510081106714,0.5186484993244271,3.836120273396064,14.424919379170367,8.204200717869197,,,,,,,,,,1.4137017911069747,-2.22130636555044,6.167560074228879,-2.121323124616985,-1.087123261421031,-0.3365261518126139,,,,,,
82,82,82,82,4.13,-0.366,5.72,7.79,-0.607,0.0898,0.682,5.95,12.5,7.48,90.0,4130000000.0,-0.2606509793844879,5.727912752751185,8.565160943042244,-0.39152395087382624,0.01740786461957422,0.6331262801517176,4.806257795432039,13.613010682399551,7.815348415536892,,,,,,,,,,1.71371701178623,-2.2160814692747284,5.797923825212744,-2.168382190304769,-1.0679273543160128,-0.1012708357532379,,,,,,
83,83,83,83,4.18,0.366,5.1,6.16,-0.34700000000000003,0.28800000000000003,0.251,5.69,12.2,7.7,90.0,4180000000.0,-0.011040683727001873,5.471962725054042,7.343085814536206,-0.3581051083170048,0.2076277092815695,0.36532968923816456,5.211839813433555,13.017019063766668,7.753413138210893,,,,,,,,,,2.0153007562376635,-2.170876316100282,5.270888270703566,-2.095462561721279,-1.1944117607497902,-0.047906344766218315,,,,,,
84,84,84,84,4.23,1.52,3.83,6.22,-0.5539999999999999,1.48,-0.101,5.43,12.3,9.59,90.0,4230000000.0,0.5988099788838898,4.802665344467068,6.772439839920263,-0.5051401648273034,1.1020752654521258,0.03852280826567794,5.3119615151086315,12.714588808732175,8.739550116760768,,,,,,,,,,2.78836117033476,-1.9351953355675573,4.708995801876295,-2.0939032184650648,-0.95121884759503,-0.3916760885091819,,,,,,
85,85,85,85,4.28,1.28,3.55,6.13,-0.29100000000000004,1.52,-0.622,2.94,11.4,8.17,90.0,4280000000.0,0.8701444887269923,4.292053493193596,6.446012802871063,-0.344410569047492,1.395866428260812,-0.4243758560861493,4.223380651311011,12.160110315889616,8.43373593445292,,,,,,,,,,3.1948682284216336,-1.7389768417152662,4.4470109171224275,-1.8244552676223493,-0.8885514626837612,-0.5950603807331332,,,,,,
86,86,86,86,4.33,1.28,3.65,7.51,-1.16,2.57,-1.07,2.08,9.86,9.36,90.0,4330000000.0,1.0333998766778851,4.030339490288518,6.986630465751669,-0.9565767152458812,2.221254434638329,-0.8768334910445255,3.2397039409901223,11.189950283236897,8.93108395075941,,,,,,,,,,4.209652645494823,-1.2463088647655325,4.350964971782309,-1.7199197415346386,-0.4391610644572937,-0.8359021272366827,,,,,,
87,87,87,87,4.38,-0.532,2.69,5.46,-2.87,2.72,-1.67,-1.38,8.08,14.4,90.0,4380000000.0,0.4098631037615,3.4839899195714423,6.210941436278388,-2.3927563562535274,2.571860758153774,-1.4326897079781942,1.1195508985967009,9.878209245793098,11.867563371740756,,,,,,,,,,5.3750566385485055,-0.15647589958064725,4.022370587698249,-1.4506621513327345,-0.5441343374814478,-0.22918681701520044,,,,,,
88,88,88,88,4.43,-0.503,1.25,5.45,-1.45,2.38,-2.14,-4.95,6.75,14.6,90.0,4430000000.0,0.0462475615034183,2.573370263511412,5.8243029535973845,-1.6851411053219418,2.436987276096986,-1.928377433401063,-1.6659904644194945,8.558766821626254,13.334718020967117,,,,,,,,,,5.175388823739649,0.5534523081582556,3.909972969704095,-1.020827495940226,-0.7447072860699492,-0.30966394748983617,,,,,,
89,89,89,89,4.48,-2.57,-0.146,9.24,-0.279,2.56,-3.19,-11.8,5.28,13.1,90.0,4480000000.0,-0.9958673248351112,1.4648997236892352,7.5598366501940175,-0.6297179041309062,2.5234622632100177,-2.8125307718235897,-6.3168624357658265,7.1758210444560575,13.208688738382412,,,,,,,,,,5.048705607952283,1.5283662613895699,4.5349219356780335,-0.16041873144850685,-0.22427771794888565,-0.6366979584862159,,,,,,
90,90,90,90,4.53,-4.5,-1.31,8.99,-1.17,1.44,-3.02,-15.0,4.46,13.5,90.0,4530000000.0,-2.3916484318701747,0.3337942707310435,8.286510128724599,-1.0352435070883426,1.7618140295188849,-2.9579265426230283,-10.301875496881609,6.0303192027916275,13.365105398796713,,,,,,,,,,4.664406695459643,2.2893667243113818,4.977400138748219,0.5501939157279031,-0.28952743122139984,-0.12798063293721526,,,,,,
91,91,91,91,4.58,-9.41,-2.38,7.5,-1.68,-0.507,-1.12,-12.2,3.65,15.2,90.0,4580000000.0,-5.187228170552663,-0.7724034287272437,7.886880154508425,-1.5191856311115517,0.1668915571354903,-1.669895673851786,-11.172994964990243,5.026328175780204,14.350333550652714,,,,,,,,,,2.603325616720553,2.7539968449204766,5.350368419582986,0.8905278998602274,-0.6448205042407527,1.2158429648378777,,,,,,
92,92,92,92,4.63,-11.7,-2.51,7.48,-1.17,0.444,-1.5,-13.1,2.96,15.3,90.0,4630000000.0,-7.781423211218726,-1.4806830720493045,7.680142196414215,-1.257093395713946,0.3616922241454424,-1.5508316808767324,-12.057369040225673,4.154774902702487,14.860247528999064,,,,,,,,,,1.9748724774315607,3.629161032146293,5.5673689396466495,1.5726187926980335,-0.08783599352155251,1.9264734010707505,,,,,,
93,93,93,93,4.68,-8.66,-2.62,8.57,-1.12,0.516,-1.72,-14.0,2.58,13.9,90.0,4680000000.0,-8.131381612786223,-1.9450917409392288,8.13228351813161,-1.1541936608055892,0.4701669116549202,-1.6693859589786806,-12.948914255346464,3.4905530580165345,14.344652043636374,,,,,,,,,,1.943616192799542,3.850555842737912,5.656134633968572,1.8075523877493849,0.17876714963188134,1.8526440034768432,,,,,,
94,94,94,94,4.73,-9.19,-2.55,7.5,-0.888,-0.506,-0.412,-11.7,2.69,13.3,90.0,4730000000.0,-8.553054847139522,-2.1916646115534943,7.81101690398388,-0.9543936867538833,-0.21605526250287665,-0.7882017031594392,-12.375741212418955,3.1528890755112293,13.783736707857265,,,,,,,,,,0.7381884645844994,3.5493327401254837,5.677378906230327,1.7298333072228396,-0.08274254799352884,1.9886890278130949,,,,,,
95,95,95,95,4.78,-9.32,-2.38,6.86,-1.78,0.0782,-0.8759999999999999,-11.5,1.83,14.1,90.0,4780000000.0,-8.858547597492024,-2.2684339869928154,7.3278002312651696,-1.5740783210148654,-0.009200793717272976,-0.8497313114675594,-11.973831171972105,2.5949098052883657,13.953551315648706,,,,,,,,,,1.1363677301775312,3.749486835597384,5.458080076802441,1.76655805640991,0.010405060607942329,2.2900991870190923,,,,,,
96,96,96,96,4.83,-6.97,-1.7,5.91,-0.698,0.00611,-0.637,-11.3,1.04,13.7,90.0,4830000000.0,-8.106293161509997,-2.036728770343584,6.607408325109214,-0.9165103307078027,0.001562331101515298,-0.7006478421570768,-11.664585206288535,1.9390668446736696,13.817409377121127,,,,,,,,,,0.8222846276106239,3.520043189892313,5.1606450419827405,1.6063107467025182,-0.2920330182406981,1.8313370447246184,,,,,,
97,97,97,97,4.88,-6.57,-1.9,6.5,-1.22,0.443,-0.422,-10.7,-0.101,14.8,90.0,4880000000.0,-7.494350370274156,-1.9809953373303608,6.5528335845860335,-1.1443040211707864,0.3118825346192751,-0.5053696161278749,-11.221901282733905,1.0785902792845032,14.345001660254304,,,,,,,,,,1.0026300052635342,3.5131446253054834,4.934271089425359,1.3266837511432128,-0.2897255514484628,1.4935035423592913,,,,,,
98,98,98,98,4.93,-6.28,-2.21,5.97,-0.8440000000000001,0.115,-0.688,-12.0,-1.84,16.0,90.0,4930000000.0,-7.0106452231157625,-2.0743423037006288,6.256692637737911,-0.9189014264740152,0.17347878382898005,-0.6333581930664756,-11.578999569868586,-0.1524373070155136,15.23363642108294,,,,,,,,,,0.9620393892189816,3.663084092189404,4.7324019480877135,1.1596541932484885,-0.5552232065852847,1.3015596258994373,,,,,,
99,99,99,99,4.98,-5.51,-2.86,6.93,-0.254,1.1,-0.586,-12.9,-2.9,15.0,90.0,4980000000.0,-6.412901893885257,-2.394592292023983,6.5988035977781285,-0.4198388588452291,0.8248012407010267,-0.6001692811318025,-12.18525536262887,-1.311327464663697,15.108187687882518,,,,,,,,,,1.0056732926215413,3.7680216125386536,4.5672638486824475,1.15177938727233,-0.2724807117802061,0.512843424275392,,,,,,
100,100,100,100,5.03,-6.57,-4.16,8.16,-0.138,0.894,-0.213,-13.0,-4.89,13.1,90.0,5030000000.0,-6.475477951470559,-3.1142082611066515,7.392055705032398,-0.20829588060426685,0.8734463229022793,-0.3288385310279319,-12.559171818216472,-2.820770030089569,14.029911653474267,,,,,,,,,,0.5731494015419852,3.805112519897509,4.608388142570134,1.1952756542264311,0.07942038454955144,0.14486557771117467,,,,,,
101,101,101,101,5.08,-6.93,-5.08,7.47,-0.324,0.154,-0.325,-14.0,-6.43,12.9,90.0,5080000000.0,-6.656525048506262,-3.9155048614177854,7.4316595087278525,-0.2951412290899954,0.3676926208530256,-0.3261484551694005,-13.220421174311115,-4.343101351365869,13.423216718007364,,,,,,,,,,0.23865632739582235,3.9266401236519024,4.510982651327827,1.2957683095734236,0.009572575794290822,0.2836689783946917,,,,,,
102,102,102,102,5.13,-6.86,-6.99,5.76,-0.338,0.8909999999999999,-0.488,-14.8,-6.54,11.6,90.0,5130000000.0,-6.737574114205054,-5.16873141929176,6.582280549061572,-0.32731022050273145,0.7355652776933381,-0.4395750740627461,-13.945348421512715,-5.269727737426256,12.444258990831072,,,,,,,,,,0.37560174276247016,4.085711732689081,3.96346449118392,1.7188012936443648,0.21132254594701333,0.1859099848809864,,,,,,
103,103,103,103,5.18,-7.67,-8.21,5.64,-0.0296,0.391,-0.214,-14.6,-7.13,9.34,90.0,5180000000.0,-7.10898200946445,-6.408414266302715,6.1035027290061965,-0.10385449767739684,0.4933440615788068,-0.28149059645286645,-14.24579242480242,-6.054369077528343,10.777458339722095,,,,,,,,,,-0.16003848429967354,4.0066566158171675,3.6684648467022516,2.0738938293783646,0.32046262973725875,0.25838531395845143,,,,,,
104,104,104,104,5.23,-8.11,-8.2,4.57,-0.705,-0.348,0.263,-14.1,-7.03,10.7,90.0,5230000000.0,-7.5077116379659055,-7.138700914707796,5.324321933908344,-0.5550630547520374,-0.0981008520127355,0.10009196208939523,-14.1788830625368,-6.465878987870612,10.735867758611702,,,,,,,,,,-0.630734350879291,3.9753246936476816,3.419836759162051,2.1441593768453893,0.032860777229750324,0.7207174922759038,,,,,,
105,105,105,105,5.28,-7.95,-8.69,2.33,-0.785,0.132,0.0239,-14.6,-6.1,10.4,90.0,5280000000.0,-7.683885753101403,-7.771041752510146,3.802891015183244,-0.7276494445634818,0.06365458901022572,0.04669613988725462,-14.372149379440739,-6.311555428732499,10.555526729159627,,,,,,,,,,-0.479356793945577,4.03400620507545,2.8774648650188737,2.479555461544231,-0.10990764865318683,0.9542615240825562,,,,,,
106,106,106,106,5.33,-7.51,-8.32,3.48,-0.0632,0.816,0.349,-10.2,-4.15,6.46,90.0,5330000000.0,-7.614622927748724,-7.994808157292026,3.63882838491652,-0.22892611772743066,0.5925355583845129,0.25855265561831786,-12.457395592910723,-5.399836427562264,8.35647474576335,,,,,,,,,,-0.6442864419447318,3.5073132354788688,2.6796123172927104,2.55405515486856,0.3821937300098917,0.6904479969668345,,,,,,
107,107,107,107,5.38,-7.89,-7.27,3.33,-1.43,0.61,-0.657,-13.1,-4.05,6.91,90.0,5380000000.0,-7.724312247198934,-7.699361626182308,3.481911003329977,-1.1304296682739137,0.6048126566817758,-0.3830726024588504,-12.75231070356048,-4.8304911387383225,7.5798045555452225,,,,,,,,,,0.3625969613092189,3.581164925526531,2.6840450323999128,2.771226388998021,0.3994009146740801,1.2005901162154269,,,,,,
108,108,108,108,5.43,-3.3,-5.47,-0.426,-1.5,-0.622,1.16,-12.7,-3.22,10.8,90.0,5430000000.0,-5.962001260349795,-6.7906284709706615,1.496280664848234,-1.4078222464449868,-0.25760752916879537,0.6983226877193252,-12.72830329892552,-4.151204643659947,9.308856307064117,,,,,,,,,,-0.3269104748893755,2.8664268566234448,2.195707372987,2.1748871687589544,-1.1350278512001513,0.8887815194644616,,,,,,
109,109,109,109,5.48,-6.23,-4.91,-0.0359,0.54,2.62,-0.705,-15.8,-2.99,9.36,90.0,5480000000.0,-6.0687516715960745,-6.024046054748273,0.7177715301042583,0.054176713777304375,1.765282233453083,-0.28513496518721426,-14.138018640079231,-3.661421979836623,9.336317215730901,,,,,,,,,,0.7221960233567151,3.435987551710268,1.9892280650992813,2.8691768042186423,-0.4875422553408526,0.02798361748600589,,,,,,
110,110,110,110,5.53,-5.64,-3.89,4.02,0.705,1.61,0.505,-13.6,-4.37,7.65,90.0,5530000000.0,-5.897969419707674,-5.154165590275931,2.395651346856248,0.5426724862231334,1.6561225163130937,0.268596752894814,-13.89110215720456,-3.96029193263624,8.430866149740295,,,,,,,,,,0.0570708386353088,3.134391027884869,2.6351832871902423,2.557583057483161,-0.28617682679274825,-0.5284326023287966,,,,,,
111,111,111,111,5.58,-8.1,-3.81,3.37,0.804,1.21,-0.504,-16.4,-4.31,7.11,90.0,5580000000.0,-6.7750918058881835,-4.606256376860285,2.8907230149488066,0.7388200449582185,1.3425089951152789,-0.2728440809937924,-15.042528018930499,-4.1077947204611185,7.721640389069184,,,,,,,,,,0.14946519458300944,3.429218541101223,3.113935055604096,2.901221599533698,-0.226210156858044,-0.13702893251451498,,,,,,
112,112,112,112,5.63,-5.41,-5.34,2.37,0.721,1.12,0.0434,-17.3,-4.55,6.33,90.0,5630000000.0,-6.231342541338223,-4.905345239722045,2.6261408269110893,0.7254446643478442,1.1860904522798748,-0.05121817212184016,-16.078565076133867,-4.2943118655218235,6.974412997718787,,,,,,,,,,-0.02816098776217424,3.2313847187489504,2.9620935020073187,3.0112708503206704,-0.478144313645423,-0.4394028826037977,,,,,,
113,113,113,113,5.68,-7.93,-5.45,2.26,0.659,-0.526,0.395,-18.6,-5.08,6.55,90.0,5680000000.0,-6.907958973508854,-5.127357502375406,2.4401027230326195,0.6755725267475847,-0.017468545092047538,0.26149443193553273,-17.23574501831391,-4.6257059874219735,6.746528797372871,,,,,,,,,,-0.9286060098658832,3.2265638793480456,3.202331615575308,3.175240312644995,-1.0180503772998768,0.09461444884277424,,,,,,
114,114,114,114,5.73,-8.67,-5.95,1.96,0.482,-0.916,0.0202,-15.9,-5.86,6.41,90.0,5730000000.0,-7.60982271814316,-5.462683211769861,2.1961599986164804,0.530280603939251,-0.6491148529194573,0.09239372447648203,-16.62272203841913,-5.146316960759292,6.5658329526832375,,,,,,,,,,-1.1647478784385676,3.3245655772475686,3.201741458699916,3.208163843726866,-1.0958103488869393,0.7573863217161175,,,,,,
115,115,115,115,5.78,-10.2,-6.78,1.81,0.225,-0.706,0.0667,-16.8,-6.41,7.81,90.0,5780000000.0,-8.641553129861366,-5.999648370460442,1.9999500230276361,0.3011426884301572,-0.689103741355385,0.07438739290164344,-16.70408110325002,-5.6793237644395935,7.233875940475597,,,,,,,,,,-1.2766834861665364,3.742270327028949,3.1801875350615,3.3966034778043883,-0.9177526405625022,1.243742152931199,,,,,,
116,116,116,116,5.83,-7.64,-7.72,1.41,0.239,-1.51,0.621,-15.6,-4.92,8.3,90.0,5830000000.0,-8.242610152440161,-6.700898543710347,1.7001932656508874,0.2544995433275327,-1.266174334792137,0.4574570566015588,-16.197377614531458,-5.359049828429218,7.80632066467292,,,,,,,,,,-1.8155688796384364,3.4618619441983016,2.9820601900846526,3.164781696277088,-1.2648159603848306,1.3167504681877271,,,,,,
117,117,117,117,5.88,-8.83,-8.39,2.37,-0.194,-1.54,0.441,-14.6,-5.85,7.84,90.0,5880000000.0,-8.47658175717114,-7.389410737224853,2.0405255671277858,-0.08213582899352084,-1.4586672561301832,0.44592385451604666,-15.464282107269227,-5.566126883636379,7.8244045279429875,,,,,,,,,,-1.8421483802914544,3.4855546940553928,2.9442961167723403,3.0736205129592844,-1.0723468927466864,1.6017813568551973,,,,,,
118,118,118,118,5.93,-8.11,-7.18,2.34,0.13699999999999998,-0.619,0.561,-11.8,-4.06,8.36,90.0,5930000000.0,-8.330563207795715,-7.304050598329607,2.192690073617589,0.08234342119180996,-0.8684011023625116,0.5265699581974127,-13.782607575571573,-4.930859986251033,8.111986960924089,,,,,,,,,,-1.6815524867496767,3.3544829325058663,2.8547095060241023,2.851371502285784,-0.7004117487568076,1.4128074132222286,,,,,,
119,119,119,119,5.98,-7.47,-8.26,1.53,-0.731,-1.25,0.209,-10.6,-2.77,8.82,90.0,5980000000.0,-7.987779908461663,-7.6937150798735425,1.8559737125758504,-0.5281369417979886,-1.136656076792951,0.3040148709346652,-12.321991393566456,-4.019434266393947,8.492147297852068,,,,,,,,,,-1.2775980343253135,3.132280112382756,2.603661313963003,2.61326571555728,-0.8136722180360658,1.8624985259194657,,,,,,
120,120,120,120,6.03,-5.01,-6.54,1.68,-0.386,-0.825,0.218,-9.8,-1.43,9.5,90.0,6030000000.0,-6.801657976741463,-7.223437369683768,1.7665605078217352,-0.4214516175070861,-0.9175692381604816,0.2437350863995691,-11.16455632946018,-2.9272408654973217,9.033303698686488,,,,,,,,,,-0.9285505154465494,2.7295824627731,2.44937433912849,2.2071262394264113,-0.9823886176184762,1.4947024819500534,,,,,,
121,121,121,121,6.08,-4.3,-5.15,1.72,-0.936,-0.42,-0.206,-11.9,-2.84,11.6,90.0,6080000000.0,-5.805186953049168,-6.378262232115468,1.7429028810128349,-0.8076620008916735,-0.5677898556619879,-0.07144218670047581,-11.502078462557096,-2.8904436427854283,10.411465741540988,,,,,,,,,,-0.08458285571131716,2.814902441395092,2.3829685460292604,1.9136061249824847,-1.230526762380335,1.1994398989677404,,,,,,
122,122,122,122,6.13,-3.66,-3.63,2.17,0.199,-0.294,-0.4970000000000001,-12.9,-4.47,12.7,90.0,6130000000.0,-4.950706949610829,-5.258014784965079,1.9599132346045496,-0.05208033194510109,-0.375322080601356,-0.3696758756153429,-12.143636197160893,-3.5566821289238177,11.640271157885225,,,,,,,,,,0.07155358014540122,2.93398963943768,2.5224948825427806,1.6317654531492043,-1.5094481866824665,0.5877826812987659,,,,,,
123,123,123,123,6.18,-6.03,-4.72,3.95,-0.409,-1.1,0.19,-12.4,-4.51,13.6,90.0,6180000000.0,-5.38061565489782,-5.038708947815328,2.9710869153407766,-0.3199775655747178,-0.8847534870803104,0.02254861561469673,-12.261290855398409,-3.958780660696373,12.692528110696724,,,,,,,,,,-0.4131526058294036,3.0707592526586582,2.9822253124309586,1.365075206579422,-1.5720879424559482,0.7762657610760253,,,,,,
124,124,124,124,6.23,-7.18,-6.29,4.89,-0.483,-0.491,0.3670000000000001,-11.6,-5.11,14.5,90.0,6230000000.0,-6.097354051074097,-5.548760574660896,3.946096778764424,-0.442339163210479,-0.6079541222027798,0.2639423950969222,-11.957800192455116,-4.444351699144599,13.663032014828918,,,,,,,,,,-0.6116219957663865,3.4163522218000866,3.19807009484078,1.2841796095081461,-1.0615452763420534,0.8144026489087232,,,,,,
125,125,125,125,6.28,-7.14,-6.23,5.51,-0.3670000000000001,0.172,0.275,-13.3,-7.21,13.1,90.0,6280000000.0,-6.512665189489272,-5.826447605891782,4.7407244289645245,-0.3857910067259663,-0.05966486882519406,0.2716916406917584,-12.57378542638779,-5.610870132562609,13.360717825845516,,,,,,,,,,-0.5307034056452462,3.764595666126942,3.3261293719071965,1.434668625667156,-0.5216953263551513,0.5300143859829991,,,,,,
126,126,126,126,6.33,-6.5,-6.73,6.32,0.233,0.0641,0.212,-13.1,-7.1,10.9,90.0,6330000000.0,-6.5076203370693175,-6.194753917623742,5.543162822679305,0.07866194493132905,0.02733889664301632,0.22985934899810825,-12.815284936610155,-6.238967821040883,12.039459862553391,,,,,,,,,,-0.7595730926933444,3.706117365467074,3.4665530566338045,1.534077665811193,-0.17222506575580607,0.19946707728037688,,,,,,
127,127,127,127,6.38,-8.14,-8.82,4.89,0.015,0.778,0.0502,-11.1,-5.19,9.22,90.0,6380000000.0,-7.157836919443189,-7.264857406347606,5.211287255144113,0.030878479612533094,0.5550358464145162,0.10395290927665568,-12.028077397261715,-5.7965253690120075,10.525579308618836,,,,,,,,,,-0.5801901672845651,3.6985806955901945,3.1680037115513446,1.9354720614508865,0.44293136057375015,0.3955100560750433,,,,,,
128,128,128,128,6.43,-7.83,-8.91,2.85,-0.219,-0.0421,-1.55,-11.7,-5.8,9.08,90.0,6430000000.0,-7.425575760739743,-7.93545087265085,4.011504609582879,-0.15667563078540953,0.1352635082203062,-1.055148010889014,-11.877510454891613,-5.7979910085640025,9.749389955360536,,,,,,,,,,0.15414528151701354,3.850678174611739,2.7451033034966135,2.2960823875150282,0.2903352360677585,1.2311948279596308,,,,,,
129,129,129,129,6.48,-5.58,-6.78,1.3,-0.586,1.72,-2.25,-12.9,-7.72,8.37,90.0,6480000000.0,-6.6904381036557865,-7.4644657191485395,2.633774690163224,-0.4789184907635189,1.2492956959129236,-1.8925080543345447,-12.346768559097265,-6.608672049006295,9.00874029104984,,,,,,,,,,1.6608958364063278,4.077419169011559,2.0923958983689634,2.5868588657890643,0.3813507162143632,0.9405676738163814,,,,,,
130,130,130,130,6.53,-5.87,-6.61,1.27,-0.275,1.63,-0.684,-12.5,-7.19,7.54,90.0,6530000000.0,-6.363637645321258,-7.116168195113803,1.9408335162552481,-0.325861090370831,1.5169217889429802,-1.0455777622757925,-12.417092136128476,-6.853869469040044,8.220114901035412,,,,,,,,,,1.1328507768369405,3.765011519116311,1.894159023591866,2.5984109697225755,0.21058266756574112,0.4272000166917697,,,,,,
131,131,131,131,6.58,-6.32,-8.03,1.14,-0.648,1.0,-0.473,-12.4,-6.84,6.88,90.0,6580000000.0,-6.346255780266636,-7.488664486798119,1.5339257454827901,-0.5676525317535444,1.1535380314585255,-0.6443115362916805,-12.409247747464548,-6.848019552016183,7.500553706157538,,,,,,,,,,0.7499695165835494,3.528645681847478,1.7554278043398912,2.644878883683002,0.009232647456733948,0.5313640666515712,,,,,,
132,132,132,132,6.63,-5.42,-7.22,0.79,-0.265,1.45,-0.334,-13.3,-5.99,6.54,90.0,6630000000.0,-5.9773056485974045,-7.379151300782406,1.155933133495709,-0.340487191805546,1.3619437974983282,-0.4268431878552332,-12.818046997089946,-6.486116747332102,6.984794006383913,,,,,,,,,,0.6467676402514849,3.3357090431272263,1.6375049508918942,2.7440363051539545,-0.0918102206428654,0.1847158637800363,,,,,,
133,133,133,133,6.68,-4.84,-6.62,0.591,-0.475,0.7659999999999999,-0.48,-13.4,-8.39,6.65,90.0,6680000000.0,-5.5242892615445,-7.069705768118245,0.8688876179537304,-0.4414499850969652,0.9430094231048882,-0.4640958199374607,-13.085126584420516,-7.289152794426359,6.805029773454997,,,,,,,,,,0.6216568514296472,3.2456810062959285,1.5648155356336098,2.6160799093440876,-0.4794464716501984,0.17901343162199868,,,,,,
134,134,134,134,6.73,-5.44,-5.49,0.735,-0.394,1.01,-1.55,-13.2,-8.73,5.64,90.0,6730000000.0,-5.490714825349108,-6.425785525210372,0.80085861535115,-0.4058349091836048,0.9901022031025692,-1.2251044969560771,-13.137846157039506,-7.8968852625596755,6.179478648795235,,,,,,,,,,1.2797065461179558,3.3995135771590204,1.6017840526496965,2.6933220931602215,-0.459509821937558,0.34200410849538426,,,,,,
135,135,135,135,6.78,-5.29,-7.31,1.18,-0.386,0.556,-1.47,-12.9,-10.4,6.24,90.0,6780000000.0,-5.410765222882709,-6.786209277240831,0.9935023401761259,-0.39094720291040397,0.6849386461599343,-1.3967288779625595,-13.028689581379053,-8.952669903005406,6.211974858470454,,,,,,,,,,1.2109590666715702,3.486233345640399,1.5488174311945382,2.582251699670096,-0.4840109987180754,0.4193555492311601,,,,,,
136,136,136,136,6.83,-4.97,-7.02,0.5529999999999999,-0.459,0.5429999999999999,-1.59,-12.9,-12.2,6.52,90.0,6830000000.0,-5.235197651499195,-6.881507115568197,0.7696807476894744,-0.4420263530342501,0.5851591322856635,-1.5321745604159631,-12.969628996539392,-10.322356041919218,6.377365858841494,,,,,,,,,,1.2824059055405566,3.626110920422493,1.3659709286311343,2.476692389695937,-0.5735158263697315,0.4159850735795516,,,,,,
137,137,137,137,6.88,-4.75,-7.87,1.39,0.618,1.06,-1.75,-13.7,-14.0,6.86,90.0,6880000000.0,-5.041931648776141,-7.284436841589343,1.084868247552813,0.3536095779009475,0.9189609599800695,-1.684828044877534,-13.304823182585498,-11.873543663334999,6.636511492369782,,,,,,,,,,1.0912485307130133,3.875215824899973,1.2651451498532844,2.449300725947539,-0.3303769565204805,-0.10353508402771977,,,,,,
138,138,138,138,6.93,-4.8,-9.06,1.95,0.855,0.21,-1.54,-13.1,-15.4,7.53,90.0,6930000000.0,-4.945564476173131,-8.008192611734518,1.5244463106357935,0.7299438645240022,0.4205782153550589,-1.5833315825552294,-13.210822421728885,-13.360961936424587,7.116261298551525,,,,,,,,,,0.4824688257647624,3.9595172636132343,1.243731000755788,2.222486775930125,-0.3856355715641576,-0.19058429073152933,,,,,,
139,139,139,139,6.98,-5.73,-10.3,2.46,1.63,-1.27,-0.575,-10.9,-16.5,5.64,90.0,6980000000.0,-5.258024195015136,-8.94237991986052,1.9998061290902769,1.4055091606601526,-0.7678581601792163,-0.8766862445110795,-12.150300348394339,-14.684971830496067,6.323597527779392,,,,,,,,,,-1.1547438378972392,3.6239729651800032,1.35285361827507,1.944831259049347,-0.5384802539047048,-0.0800159348034058,,,,,,
140,140,140,140,7.03,-5.41,-11.5,2.89,1.29,-1.09,-0.209,-9.05,-16.9,7.53,90.0,7030000000.0,-5.3185597865606375,-9.984917801211225,2.4521184167639034,1.3188101166380486,-0.9943162566073892,-0.4087673871827761,-10.727457910363476,-15.619244893645911,6.971363349086834,,,,,,,,,,-1.7372241417030594,3.589301255436802,1.2093717553951018,1.5775114082010393,-0.3324491824995922,-0.04995463077568369,,,,,,
141,141,141,141,7.08,-3.69,-12.8,0.00718,1.16,-0.515,0.315,-8.94,-16.0,7.81,90.0,7080000000.0,-4.669864913218206,-11.132402548062911,1.2098322201956548,1.1996101885834778,-0.6573682863858534,0.09845350235211314,-9.907127155670494,-15.779842987017494,7.421660857525889,,,,,,,,,,-1.9169616408338264,3.3879708055830555,0.4384040366443968,1.4793620492914124,-0.42071149144523406,-0.3381824659807424,,,,,,
142,142,142,142,7.13,-2.09,-13.7,1.41,1.22,-0.7829999999999999,0.422,-7.46,-12.0,8.09,90.0,7130000000.0,-3.6422420580978487,-12.179007331017875,1.3115385154124068,1.2149144211150773,-0.7456843960110121,0.3251969854024773,-8.784049989910779,-14.185548999021824,7.780518939347927,,,,,,,,,,-2.051440466232072,2.8603033839053453,0.1497084481097323,1.1766536688025675,-0.467671557923233,-0.5893503102625367,,,,,,
143,143,143,143,7.18,-2.08,-13.3,1.34,0.875,-1.22,0.295,-6.93,-9.35,8.45,90.0,7180000000.0,-3.0199630926772283,-12.635946784243815,1.3259999638738875,0.9597810147340592,-1.0791170361014295,0.3040347324880585,-7.93315778013378,-12.145970604865527,8.139989978339809,,,,,,,,,,-1.9548303754674181,2.421841585658658,0.06936571779434726,0.9767277413329009,-0.6611810005892182,-0.4257850702151877,,,,,,
144,144,144,144,7.23,-0.907,-9.83,1.13,0.517,-1.06,0.251,-6.02,-8.31,8.9,90.0,7230000000.0,-2.178318602957297,-11.492185864518724,1.2264113386874678,0.6274378819790107,-1.0656781729076494,0.26686763808162645,-7.055138888757515,-10.528002814807019,8.548069532632223,,,,,,,,,,-1.4649840292491456,2.0212812552911195,0.15017392620066006,0.6369566658347255,-0.9831307735886128,-0.4668306950684719,,,,,,
145,145,145,145,7.28,-0.7879999999999999,-7.52,1.02,0.0107,-1.09,-0.156,-5.72,-8.62,9.49,90.0,7280000000.0,-1.6245209485975254,-9.873042236593516,1.1215326313862688,0.16452596420122778,-1.0827758639626537,-0.02948075462127842,-6.442394162921702,-9.723229280661263,9.053829527728553,,,,,,,,,,-0.7373539213103777,1.86834028815888,0.326024310838148,0.3280187581021365,-1.324311341212679,-0.3281232568815233,,,,,,
146,146,146,146,7.33,-0.254,-6.69,1.14,-0.728,-0.828,-0.16399999999999998,-6.08,-10.8,12.3,90.0,7330000000.0,-1.0786091887228342,-8.575569607369967,1.1309159922059964,-0.5053873187121211,-0.9036744806369704,-0.12375271966323907,-6.276078039761808,-10.177398777721123,10.796828309934456,,,,,,,,,,-0.04344561821094093,2.0519156908408984,0.3952166138151897,-0.0977264691462432,-1.6143463863694305,-0.3546681778193645,,,,,,
147,147,147,147,7.38,-0.366,-6.85,1.47,-1.0,-0.337,0.59,-8.04,-10.5,14.6,90.0,7380000000.0,-0.7947596489987041,-7.872192356000911,1.3032063922610844,-0.8766343455439224,-0.5053157696212478,0.37644980904546055,-7.085607066144558,-10.313468236417105,12.838903412377276,,,,,,,,,,0.03975756348071632,2.2809786034708592,0.5106215688185961,-0.3363060525555798,-1.7847736104825347,-0.727616942466795,,,,,,
148,148,148,148,7.43,-0.941,-8.67,4.19,-0.181,-0.241,0.213,-9.73,-14.3,14.8,90.0,7430000000.0,-0.8530107246964159,-8.197394983591392,2.7700015875955444,-0.3545042133420564,-0.3195080501658715,0.2619031197064834,-8.299216602788059,-11.994941236631973,13.891894660009207,,,,,,,,,,-0.16567516937907995,2.768105532497464,0.8412036181484235,-0.4364321740840679,-1.4396465546160009,-1.2232267249527486,,,,,,
149,149,149,149,7.48,-2.95,-8.23,6.48,0.7240000000000001,-1.17,0.4970000000000001,0.501,-12.7,9.95,90.0,7480000000.0,-1.6882924762762683,-8.210685263784303,4.6550714975251175,0.4550008585640957,-0.917383689105822,0.4266605483062556,-4.260471645446604,-12.292326775500829,11.775333752497465,,,,,,,,,,-1.1739928597163505,2.2621411624507286,1.4188308912912615,-0.9394050528160672,-0.6709485119044579,-0.8846403727898285,,,,,,
150,150,150,150,7.53,-4.81,-12.2,6.58,0.0467,0.52,0.0367,-7.37,-14.3,11.1,90.0,7530000000.0,-2.931744339362625,-9.836810882120988,5.633137855767821,0.14853787197655788,0.09306293964087298,0.15337365973655898,-5.687549191908293,-13.139140166099358,11.412720271728025,,,,,,,,,,-0.7256152591033669,3.0198671654463975,1.4362236355482143,-0.308277994297086,0.4347820845280613,-0.9066686278750156,,,,,,
151,151,151,151,7.58,5.27,-11.0,1.55,1.03,0.263,0.0838,-4.58,-7.16,5.97,90.0,7580000000.0,0.33520952004083915,-10.310950387038247,3.558473798073549,0.8101468360249535,0.2125246706196204,0.10461598864842954,-5.179253858917743,-10.617208039234145,8.490306093288204,,,,,,,,,,-0.39392301192346496,1.509597275541973,0.34360983481532,-0.3369293909646653,-0.35746865724516386,-2.0282087037998964,,,,,,
152,152,152,152,7.63,-2.39,-12.5,2.87,-0.758,1.19,-0.057999999999999996,-8.19,-14.6,6.79,90.0,7630000000.0,-0.7503076278021352,-11.203251461537269,3.2086565460658454,-0.36687485903738826,0.8996666840331098,-0.00934635243065736,-6.56099645311064,-12.297103714390662,7.577343768096068,,,,,,,,,,0.32803119170187606,2.171129607149505,0.055782069490642336,0.2779839473500185,0.198673749887392,-1.6906022016784468,,,,,,
153,153,153,153,7.68,0.613,-5.57,-2.19,-1.14,1.66,-0.488,-8.68,-13.5,7.08,90.0,7680000000.0,-0.2072691151608025,-8.907023843343461,0.4655704491686339,-0.947168117781196,1.4341629484146037,-0.3447899449161261,-7.533485713423195,-12.804471433874301,7.310299978627963,,,,,,,,,,1.4909538056289149,2.266114625395781,-0.4674347726146213,0.5346934425375461,-0.6278354148544232,-1.6469316287556863,,,,,,
154,154,154,154,7.73,-2.41,-12.6,-0.86,-1.57,1.67,-0.267,-8.02,-12.6,6.31,90.0,7730000000.0,-1.0846703318819588,-10.41235607225138,-0.20795894453257133,-1.4146541178578658,1.5999507720226167,-0.2902742385082786,-7.756765328226027,-12.71822791246682,6.773198906218656,,,,,,,,,,1.4978278627429802,2.4769938254721047,-0.8391613348443797,1.0075290929968554,-0.3071228557601685,-1.2047105865419423,,,,,,
155,155,155,155,7.78,-2.31,-10.8,0.108,-1.47,1.73,-0.396,-10.3,-11.7,5.0,90.0,7780000000.0,-1.5727488606725368,-10.570367686697178,-0.04741852507070735,-1.456195723221911,1.6913723082437992,-0.36436753813538136,-8.923949893667906,-12.28875109321312,5.821097536635811,,,,,,,,,,1.5442895257817226,2.564060842298644,-0.680497759721486,1.4159898204070622,-0.147375211613526,-1.1399607835188823,,,,,,
156,156,156,156,7.83,-1.14,-9.38,0.127,-1.41,1.25,-0.199,-9.25,-13.6,5.26,90.0,7830000000.0,-1.4003744788275163,-10.085149691872497,0.04120445605937206,-1.4215220524103778,1.381098043838763,-0.24847689278274399,-9.073586349695443,-12.841820854103014,5.5198219643871065,,,,,,,,,,1.351684467780472,2.4703085119372714,-0.5623252649084926,1.3030502856052577,-0.3698094938214199,-1.1944437313674858,,,,,,
157,157,157,157,7.88,-3.01,-8.0,-0.388,-1.0,0.777,-0.503,-10.3,-13.9,5.1,90.0,7880000000.0,-2.0415273936317755,-9.235200335068386,-0.17687661374200073,-1.1051354844519423,0.9564314538131292,-0.4268483560502744,-9.636433032558783,-13.28814839949194,5.294402719726182,,,,,,,,,,1.1139829606084146,2.632888097939084,-0.27731921518538644,1.4533490160992142,-0.6184191450238483,-0.8766636089710644,,,,,,
158,158,158,158,7.93,-1.73,-9.44,0.5,-0.705,0.906,-0.585,-9.94,-14.3,4.15,90.0,7930000000.0,-1.9174384780452003,-9.318680666244543,0.16704798915648794,-0.8048012618401299,0.9209793506331746,-0.5376820414672103,-9.77575095180739,-13.714935764221645,4.6799272075966885,,,,,,,,,,1.0260298917308863,2.5948416989187115,-0.2167581094460468,1.4686147602297548,-0.5258453659298251,-1.04779685049782,,,,,,
159,159,159,159,7.98,-2.7,-9.36,0.838,-0.633,0.7040000000000001,-0.579,-10.4,-15.1,3.25,90.0,7980000000.0,-2.229151747846477,-9.33552312579503,0.5079622696094642,-0.6758504604187062,0.7684480106851187,-0.5666379328019727,-10.062241759061367,-14.299139975837992,3.9121421339752303,,,,,,,,,,0.8431727557582903,2.643089161311644,-0.0635418934938481,1.5725151429586235,-0.42010256906633225,-1.0100934099682408,,,,,,
160,160,160,160,8.03,-2.3,-9.42,0.35200000000000004,-0.306,0.588,-0.523,-11.0,-16.8,4.02,90.0,8030000000.0,-2.2573723075208227,-9.369957646261923,0.42871701100608256,-0.39824761859590624,0.6415973386313987,-0.5360561870771461,-10.4926137082174,-15.353973443440955,3.9700553232076574,,,,,,,,,,0.5854241859901909,2.7675386127999086,-0.0904077897808944,1.5773443770383409,-0.5099615381661148,-1.121987925022042,,,,,,
161,161,161,161,8.08,-2.81,-9.96,-0.165,-0.104,0.703,-0.231,-13.4,-16.4,4.9,90.0,8080000000.0,-2.4774973096323043,-9.610470906976312,0.12704624065631714,-0.17739086159763925,0.6847619596188723,-0.3222708319022275,-11.826920661273565,-15.795175167417035,4.469379842360358,,,,,,,,,,0.2644424212603129,2.98988524709068,-0.12899848442613296,1.7869929741741435,-0.631409839929566,-1.2827740715512737,,,,,,
162,162,162,162,8.13,-3.4,-11.5,0.8809999999999999,0.5870000000000001,0.861,0.181,-13.3,-15.8,6.38,90.0,8130000000.0,-2.84495256286575,-10.380681335291372,0.5101341416915303,0.3963466304724224,0.8086531230696744,0.03042463558295988,-12.50297135395694,-15.797210306361688,5.495268236167168,,,,,,,,,,-0.3905786724879971,3.1941797197697968,-0.047798718806384984,1.8691436681296447,-0.4539587840739732,-1.548223638621428,,,,,,
163,163,163,163,8.18,-5.61,-11.1,2.03,1.66,0.0702,1.12,-9.63,-16.0,2.73,90.0,8180000000.0,-3.946338131545162,-10.67389038547098,1.2823860430361225,1.3448211879178036,0.28953809447443024,0.7940061392277014,-11.18445856650105,-15.882744650117633,4.010485199404935,,,,,,,,,,-1.936156670025672,2.891324663606053,0.37196804167000025,1.8687431767253997,-0.12369498045456565,-1.4641163220539217,,,,,,
164,164,164,164,8.23,-5.35,-10.9,3.51,2.47,-1.58,1.11,-9.39,-19.8,3.99,90.0,8230000000.0,-4.505450689533721,-10.766057100386126,2.414248522439247,2.1893593792424846,-1.024702875159221,1.015456701619297,-10.360915301858226,-17.53499725925032,3.9994858821477055,,,,,,,,,,-3.3143820774545563,2.84524859088012,0.8784687688991064,1.4818741725741835,-0.27926833036652965,-1.1975997896371011,,,,,,
165,165,165,165,8.28,-1.49,-11.9,-0.915,1.68,-1.68,0.7829999999999999,-10.9,-15.1,6.44,90.0,8280000000.0,-3.3043234838871025,-11.228275097351103,0.7226396528697727,1.8070437173937643,-1.4853611749768592,0.8525495282374991,-10.608321038216644,-16.507943782064213,5.309895492950042,,,,,,,,,,-3.001071049170738,2.579842441863245,0.2267247329531649,1.356107529407606,-1.1480526055370412,-1.0536806306158335,,,,,,
166,166,166,166,8.33,-1.46,-16.6,-0.8,1.49,-0.929,1.03,-9.42,-11.5,6.45,90.0,8330000000.0,-2.5696846846570627,-13.4178994048822,-0.051021648819450816,1.5690766405869656,-1.0942524785966548,0.9769079526629136,-10.06295658682697,-14.395651104461436,5.922063071682497,,,,,,,,,,-2.82903190787046,2.269192024284142,-0.5121875879197679,1.4556930556480119,-1.0107663175781356,-1.18618052805758,,,,,,
167,167,167,167,8.38,-3.12,-12.7,0.931,0.948,-1.35,0.944,-7.88,-6.75,6.85,90.0,8380000000.0,-2.788888588030128,-13.125268951575654,0.447948764374246,1.1029081417961164,-1.2740369371869245,0.9538458494641644,-9.061117103120381,-11.170804032235964,6.420309448013831,,,,,,,,,,-2.5879881976907546,1.9425835912230836,-0.1464962844442351,1.3678588455156668,-0.9813522431760388,-0.6828132136729296,,,,,,
168,168,168,168,8.43,-1.88,-9.83,0.397,0.495,-1.92,0.542,-6.45,-5.7,7.32,90.0,8430000000.0,-2.4268561983266936,-11.782050379954018,0.4220614340751033,0.6466236650803752,-1.728133619484709,0.6652215971412262,-7.86277877862141,-8.863282182217029,6.9033893592306175,,,,,,,,,,-2.0907107860726546,1.5472810250987012,0.14890515473954172,1.0511036489056165,-1.4057285783430673,-0.1850016149312508,,,,,,
169,169,169,169,8.48,-0.8140000000000001,-5.6,0.153,0.0443,-1.7,0.233,-5.06,-6.57,8.35,90.0,8480000000.0,-1.7844164267673768,-9.262121069501758,0.2853498887581818,0.19453078938724166,-1.7083563857693176,0.3623178881031031,-6.576479881981295,-7.8960023944678515,7.680132639805174,,,,,,,,,,-1.2430029546671508,1.3269255155705708,0.4458663672822339,0.5476981465835596,-1.8458952831947,-0.02227494501040815,,,,,,
170,170,170,170,8.53,-0.0192,-4.81,-0.0335,-0.422,-1.15,0.12,-6.18,-8.59,11.6,90.0,8530000000.0,-1.0812878738734641,-7.447346090601622,0.12334056617848885,-0.2682256821024085,-1.3158450726847402,0.1924999345785088,-6.394520517575293,-8.188722609898358,9.784866312002816,,,,,,,,,,-0.4156519639548566,1.5316327346582579,0.5272201316079592,0.08042616476409416,-2.195682463910554,-0.19175411265088485,,,,,,
171,171,171,171,8.58,0.816,-5.68,0.5429999999999999,-0.878,-0.332,-0.0115,-8.49,-12.2,14.5,90.0,8580000000.0,-0.32555206328896197,-6.726939865228123,0.3365717449422217,-0.7259108950199179,-0.6242253121449748,0.04953545390893272,-7.356213469332874,-9.88063286783759,12.316610058496392,,,,,,,,,,0.3844949126211533,2.0911872038390253,0.4328046597882503,-0.2736746755621526,-2.2783596408582274,-0.7066808026910563,,,,,,
172,172,172,172,8.63,-0.639,-7.48,3.61,-0.382,-0.126,-0.125,-9.16,-9.87,14.5,90.0,8630000000.0,-0.4504059848326494,-7.033902476061536,1.999817975942055,-0.4677778095432159,-0.2739847358386461,-0.07278012710015082,-8.184037769355058,-9.876147999079997,13.488959390739124,,,,,,,,,,0.4273659948081085,2.434907239229496,0.8700439953738386,-0.3446555282380357,-1.805394160856832,-1.0610272345032723,,,,,,
173,173,173,173,8.68,-2.99,-10.7,6.46,0.0669,-0.907,0.15,-8.36,-10.5,13.1,90.0,8680000000.0,-1.4619879332970616,-8.528278195216473,4.266060173494884,-0.06645864688010478,-0.718979456630662,0.08334563876749948,-8.26479318916158,-10.13928154665908,13.280111751515895,,,,,,,,,,-0.4611861333562551,2.6138187321489146,1.4711455994168032,-0.3199213059009217,-1.0955190716097911,-0.9451903321917576,,,,,,
174,174,174,174,8.73,-3.8,-8.4,6.41,0.149,-1.05,0.486,-2.43,-13.3,13.4,90.0,8730000000.0,-2.393274875511479,-8.475989242451519,5.355407310063778,0.09526058626130636,-0.9516790140870732,0.36552843436538507,-5.5869907669744885,-11.472436058447938,13.344484339374173,,,,,,,,,,-1.0830262369419177,2.6848136226557417,1.7836128039267587,-0.7766282998844436,-0.5705244958589335,-0.594469354287091,,,,,,
175,175,175,175,8.78,-3.45,-9.12,4.69,-0.411,0.6709999999999999,0.102,-6.58,-13.8,10.2,90.0,8780000000.0,-2.81419416349962,-8.738501058278382,5.0173103503612495,-0.28472915019053,0.1890258494515228,0.1808459926424948,-6.042719405396893,-12.454175648035347,11.656084906434467,,,,,,,,,,-0.3233132698860137,2.9800439932228047,1.475619218955968,-0.2825331898478499,0.1024529328188128,-0.7991433375913848,,,,,,
176,176,176,176,8.83,2.39,-12.1,4.99,1.01,0.199,0.265,-4.85,-5.6,4.04,90.0,8830000000.0,-0.7412372550297159,-10.10871644318833,5.003433699978577,0.6870703248424421,0.1960374413946336,0.2398216581815335,-5.495336301808745,-9.563163715025064,7.566704475866403,,,,,,,,,,-0.5888481595675804,1.5549323046335335,1.0432012201644156,-0.10761522409499293,0.14309933039180447,-1.7829012507556552,,,,,,
177,177,177,177,8.88,-1.48,-12.6,1.92,-0.952,1.49,-0.28,-8.98,-15.1,6.35,90.0,8880000000.0,-1.0355043973503977,-11.124214366053124,3.4367246365261312,-0.5431852185954913,1.1056624371163375,-0.1244727408267409,-7.094577178043637,-11.898537284812413,6.913407158466302,,,,,,,,,,0.5775406045174108,2.228736232803647,0.187222174574845,0.5094935692816568,0.3906778113683039,-1.642455018831675,,,,,,
178,178,178,178,8.93,0.462,-4.54,-4.13,-1.11,1.44,-0.66,-8.54,-12.6,7.79,90.0,8930000000.0,-0.439012039157988,-8.440354871589344,-0.40796840262566336,-0.9686258019698532,1.340693854364735,-0.499773744679005,-7.757935166985368,-12.194406293562961,7.384084873044166,,,,,,,,,,1.6257304554004972,2.2851009675880816,-0.5335814380519379,0.7104208954336978,-0.906149538608814,-1.3558910862213405,,,,,,
179,179,179,179,8.98,-3.1,-13.4,-1.33,-1.37,1.41,-0.313,-8.92,-11.6,6.4,90.0,8980000000.0,-1.4989481012262456,-10.462006784193177,-0.8764575767358218,-1.2698897708756705,1.3894144075067578,-0.3688814854079631,-8.291249744487104,-11.943692765161328,6.85569042089007,,,,,,,,,,1.3561785198026943,2.513967121510773,-0.863320521476977,1.2720961751227793,-0.5191837441295639,-0.9112665964017214,,,,,,
180,180,180,180,9.03,-2.14,-10.4,0.7040000000000001,-1.49,1.39,-0.4970000000000001,-10.0,-11.7,5.72,90.0,9030000000.0,-1.7542946757729756,-10.436731404311407,-0.07341868880640301,-1.435100398847016,1.3898260550845043,-0.4586677797016582,-9.075458451999893,-11.840905899189215,6.245892726385383,,,,,,,,,,1.4663298677611212,2.5903626377624285,-0.5558322281706772,1.4214771809659592,-0.31427420003924106,-0.9067209339587264,,,,,,
181,181,181,181,9.08,-2.08,-8.7,-0.0168,-1.48,0.8220000000000001,-0.433,-9.27,-13.3,5.77,90.0,9080000000.0,-1.8840309824913768,-9.72880433897666,-0.044650431970427486,-1.4688012139404574,0.9906578246008998,-0.4406796316134437,-9.164740975531199,-12.456334969899256,5.9903668893589215,,,,,,,,,,1.3190141248797775,2.5849717966856143,-0.3622103626419043,1.3429740289387817,-0.552135016235776,-0.7510332918670295,,,,,,
182,182,182,182,9.13,-2.87,-8.23,-0.0766,-0.947,0.593,-0.6609999999999999,-9.09,-13.6,5.66,90.0,9130000000.0,-2.276766330892884,-9.117861068126704,-0.06088417733030941,-1.0771470031045136,0.7111138017070763,-0.5950815877597697,-9.130439646843923,-12.938719792815965,5.812979619380645,,,,,,,,,,1.0979562970475003,2.6699632174094963,-0.1560692023027402,1.35930090537206,-0.6580952622131999,-0.5831413097192133,,,,,,
183,183,183,183,9.18,-2.04,-9.31,0.472,-0.6859999999999999,0.768,-0.6,-9.39,-14.2,5.42,90.0,9180000000.0,-2.1824565386212282,-9.19618096949984,0.20987710521718728,-0.7835593711150728,0.7511034545959717,-0.5985284597480279,-9.249561652912439,-13.470713093678093,5.601973194845467,,,,,,,,,,0.9568250309626044,2.6876601070002217,-0.12428221133142632,1.337704928296886,-0.5729521174045217,-0.7914310954813302,,,,,,
184,184,184,184,9.23,-1.81,-9.23,0.7659999999999999,-0.644,0.8290000000000001,-0.555,-11.5,-15.3,4.46,90.0,9230000000.0,-2.0340980351459117,-9.209966106489023,0.4924460882786493,-0.6788087129649472,0.8058628758145219,-0.5680234371271263,-10.282371065413173,-14.242285201612887,4.988802161011428,,,,,,,,,,0.9055475975588744,2.7453525048551213,-0.0642345127142891,1.4538932862360183,-0.5486127695230024,-1.0869103939337592,,,,,,
185,185,185,185,9.28,-2.05,-9.53,0.936,-0.445,0.628,-0.55,-10.8,-17.1,5.34,90.0,9280000000.0,-2.040432154772532,-9.340418311452753,0.7178181815787585,-0.5033162610428507,0.68082950734588,-0.5553925035460325,-10.519930220725575,-15.44763636204421,5.1773744004832825,,,,,,,,,,0.6976674245343846,2.896152467853103,-0.05118180397735715,1.3761988020193714,-0.5491263883026863,-1.193736814932134,,,,,,
186,186,186,186,9.33,-4.15,-10.3,0.366,-0.0144,0.602,-0.133,-12.5,-17.3,6.54,90.0,9330000000.0,-2.8807242750903432,-9.731563371337774,0.5390574930228451,-0.13634486050961758,0.6254142319873605,-0.25937709138983545,-11.428657495165016,-16.22894156582337,5.9090225301199855,,,,,,,,,,0.06632963644817493,3.265448205022309,0.002458302175130792,1.5933460343235477,-0.5257036439872428,-1.1374291354399308,,,,,,
187,187,187,187,9.38,-3.42,-11.9,1.55,0.941,0.569,0.5379999999999999,-12.8,-16.6,6.8,90.0,9380000000.0,-3.0955309175830577,-10.615462019360924,1.0527227265483203,0.6722900285727111,0.5857563689327051,0.2994299504798921,-12.058017391018925,-16.38544987609172,6.387424049523213,,,,,,,,,,-0.939520141161467,3.2948326337413216,0.10475392744756712,1.6401161606709471,-0.3855954301753753,-1.5643466516667606,,,,,,
188,188,188,188,9.43,-5.0,-12.2,2.88,2.41,-0.404,1.39,-9.96,-17.2,-1.75,90.0,9430000000.0,-3.854127183931588,-11.261351799174028,1.9811720735306173,1.9765826936393893,-0.11001889367325546,1.06370852254594,-11.09515961158218,-16.729018004788667,2.0181158149781746,,,,,,,,,,-2.7312106877837428,2.565454816541391,0.4861966600504213,1.8930742651386403,0.036403203714189335,-1.774835316941315,,,,,,
189,189,189,189,9.48,-3.35,-10.9,4.93,2.3,-1.86,0.923,-9.88,-16.4,7.73,90.0,9480000000.0,-3.6533210509407903,-11.114057312492779,3.479487119431951,2.2193336384741538,-1.340214116131186,0.9650990596224428,-10.537477963488437,-16.590241860659546,5.085054754848667,,,,,,,,,,-3.334432576708884,2.6529727984231246,1.0847360043183438,1.1354947283880426,-0.39948894273214464,-1.4499665014454728,,,,,,
190,190,190,190,9.53,-2.2,-13.8,-6.7,1.62,-0.664,0.7909999999999999,-10.6,-12.5,6.43,90.0,9530000000.0,-3.074428016102144,-12.208902172155756,-1.6927642607833198,1.7694850235655732,-0.8648516128987036,0.8430893125820379,-10.566171814118448,-14.865025223276625,5.807209523832933,,,,,,,,,,-2.6581228949398743,2.494742440774996,-0.6893870694774809,1.7695157598528282,-1.3570233178733782,-0.9900861276823101,,,,,,
191,191,191,191,9.58,-2.3,-13.8,2.07,1.25,-0.986,0.912,-8.63,-8.28,6.92,90.0,9580000000.0,-2.7659545191221286,-12.857466034392989,0.21911621337994933,1.3795692818579344,-0.9500160566879572,0.8913823707476638,-9.677590992416564,-12.087537749312508,6.404711250989047,,,,,,,,,,-2.5193908109432908,2.1370387774549773,-0.2180133695114415,1.467959236827772,-0.9527958015304212,-0.9545342155153284,,,,,,
192,192,192,192,9.63,-3.21,-10.7,0.28300000000000003,0.466,-1.68,0.7440000000000001,-6.29,-6.87,7.57,90.0,9630000000.0,-2.9428286285162004,-11.978038990127747,0.25157590082512793,0.6938612602530526,-1.4631774184990622,0.78809585934413,-8.122900144477084,-9.886840715892754,7.030401450458993,,,,,,,,,,-2.213066369889724,1.8420559521924595,0.0710468748702876,1.188626866675256,-1.21462164626123,-0.19840543409674632,,,,,,
193,193,193,193,9.68,-1.54,-7.08,0.263,0.168,-1.78,0.536,-5.25,-7.21,8.13,90.0,9680000000.0,-2.384047917039997,-9.981498803908307,0.2573805521136021,0.29915963285541336,-1.6858961589117287,0.6114254512294488,-6.8044199851647225,-8.75778032528648,7.620819925395473,,,,,,,,,,-1.668076045352321,1.5352390100116808,0.37068750370718,0.7053201766050733,-1.6438440263432932,0.0255924699362332,,,,,,
194,194,194,194,9.73,0.208,-6.03,0.271,-0.13699999999999998,-1.28,0.401,-5.87,-6.72,8.94,90.0,9730000000.0,-1.3515723082350832,-8.37078773526961,0.26430066483865083,-0.02821362507284032,-1.4005607659658268,0.4639579218794237,-6.375580032561024,-7.898268100277423,8.329140211312037,,,,,,,,,,-0.9150739240974376,1.3114916560694323,0.4787668222915263,0.3194866876585671,-1.9537419141103884,-0.2446612277800941,,,,,,
195,195,195,195,9.78,0.6659999999999999,-6.54,0.338,-0.531,-0.6970000000000001,0.23,-7.3,-10.1,13.3,90.0,9780000000.0,-0.547924278053342,-7.6245214616655925,0.3017476882704796,-0.4055956870615287,-0.9059742530337692,0.29999869184842703,-6.799830642093589,-8.826933272650265,10.99819362535098,,,,,,,,,,-0.19851124917580912,1.7124176150702866,0.37977034702590623,-0.10000764047836833,-2.154447484102637,-0.6078249641300535,,,,,,
196,196,196,196,9.83,-0.371,-6.05,0.843,-0.898,-0.343,-0.0677,-9.46,-12.0,16.9,90.0,9830000000.0,-0.4774510400542762,-6.982714618387988,0.5767608602375365,-0.7751851553494715,-0.5102167018599985,0.04231305862432766,-8.02068079097502,-10.165296062929672,14.167109165176687,,,,,,,,,,0.40449219495455296,2.4750449944226194,0.4793568940273618,-0.3413157147239037,-2.2706928842187803,-0.731137860800246,,,,,,
197,197,197,197,9.88,-2.0,-9.17,5.1,-0.0718,-0.5539999999999999,0.0257,-9.05,-12.1,12.8,90.0,9880000000.0,-1.0839192505446589,-7.874296587462193,2.8750426453893807,-0.24723741530627474,-0.5409953360964357,0.030670518542392444,-8.493073543221438,-10.981331933782473,13.433053711854319,,,,,,,,,,-0.11684931917022247,2.6762154624403247,1.0680114200022743,-0.2952166289249501,-1.5021390897329476,-0.9941557092525032,,,,,,
198,198,198,198,9.93,-4.33,-10.8,8.59,0.376,-1.06,0.376,-0.718,-14.1,13.6,90.0,9930000000.0,-2.3769119809917547,-9.066872787383828,5.778842911702262,0.2205529212873516,-0.9058432650527668,0.2726796556162121,-4.924804652792068,-12.296750159824402,13.522694051824462,,,,,,,,,,-1.1427380763420718,2.778407723268524,1.7037833527488182,-0.9252464700685112,-0.3084582880191221,-0.6481182887766528,,,,,,
199,199,199,199,9.98,-4.24,-11.1,4.29,0.201,0.302,-0.0531,-1.93,-6.2,7.23,90.0,9980000000.0,-3.119025074093684,-9.895616880735787,5.022353900397337,0.2058768680649624,-0.0567581065809325,0.0443711538436789,-3.5503779806814624,-9.725211483855015,10.143895099300632,,,,,,,,,,-0.6736544584121061,2.3443264666394885,1.382387788488857,-0.20009994218049615,0.4854198033639182,-0.35551614808569826,,,,,,
200,200,200,200,10.0,3.89,-13.3,4.94,0.111,0.885,-0.213,-7.14,-11.0,3.29,90.0,10000000000.0,-0.3271602018202846,-11.283312649498512,4.9805094752292245,0.13466406664336567,0.6052754994024976,-0.13599622398128014,-5.197788262227333,-10.262902513412714,6.4637648418007005,0.6676939353304867,0.9595185566358286,0.5017573411572409,2.4101502545699693,2.533429426555778,2.3336411786490654,0.6665671147598979,1.6510548367361373,0.534490528949221,0.11047273226853987,1.567957611871008,0.5815225095874421,0.0036371623104311523,0.5484796011812043,-1.842326111193647,1.9307964302730174,0.9288837748502197,0.5442258433331529,1.4911727203074234,1.9264024071017278,1.8196541751304274
201,201,201,201,10.1,2.95,-5.48,-1.24,-0.995,2.76,-0.33,-10.8,-12.4,5.89,90.0,10100000000.0,0.9782122783380922,-8.917764575521417,1.8198355637061567,-0.7132406549628749,2.1199957117319608,-0.27195534090656764,-7.768850570188148,-11.164305317220792,6.155687492496935,0.6597921013379752,0.915283779165997,0.5312650549478201,2.5868344705098685,2.5231252156507447,2.3526961736689915,0.7437672391744128,1.582540519195174,0.5200284685442376,1.833871914491077,1.772467130493902,-0.2642115894418477,0.4591833091262361,-0.2176273605787015,-2.5734513836595454,1.9369056877010007,0.9408021007155978,0.5489079939363475,1.502526545861424,1.921851935120248,1.8005043235746303
202,202,202,202,10.1,-1.73,-10.1,-4.84,-0.942,1.65,-0.541,-8.19,-11.6,6.95,90.0,10100000000.0,-0.10053442133966264,-9.39966789727008,-1.56406233968432,-0.8849431192819308,1.7895998567928235,-0.460503593466289,-7.962131431384741,-11.348076448433721,6.5821855249620365,0.669526432995541,0.8459048829038001,0.5597140638875129,2.635775762894208,2.6349632607944766,2.6456834359453687,0.7903712461263708,1.5928496207095817,0.5046645828372692,1.7659818595744303,2.088662269752771,-1.107603378251559,1.0565297844653707,-0.8687559370007389,-1.5543166775698445,2.002963936720226,0.9728790445676367,0.5495872715801076,1.4844195750972673,1.9703818060966403,1.6657937263697997
203,203,203,203,10.2,-4.55,-11.0,-1.56,-1.3,1.77,-0.662,-10.1,-12.3,6.81,90.0,10200000000.0,-1.872864647685564,-10.051995759720462,-1.561998214238224,-1.1964770145088166,1.7758216089207568,-0.6017135857214877,-8.943278583093369,-11.749586856298187,6.704508191896965,0.7218014643434943,0.8092877734894323,0.5613988315673422,2.6081059829401205,2.5450949065687243,2.71780749534204,0.8020471392933439,1.5992430173972485,0.4841287445013974,1.6839372978575062,2.7196639361812074,-0.9337374932866608,1.5984514131067455,-0.5035789366108507,-0.8402448245837911,2.037059086521148,0.9796158305238416,0.5431681349629119,1.433523567385012,2.1113453691964517,1.771138443843436
204,204,204,204,10.2,-1.41,-9.64,0.156,-1.3,1.9,-0.574,-10.3,-11.5,4.82,90.0,10200000000.0,-1.6884944092177032,-9.884058061751636,-0.6890741942271251,-1.2741793952278968,1.8631160558762188,-0.5822917253097442,-9.565928320789446,-11.644314011408696,5.692640509842964,0.7673985084934429,0.8193743508172644,0.5523522610955959,2.530889500929439,2.5935990695563182,2.5765392587906244,0.7923947120752873,1.5491762396983595,0.4799045285956837,1.7845544608332575,2.6088390475654917,-0.6645535633596663,1.6550551075755875,-0.32053333402252643,-1.101801629331275,2.074634882271614,0.9473280836026232,0.5419665859673545,1.4019151991540724,2.0935805633058866,1.8814872180775286
205,205,205,205,10.3,-2.76,-9.63,0.836,-1.18,1.36,-0.439,-10.6,-12.4,4.69,90.0,10300000000.0,-2.115301092932896,-9.780498883362961,0.08582411764158637,-1.2034900634282837,1.5094374113550466,-0.4818719598158016,-10.040502244957061,-11.963053446984944,5.154282774118457,0.7830725772586766,0.8031351613521224,0.5662783681590015,2.5210822252409795,2.5283476447064905,2.5332796001287634,0.7823880594776575,1.4995733859570484,0.4856727595084086,1.4298534238190252,2.6420046257302823,-0.2900354071067329,1.7022470394410436,-0.25166663432049785,-1.0151896685551731,2.0100973480954636,0.9304237046081543,0.5546883223719629,1.395253519601261,2.0833578067579244,1.9660543980224099
206,206,206,206,10.3,-2.62,-8.34,-0.381,-0.92,0.8240000000000001,-0.627,-9.82,-13.3,4.18,90.0,10300000000.0,-2.31633487355534,-9.193322349001095,-0.1513717024025304,-0.9907077370345932,1.0275911687708723,-0.5835786160208659,-9.939305467203807,-12.526962096934644,4.631151317300492,0.7767229895017838,0.7455882198387491,0.5730951933799482,2.5240941999590043,2.3958226070064934,2.4356904322972928,0.7807002984543989,1.4789648496608785,0.4866886858307925,1.1962604582523495,2.59968744628885,-0.16968314600407364,1.6883682962089,-0.512641819839992,-0.7884000175105742,1.965459885506796,0.9351768086558848,0.5647526565572488,1.3645515466000646,2.076620276750594,1.8278517360777846
207,207,207,207,10.4,-2.67,-8.8,0.12,-0.807,0.7709999999999999,-0.696,-9.81,-13.7,3.74,90.0,10400000000.0,-2.457208308998261,-9.032996250237904,-0.01348630029322695,-0.8528201319160602,0.8472136822926819,-0.6623642388937641,-9.879962597222654,-13.021735816076975,4.152656559802157,0.7658934594555998,0.7010181657444414,0.5870258969639461,2.428858795126688,2.4040262848252056,2.58310531453897,0.7744419762121716,1.4617140857082038,0.4845757047852604,1.083425832586128,2.604825472043151,-0.07692776716202969,1.6918967405301604,-0.5105714479663739,-0.7267635147657674,2.0633828679685724,0.9327948063625876,0.5502023351200667,1.2895133295722068,1.9949391937315453,1.8955581326657414
208,208,208,208,10.4,-1.85,-9.29,0.079,-0.6609999999999999,0.593,-0.7020000000000001,-11.4,-14.8,3.46,90.0,10400000000.0,-2.215342509091987,-9.137756181975648,0.03350648200504328,-0.7088435389216907,0.6685074892912345,-0.6901412533787884,-10.577563820107883,-13.771787130727212,3.780741587034252,0.7620587084752292,0.6598989844402724,0.5829179741002218,2.3656571370491672,2.4429631801903042,2.552273143055332,0.771928865501087,1.4452780623174195,0.4799324929755053,0.9594782325698132,2.6097999925076056,-0.09762080174197547,1.7251548870998656,-0.6352548955510426,-0.8953228940984113,2.0555679324822886,0.9504433118235333,0.5257942935601696,1.262667966819114,2.088376669580826,1.794866580085098
209,209,209,209,10.5,-2.1,-9.5,1.19,-0.28,0.625,-0.515,-10.6,-16.6,4.47,90.0,10500000000.0,-2.1693987498040768,-9.285414118159393,0.621127010673834,-0.3869616010312192,0.6379227562125764,-0.5674011141369261,-10.587860788157974,-14.96469471919462,4.150831866765931,0.7768819810334274,0.6314706714214259,0.5909134497011386,2.4105417254696158,2.5608658254298566,2.4091588490416966,0.7678979745713331,1.4052918590060863,0.474327346821803,0.6313027463743178,2.7396076314240174,-0.0065412989458021,1.5501700993507332,-0.520601351592528,-1.1532464902194173,2.0409385969094322,0.9620847445217116,0.5207439554682158,1.2669672404373424,2.141409483175643,1.8960989221650464
210,210,210,210,10.5,-3.47,-10.1,0.12,-0.0431,0.932,-0.209,-15.7,-16.7,4.26,90.0,10500000000.0,-2.6874598111358514,-9.61745602059966,0.3665017132841448,-0.1288655148077606,0.8446520707166962,-0.3162312872888337,-12.934010508653445,-15.696626707474888,4.2094487239730665,0.7931436932375205,0.6064932267089659,0.606430649162491,2.5091751286867114,2.568672627323705,2.3420373878629293,0.7658754540418616,1.3486114702212633,0.472188985166609,0.2784381512718635,3.1146509714973494,0.013130664900236136,2.0214728266730635,-0.5381468534009965,-1.4074662871537178,1.9880561378775323,0.9739821805865208,0.5189701473946636,1.3052521097217749,2.0358884141926534,1.9817680125887263
211,211,211,211,10.6,-2.63,-11.8,1.47,0.7,0.715,0.146,-14.9,-15.9,4.31,90.0,10600000000.0,-2.664572219113104,-10.507105344498852,0.9271950689011456,0.4932654277086197,0.753509721602083,0.007703402979593876,-13.836275642991614,-15.782407045581634,4.263438692500074,0.7887297462609704,0.5777580781623776,0.6020193258819275,2.6080466851329605,2.4065154797948893,2.33327698362614,0.778799816597487,1.2826015819602896,0.4778308628031059,-0.4307723374531248,3.1003440735307413,0.09539648551677336,2.1123375989583133,-0.434993047140702,-1.8090858824909144,1.9975610132358252,0.9697207972803604,0.4980879681312526,1.3636235846621665,2.0032086045161983,1.981747747318365
212,212,212,212,10.6,-7.67,-11.8,1.56,1.78,-0.774,1.37,-6.92,-17.7,2.74,90.0,10600000000.0,-4.658355640955506,-11.03411553818275,1.2487265866731725,1.4590643077930725,-0.3202933761150908,0.9624097197915178,-10.662140917648584,-16.59122586305695,3.445443569991233,0.7646295219274459,0.5494400391369255,0.6032870350424381,2.548444804536892,2.3827092686353404,2.389243521336267,0.8040796515359259,1.1651988752964124,0.4766208211733912,-2.5730254533979084,2.8903297221097355,0.44299058873345337,1.8987087521238195,-0.14776705175084096,-1.0430616182905077,2.0637450877817587,0.9711634899723329,0.4912985030174866,1.413605903165089,1.969199450257446,1.9188865558370596
213,213,213,213,10.7,-6.63,-11.4,1.48,2.83,-2.74,1.2,-9.33,-18.3,6.33,90.0,10700000000.0,-5.443709496243402,-11.183257319210938,1.3662378461618423,2.488062937711524,-2.021289749784705,1.128914566499832,-10.050772132939374,-17.311966678582365,4.994277175391685,0.7499806348714183,0.5107284854037721,0.6355579420400769,2.483946228999055,2.575798940206246,2.389174296734641,0.8307309203451513,1.114056192776258,0.4643203995429178,-4.178533152655983,2.9338229074563937,0.8195386889708701,1.561906919803164,-0.7804778259998438,-0.3939103640409799,2.085284258399699,0.995910066591103,0.4883834789320954,1.4423316545039968,1.975409001890227,1.984852479947934
214,214,214,214,10.7,1.36,-14.2,-1.14,1.87,-0.974,0.6709999999999999,-11.2,-13.5,6.06,90.0,10700000000.0,-2.733626838733428,-12.41294281807918,0.09280509107623214,2.0241564611273954,-1.2850698787920098,0.8080050633992355,-10.578195229311547,-15.704123289590411,5.566506327387606,0.7641112387065636,0.4631329728609712,0.6383743933905758,2.4916226148531573,2.7686567390269046,2.408820690976494,0.8342669902703161,1.1735733793135652,0.4324345914103177,-2.9789566493331163,2.42353601353275,-0.2504803532966174,1.4442907730652002,-1.1605162634361164,-1.2686900061893407,2.0962620109209222,1.0193442282593286,0.47655664786851076,1.4254400751014795,1.9541419657206478,2.0833147757697663
215,215,215,215,10.8,-1.54,-15.7,0.965,1.67,-1.01,0.935,-9.48,-9.38,6.41,90.0,10800000000.0,-2.2581762784830133,-13.75281399678964,0.5359719439293364,1.7583332136994003,-1.0917022712935431,0.8970039424193238,-10.074192600736152,-13.036681389989019,6.019411713711227,0.7959500003796117,0.474259675893424,0.629889724561952,2.5255701637686063,2.6603940047031767,2.4589805064774746,0.8210700633184911,1.2206198185961352,0.4067070453077021,-2.8212306610298126,2.0755743449210615,-0.3773073873291542,1.4267716791639735,-0.9128527098080288,-1.3275034363195135,2.2290125539092824,1.0195215871718037,0.4600567977348409,1.392751037153175,2.0204483646575566,2.105549271669419
216,216,216,216,10.8,-3.6,-11.7,0.163,0.866,-1.41,0.906,-6.54,-5.34,6.66,90.0,10800000000.0,-2.7926572014305715,-12.916045248183416,0.3464629193257941,1.0885645921069282,-1.3154580018526911,0.903308450766843,-8.452220851208693,-9.790310398798717,6.3633690877521065,0.799850896396137,0.5299393813826258,0.560581868369251,2.5938513652734674,2.3379931759584163,2.3417863742357166,0.7918172138092371,1.2203265236767606,0.4033417603760893,-2.5028272135379286,1.7338643960956353,-0.08444176104755986,1.3554835007408197,-1.0160032103924417,-0.5110286287834872,2.148094668915558,0.9965699800619611,0.4362887405187677,1.3690114533782587,1.951809805052026,2.217926629994211
217,217,217,217,10.9,-2.14,-8.37,-0.012,0.359,-1.88,0.56,-5.25,-5.2,7.38,90.0,10900000000.0,-2.532688036689674,-11.062984843443358,0.16432600586785326,0.5409670538273845,-1.7123176336188246,0.6627156577910284,-6.9826032363495125,-7.854170564138336,6.909238921912423,0.7715587134471502,0.5545205451776547,0.5321621071415148,2.624954561931511,2.2452816421704096,2.5188111968109856,0.7688276236331686,1.1850664295639175,0.4244511110252661,-1.9445196832648888,1.384698941096462,0.2357817088325111,0.9739371809337352,-1.4814584605308023,0.035183804296915484,2.337205781432245,0.9494978495276902,0.44165396351231323,1.3358676967715504,1.9327460588237466,2.2104005876382438
218,218,218,218,10.9,0.28,-4.84,-0.371,-0.177,-1.4,0.368,-5.69,-5.67,8.48,90.0,10900000000.0,-1.4123261134431009,-8.526369915502803,-0.10767597715763694,0.0020744120114069013,-1.4927657278481736,0.4561770089357312,-6.389379817560643,-6.932912752772065,7.752643084103335,0.7406192722630593,0.5459698026070957,0.5672761960701561,2.5642734521325434,2.264029602200516,2.587374976604461,0.7446896652133467,1.1771062546403916,0.4237060201115351,-0.9561893239972532,1.1305169061457796,0.4213699303583058,0.4890673924437918,-2.0250916133108983,-0.11472562705432855,2.379103654997292,0.9319334642757378,0.47457259892973747,1.3083532684818893,1.8906316034280708,2.176361671079803
219,219,219,219,11.0,0.931,-4.92,-0.227,-0.716,-0.914,0.247,-7.5,-10.3,13.0,90.0,11000000000.0,-0.4789224406997014,-7.0563403357652055,-0.16830514602410346,-0.5368988254339911,-1.0859071303370869,0.3095843966478872,-6.8990845067031525,-8.353111231343151,10.570158755240998,0.7150351993433477,0.5271208767339924,0.6793984069906163,2.602483333839044,2.3917995884239835,2.754639192165938,0.7019527499864463,1.1626836989761935,0.4212670185441741,-0.13111834777577294,1.556061144708212,0.3954435893521991,-0.04819669928495621,-2.4280245668742664,-0.4739834438615235,2.481595316829965,0.9117140851005097,0.5041707632049504,1.2680752795280554,1.8713809197773676,2.1552386734710622
220,220,220,220,11.0,0.0215,-5.34,0.515,-1.03,-0.174,-0.101,-10.0,-13.0,18.4,90.0,11000000000.0,-0.2795920345668087,-6.356725223989428,0.17888582100571288,-0.9070113221188256,-0.4448580424359088,0.021844179204168986,-8.322209345022365,-10.313115086582636,14.774313282637362,0.6846349696927321,0.5171836806147778,0.7052020033859415,2.6088713915219017,2.4218828935321413,2.7444102692298538,0.6565218834636389,1.1572691562099768,0.41028537714765856,0.6139842999197029,2.5504951815718453,0.4464856721940024,-0.4035671273854483,-2.5165104824654976,-0.7648048057674374,2.4498965263810333,0.8675858245751128,0.4909454654998762,1.2108865607598582,1.8310098528461756,2.1328830162319403
221,221,221,221,11.1,-2.02,-9.62,4.91,0.0742,-0.924,0.0447,-10.1,-11.1,12.8,90.0,11100000000.0,-0.9728387678538872,-7.686902242208933,2.58278998871492,-0.17053245965469455,-0.7816834919384752,0.03786168734186487,-9.138103421071376,-10.645014189055829,13.714225667991656,0.637800638169332,0.5116887931665489,0.7186679701669708,2.694813443815182,2.431083403122876,2.6360986935998847,0.6240255689242096,1.1311274395937247,0.3928700555425508,-0.21965877504163653,2.6455744347938905,1.0955641818933983,-0.2460773362058795,-1.8041506786744423,-0.9682728090321798,2.414896781211383,0.8347587920317535,0.477634854094985,1.1685044156503055,1.8057394495299355,2.04787472285273
222,222,222,222,11.1,-4.73,-12.0,10.2,0.6,-1.76,0.682,0.71,-7.8,10.3,90.0,11100000000.0,-2.4694072989782887,-9.445008472834377,6.453134759890228,0.4078148096279649,-1.4694167870853434,0.4892779923032615,-4.6184444401600615,-9.445020239871807,11.8809915386672,0.6019910080170615,0.5191976792694968,0.7263949721418048,2.7439891945576127,2.500172367096784,2.530041631827743,0.6153201210287135,1.094641251283658,0.3897294628949906,-1.6525225273440136,2.1131733322141866,2.0775870414975826,-0.7686284923569273,-0.283591161466492,-0.4601355794897625,2.372161044220229,0.8224020719623417,0.46419839300189997,1.2059171831706845,1.7020997662091113,1.9338919683141562
223,223,223,223,11.2,-5.29,-10.5,4.31,-0.459,0.563,0.173,-9.02,-20.6,16.7,90.0,11200000000.0,-3.5929178262436485,-9.875044442646676,5.364196575340003,-0.2428001662432637,-0.0406759733807589,0.26762831378331464,-6.6384813323119785,-14.15006164953985,14.468510212613527,0.5797509762869432,0.5155858827901965,0.7251024421928981,2.638148108866224,2.654448043566015,2.5942742061359505,0.6215924707878753,1.0523390316504877,0.4024196336059945,-0.8093572343064397,3.720385621305932,1.4629082664193245,-0.4002944647273191,0.18334403499556712,-0.5594359462720381,2.336310285554133,0.824715758210851,0.45411500440297053,1.2799384615182554,1.6842865778353215,1.928774931370609
224,224,224,224,11.2,5.12,-7.43,1.54,0.384,0.902,-0.155,-3.63,-4.26,5.67,90.0,11200000000.0,-0.12235119631055902,-8.878394607199008,3.4211019625298604,0.2276643167310907,0.6220028849367684,-0.028552357474911805,-5.257778002593963,-9.978548304139078,9.744238433683485,0.5869073816898644,0.49483921813704296,0.7345333591763101,2.7215297469564645,2.728965630031732,2.798675869198901,0.6382666751113035,0.9792501946639044,0.3959635303311044,0.2840244633101249,1.818363549554166,0.6042470391024095,-0.3592881976220025,-0.3974983486311748,-1.7376340432694364,2.47934007925344,0.8410574976572585,0.4681928341041333,1.338723146350804,1.6288005241812262,1.9615813652691299
225,225,225,225,11.3,-4.3,-19.9,8.12,-0.599,0.8740000000000001,-0.0952,-6.44,-12.7,6.71,90.0,11300000000.0,-1.786410202856905,-13.371024621650164,5.808636956986533,-0.3928144394505914,0.799150889110843,-0.07525946026726812,-5.800343439796183,-11.126425024983453,8.115034557062701,0.5951480018293568,0.4660809940385979,0.8365924694242413,2.5080047711467923,2.857010101192476,2.884112570112036,0.6623308091109548,0.9554048188297212,0.3774453974893024,-0.0516606909727464,2.3648684086918124,0.5832224785852684,0.2562951922743677,1.26139834295233,-1.3707345394619423,2.408563094473891,0.870859657745324,0.4985431773732768,1.3643571773491283,1.720155586569733,1.9078703085175792
226,226,226,226,11.3,1.37,-3.78,-2.75,-0.982,1.5,-0.718,-10.8,-13.8,7.66,90.0,11300000000.0,-0.5291353955756217,-9.46152821266062,1.4599480570833048,-0.8350460954572956,1.2918311916094352,-0.5256962062303567,-8.094870885226973,-12.25410806045666,7.870708233181789,0.6417401564108874,0.41913499757768585,0.8644635532581326,2.61019213839195,3.074392057547448,2.8485203532864087,0.6707187140735001,1.0276382012768197,0.3493037629377948,1.4022431692564918,2.431031421007092,-0.1576006515795081,0.5901809991424957,-0.40315413339562267,-1.5594434414761411,2.3816401156397213,0.9021727825721663,0.499138382905609,1.3509633344971033,1.6906041166970938,2.010543467350883
227,227,227,227,11.4,-0.8190000000000001,-11.7,-1.27,-1.51,1.41,-0.3670000000000001,-7.65,-10.8,6.79,90.0,11400000000.0,-0.6445955062352231,-10.37397469128716,0.07284695793984097,-1.3416538640188649,1.3749010377635098,-0.4144808825123458,-7.890703221754566,-11.640782204711552,7.290432765131878,0.7143358710144173,0.4140001345915425,0.8394908167414524,2.6004519578936645,2.833827465973444,2.8430017031090755,0.6656474316358063,1.1023450196657212,0.3206843973184151,1.5499790172146442,2.3123259327834185,-0.7226818704088467,0.8892327482791638,-0.4904302095687898,-1.2405501382062996,2.471647404296185,0.9195331631406043,0.49577497442392987,1.3197409097475272,1.6676183355019456,1.9808859630478792
228,228,228,228,11.4,-4.6,-12.2,0.232,-1.65,1.24,-0.514,-9.06,-11.2,6.76,90.0,11400000000.0,-2.2201290952157318,-11.118299609820843,0.15371346061317126,-1.5730926881686758,1.2800688144482604,-0.4842245261642034,-8.427336964032223,-11.454865296128785,7.005622334410412,0.7499333963850279,0.4620522395085875,0.7570205328880799,2.4725566280949303,2.5098834956421783,2.7712103655080162,0.6548558264869695,1.125990355645342,0.31528087064303045,1.3684882336110735,2.7110610953186733,-0.5488363780261322,1.3791195452678784,-0.1242107976160258,-0.5652926423121364,2.4652402504778053,0.8921872908055397,0.48596679485274047,1.3109330342198582,1.6680924508113741,1.9364832679557045
229,229,229,229,11.5,-1.04,-8.55,-0.0838,-1.5,0.746,-0.551,-8.72,-12.7,5.89,90.0,11500000000.0,-1.7500550138649689,-10.071408613053991,0.03303160815351133,-1.5182306836298731,0.9046310990213392,-0.5310212117647962,-8.561650980863481,-11.9800486107155,6.4066000386468085,0.7403192081847829,0.4898008208587498,0.6818182435225815,2.5486286207649087,2.3289958684233563,2.7774164998236395,0.6374836861095444,1.1336577240807426,0.3435189448699494,1.3708357651335006,2.516009770546357,-0.4247469705750747,1.2227443726416884,-0.5285126799998126,-0.6434477925420831,2.5335315618939043,0.8706978007726012,0.5026709926192756,1.3112328826485082,1.559309337877033,1.92089005660554
230,230,230,230,11.5,-2.17,-8.25,0.443,-1.08,0.743,-0.691,-9.14,-13.1,6.14,90.0,11500000000.0,-1.9173293263604123,-9.328965475673057,0.24133872004107315,-1.1893029618249145,0.7910082494630235,-0.6431353761221443,-8.827076899344993,-12.452431294623608,6.2634517498927815,0.7309522259837682,0.4762181298995678,0.6903408521404342,2.7922830766783435,2.2433973227689346,2.6953429431707425,0.6198542342508686,1.1648996192454282,0.3592882982191368,1.2698003647279517,2.595294305587444,-0.17674008493687474,1.2125185988498386,-0.6014809870180559,-0.672775644454151,2.4207035101159886,0.8707026768798073,0.5545853823113794,1.3148206989598368,1.4671850110411453,2.0268179132108672
231,231,231,231,11.6,-1.69,-9.1,0.0575,-0.7959999999999999,0.8740000000000001,-0.682,-9.59,-14.2,5.99,90.0,11600000000.0,-1.8267785600636688,-9.235634653762641,0.14792929039744426,-0.8940971182843556,0.8493494907761988,-0.6703719442187319,-9.177210604622763,-13.18953545108539,6.116624452293293,0.7129742447444741,0.4645178090957835,0.7697855145948913,2.6875515080950905,2.329875840388468,2.7023376563834747,0.5932349124502408,1.1912096380814627,0.3668636947395924,1.1738189172347258,2.6649457961172427,-0.21737004879078375,1.2414372368197877,-0.6304564458130519,-0.8685430238364231,2.3979189152865454,0.8773644888709893,0.5742876969793438,1.2960575280100133,1.351060512336914,2.1704648431033
232,232,232,232,11.6,-2.03,-9.08,0.742,-0.584,0.618,-0.594,-10.8,-14.9,4.69,90.0,11600000000.0,-1.9077265813769968,-9.172194777372187,0.4497797653138291,-0.6613440152323727,0.6867162653669076,-0.6168499764062957,-9.921968780830436,-13.910989423698982,5.350612790733171,0.7176475125425275,0.4639069377130912,0.7768639178321501,2.745802861743572,2.424258111946117,2.7174809903949257,0.570080541516323,1.2069971397953008,0.3657702522714586,0.910985118932172,2.6818468287661923,-0.0719455628665618,1.3468741997897629,-0.6375367333646438,-1.0153126053004513,2.451853427050361,0.8677556065879595,0.5589393594035275,1.254356792544122,1.4084826042795748,2.295914866674792
233,233,233,233,11.7,-2.44,-9.77,0.979,-0.108,0.688,-0.445,-9.95,-16.9,5.95,90.0,11700000000.0,-2.119744027697927,-9.415872512128153,0.7186793636354406,-0.24601434981563325,0.6876187167919268,-0.4964163904807099,-9.934833256787712,-15.171719300586656,5.672447639183103,0.7091659273242059,0.4850985289217205,0.7708880123822052,2.6268042970979972,2.4843854007252766,2.740075878699124,0.5556848814244879,1.1887742950988387,0.3624387216670141,0.5063736483294057,2.8762694389550845,-0.051104604216865225,1.2789458300079846,-0.5102308235515881,-1.182159584982453,2.4643009186613805,0.8477428301816293,0.5421627428406368,1.246765485404139,1.4888533976978107,2.2984737026707878
234,234,234,234,11.7,-3.57,-10.2,-0.012,-0.0944,0.654,-0.267,-15.1,-17.2,6.2,90.0,11700000000.0,-2.6974161597128217,-9.735498721436716,0.347417297671822,-0.13221545746071078,0.6639855451805932,-0.3356398850763953,-12.30531953578968,-16.027224926745927,5.95571148617736,0.6909818725281899,0.5079355647799548,0.7369608305206189,2.603780241609796,2.5474271046222596,2.592812655675502,0.5555044565293856,1.1439081818817516,0.3670368763518938,0.1832035427083509,3.2958415538379087,-0.034338971054086675,1.7242984930322542,-0.6577837350965015,-1.2424150665069489,2.3850635173084735,0.8259152604242177,0.5273811077678265,1.3031479427916988,1.4359384421809436,2.2230466245355083
235,235,235,235,11.8,-2.67,-12.1,1.5,0.83,0.652,0.238,-13.5,-14.7,7.77,90.0,11800000000.0,-2.6864956681640355,-10.69931761316461,0.9330506910527,0.5900054541178283,0.6555599982262712,0.06637068029816906,-12.853602598049088,-15.467416746145785,6.929875498241137,0.6807723560472267,0.5185121267774452,0.7076062920560408,2.6088527380200124,2.7522321748357843,2.6107354310924884,0.5566534059411538,1.0965029118521317,0.3914527150082341,-0.5968700537696834,3.2918238495884435,0.05866836771471424,1.7153214873438078,-0.5424454352856399,-1.6423255007605846,2.4107834971966295,0.8175250254385877,0.5044108580355606,1.3595860064974747,1.2719261988673092,2.397521929089393
236,236,236,236,11.8,-7.67,-12.4,1.95,2.05,-0.509,1.29,-8.4,-16.3,-1.29,90.0,11800000000.0,-4.671546448059626,-11.392550133699286,1.449768061023039,1.6858500152310802,-0.16309806230898627,0.923898037411542,-10.809679429595642,-15.818590396568561,2.5162958056812474,0.6673338536047525,0.5057543538823737,0.7065065123598604,2.900766649441768,2.8972677188627785,2.6963231740313724,0.5645622591231889,1.0425552694473847,0.39074494201586296,-2.6036651244994924,2.736499903927477,0.4692463809656865,2.094754720316553,0.061955285095502376,-1.1688707504640374,2.596577130944657,0.8203301222443155,0.5015080383331795,1.3838521046447856,1.1335463436410447,2.5199170494834275
237,237,237,237,11.9,-5.9,-10.4,3.32,2.58,-2.68,1.11,-8.68,-18.9,8.75,90.0,11900000000.0,-5.160869356388108,-10.987966388344336,2.4000428096590563,2.3569822114354406,-1.9324204765696733,1.0543195129391074,-9.832290891867544,-17.118293112792852,5.863420756057986,0.6669048202835967,0.484772125311461,0.8233927275183579,2.726330250355612,3.0386206918354612,2.7027617492842877,0.5754449594478823,1.0218794772555069,0.3666368978479863,-3.967372001606335,2.980800481046932,1.0836906219251805,1.2753334544976018,-0.6254606893166943,-0.5410749698402477,2.6806871655395437,0.8293126030173289,0.5328435735020621,1.3790085752233616,1.1206658214909988,2.5330817561952403
238,238,238,238,11.9,-0.943,-13.1,-6.81,1.75,-0.957,0.63,-9.54,-12.7,7.62,90.0,11900000000.0,-3.4807896107332765,-11.848874332269116,-2.2796288350727867,1.9013927171498208,-1.2467230282379536,0.7569536358092682,-9.698147770773703,-15.254708176802184,6.80659830320926,0.6856184386447055,0.4445898124005906,0.8488578266348487,2.6464404012024176,3.2710618038785304,2.6243700229363807,0.5801945102744085,1.0519316508657337,0.32967852207322085,-2.8665571566091512,2.628100684102384,-0.7230907462830853,1.6074955237480024,-1.6129398717595154,-0.5517470295268738,2.7758305632865072,0.8383801556111213,0.5170375689383543,1.3308630414850406,1.1753063469555627,2.5863141587754868
239,239,239,239,12.0,-1.77,-16.7,2.14,1.4,-1.05,1.04,-7.95,-8.0,7.49,90.0,12000000000.0,-2.7993405719113014,-13.826291975518007,-0.03399189433543448,1.525056704325538,-1.1084313716635754,0.9553143415979792,-8.895857998460395,-12.194756302963881,7.1735438676854635,0.7258206536646202,0.4435838448755869,0.8072093303558159,2.4653173329475853,3.0894813397131355,2.786837977792344,0.561701599372556,1.091553692375104,0.2924631884533616,-2.8206758133274468,2.1529883690657354,-0.483192791353624,1.3534970773626458,-0.925061951059701,-0.8272918117656809,2.721333100757362,0.8328007666730446,0.5013125523368992,1.281493874739043,1.2470179602758211,2.4875630313342127
240,240,240,240,12.0,-2.89,-11.3,0.532,0.695,-1.38,0.996,-5.51,-4.92,8.04,90.0,12000000000.0,-2.8354524646546664,-12.796524143527154,0.25359159629647904,0.9020316629221424,-1.2993376730768549,0.9838271098820576,-7.341962608108956,-9.126348393918564,7.638778777907437,0.7538028944183791,0.4845031009859661,0.7000718244230828,2.313597260581672,2.5286503191579333,2.8606691790237053,0.5465913544642224,1.0866574029751015,0.2804207314378199,-2.44661946199598,1.7299351729374683,-0.10703896840112848,1.0982249909533734,-1.0443566405975602,-0.3008753805396242,2.530698846777905,0.799210164108078,0.49583755221315995,1.2737373496455004,1.2606305803008473,2.558997366942676
241,241,241,241,12.1,-1.64,-7.43,0.00718,0.166,-1.66,0.626,-4.65,-5.18,8.46,90.0,12100000000.0,-2.359274722779701,-10.609019856546198,0.1283885554171381,0.34958005948166004,-1.5528747113958845,0.7330595354978504,-6.106521421792199,-7.4618242816077816,8.07972529770424,0.7303898166137532,0.5148332637112075,0.6362391021748403,2.4769530928158066,2.2541180064372925,2.781570793400498,0.5201244934808559,1.0728112440528428,0.2960328128084847,-1.7527465300402736,1.386294504054104,0.2335133127011409,0.6892065572709597,-1.5283287598222917,0.06682424812323427,2.401193857360806,0.7690066558932664,0.5304228044896375,1.2704204888482862,1.220140358150131,2.381890164007369
242,242,242,242,12.1,0.196,-4.8,0.0646,-0.188,-1.34,0.453,-5.0,-6.16,9.57,90.0,12100000000.0,-1.3414467736659983,-8.241145479054898,0.09597725070931233,-0.05391747288476484,-1.403228861625473,0.5367919982944378,-5.598697805544422,-6.9127298149877,8.879913189528494,0.7383398214686888,0.5166370934627066,0.6715458066470159,2.6077037147878666,2.135625287717797,2.762337338461737,0.5040708841958309,1.0768723981312909,0.3075198238826771,-0.9209207473527888,1.1852037567947569,0.4725822134301811,0.20158896225814066,-2.0054202525805787,-0.1133534778592162,2.3565634460294573,0.7615312411685216,0.607903489061917,1.2640189765029437,1.184088059595747,2.527333837582339
243,243,243,243,12.2,0.453,-5.2,0.0814,-0.72,-0.765,0.326,-6.51,-10.1,13.3,90.0,12200000000.0,-0.6266750600661949,-7.001512748579704,0.08857047196786326,-0.5538665801210219,-0.9545690991012838,0.3890675987320754,-6.016928201269629,-8.257083620082497,11.25323457652295,0.7206431220888325,0.4992851819939362,0.8191804261418478,2.5943839129502417,2.1413577797096446,2.693643584764488,0.4883437649418806,1.089346324966428,0.3038354020279167,-0.15054207209301404,1.6032526547986514,0.4473979460107228,-0.2350767780722917,-2.26675774714516,-0.4202971207795404,2.3793563619501144,0.7606983267820392,0.6717722357993737,1.2495671649658266,1.126220780590538,2.5148640549969232
244,244,244,244,12.2,-0.4,-6.12,0.903,-0.986,0.0,0.0184,-9.74,-11.7,17.4,90.0,12200000000.0,-0.5363848834985964,-6.642190205042748,0.5023864398217094,-0.8782178430892034,-0.283529662517895,0.12930133557575765,-7.725583479797834,-9.709265787553424,14.553678420964088,0.7160538019659648,0.4867658883504499,0.8791362431637298,2.6602069350100095,2.2650223010579573,2.5884931584873385,0.4739259985637544,1.1036567707728169,0.2955456387002661,0.5287135772419085,2.4810810017995317,0.5092342769937377,-0.3853251398388604,-2.2339198552605586,-0.7305773602696606,2.4454664314043373,0.7591809635641765,0.6960148986794271,1.2164427704342224,1.075103364409871,2.460006483033343
245,245,245,245,12.3,-2.05,-9.67,4.54,-0.0883,-1.0,0.162,-7.45,-10.6,13.2,90.0,12300000000.0,-1.1392945082832495,-7.87638699322828,2.553919317498413,-0.28532028336146553,-0.7871913168133787,0.15221677256017524,-7.5991079381656785,-10.084967321415565,13.826834266225676,0.7211239708650797,0.4942948686867026,0.8648051067961913,2.6498385264513526,2.3224408014690257,2.565613492568444,0.4791597767519904,1.0805388384722805,0.2811547361388816,-0.28920749887717995,2.4949076963488634,1.029043166957111,-0.41564937478894004,-1.6529782857197601,-0.735690294416731,2.5041816233272165,0.7522977785382422,0.6812202385713964,1.2194495326627899,1.1260382241372042,2.42703443160127
246,246,246,246,12.3,-5.49,-11.1,8.6,0.309,-1.18,0.6890000000000001,-1.17,-6.73,11.0,90.0,12300000000.0,-2.8722860274634536,-9.190397271051763,5.625965221880909,0.1607653936374135,-1.0633264677431136,0.528397956112902,-4.648552440638992,-8.669880975655332,12.30899395681749,0.7100141117697322,0.5163440809570579,0.8039298637796802,2.6239002605361357,2.3929859481908298,2.53792826107296,0.49645854179406396,1.0365498948207392,0.2794964345019038,-1.371202335769941,2.2406427871905774,1.9324771033058818,-0.5612703603313666,-0.2822529184820317,-0.2671347083226265,2.442884535349789,0.7431302119045224,0.6570555938650381,1.31712663164339,1.1039721986069162,2.226022784744983
247,247,247,247,12.4,-3.75,-10.1,4.1,-0.515,0.586,0.0667,-8.06,-24.6,18.6,90.0,12400000000.0,-3.2219008091553474,-9.56116996984659,4.850614138512645,-0.3464514598806694,0.09611093878635746,0.2048370239074444,-6.21419212479413,-15.38902081399632,15.686886765097434,0.7290347693565201,0.5246094834312716,0.7503470811665065,2.5800505076397178,2.5949488241253307,2.6151424321158667,0.5152929565032505,0.99773536615135,0.3038205694664603,-0.5840681231024083,3.91609148716733,1.200881455665248,-0.6767059050618254,-0.001907324267198488,-0.6429466605642788,2.4215782956983474,0.750849845258074,0.6460464809214105,1.4254633669226948,0.9886325191730237,2.251008180894382
248,248,248,248,12.4,2.31,-6.43,1.86,-0.338,1.31,-0.254,0.281,-3.18,6.55,90.0,12400000000.0,-1.0184104532485327,-8.284841436603969,3.3310672163571566,-0.3401079518211076,0.9494461180638588,-0.1167189516969132,-3.233308174294507,-10.239397286380823,10.780927151280153,0.7404237432908227,0.5114882570940722,0.7235212635778939,2.798209308375977,2.8188276624086486,2.7250672709541184,0.5385906660648111,0.9489030435274776,0.29734387550483776,0.6966763972721222,2.1269033910448134,0.6430892496962349,-0.5812699531506406,-0.06183005664464394,-1.1338448312303948,2.5994236979200784,0.7625995305889601,0.657789786539852,1.512126036411967,0.7621390193041788,2.2030447157328794
249,249,249,249,12.5,-4.2,-23.8,9.66,-0.322,0.3,0.23,-3.72,-9.22,6.57,90.0,12500000000.0,-2.2857147265557263,-14.609134816888867,6.546831504435407,-0.3265164595675043,0.4929009087461342,0.12626394710218394,-3.456669071417167,-9.809427431835088,8.519912140246753,0.7643751348148385,0.5006736638319909,0.86880131728542,2.6449195340357767,2.8705932859437238,2.7840285295168523,0.5677681917806097,0.919590441090626,0.2742512048127867,-0.5745356431175911,2.1285870447933406,0.6446842747946395,-0.0017606450711486843,1.6882425965896783,-0.9399741371136838,2.699535695741459,0.7780353557865131,0.7087842666099814,1.5438779005379093,0.9136483065673041,2.247540795119452
250,250,250,250,12.5,4.36,-2.64,-2.36,-0.922,2.23,-0.632,-13.4,-17.8,8.26,90.0,12500000000.0,0.3614348263622649,-9.730272455301067,2.0212231587241565,-0.7734752596810534,1.7140403834903202,-0.4051323779919651,-8.020031313246633,-13.179758060243199,8.380355046051863,0.7867091327542591,0.4651453097135412,0.8865998587085266,2.44716575899451,3.1083870173542403,2.9609810400315366,0.5869969260512323,0.9293954031492294,0.2359934952167493,1.5436982085339306,2.424991289615825,-0.30588226345099906,0.2878213496373405,-0.2402674540404101,-2.209874836500379,2.703021445313968,0.7904418259172645,0.693104760498987,1.531565469959022,1.0203496266995888,2.206315222779007
251,251,251,251,12.6,0.804,-8.32,-2.08,-1.15,1.84,-0.725,-7.33,-9.3,6.58,90.0,12600000000.0,0.5377192862306995,-9.155416640220837,-0.0626300744746473,-1.056087668964284,1.8025870299016185,-0.6292977041299516,-7.703350380858157,-11.543321132180028,7.413672418564633,0.8523558484546641,0.4565524417100634,0.8446000683779046,2.3967961517869134,2.842784870341112,2.7156800276076507,0.5832447373030346,0.9346962339668344,0.20153357590997864,2.0770441757611,2.0983510956703193,-0.7775886849432374,0.6125854271416559,-0.7018581302826759,-1.8345795758319647,2.6131935673247346,0.798327116097408,0.6875722078005655,1.5073652343045671,1.0691186402652537,2.152595612493314
252,252,252,252,12.6,-7.96,-16.3,0.227,-1.39,1.35,-0.514,-8.95,-11.1,7.59,90.0,12600000000.0,-2.847128602068791,-12.067693589203104,0.0845325038636501,-1.3067160080638305,1.4844290989176403,-0.5484963223545294,-8.275483923380525,-11.356333574750067,7.508349826987464,0.8998357688613373,0.496526708961013,0.7456953991846048,2.393700199971571,2.2891182367530107,2.5877725752528966,0.5726134859841224,0.9082391890681548,0.1820279960345805,1.188003945062342,2.955946191878078,-0.6684454071876027,1.5647356302605822,0.20091428442925888,-0.41906792547497707,2.574847727278368,0.7684755765269333,0.6748605500586178,1.5255289506163061,1.17334620278171,2.04636082941938
253,253,253,253,12.7,-1.31,-7.18,-0.8640000000000001,-1.39,0.823,-0.616,-8.16,-12.4,6.6,90.0,12700000000.0,-2.2348529434089444,-10.075370359607245,-0.3974219111839532,-1.3692274038447645,1.019460139608034,-0.5958033362492046,-8.222484008582375,-11.796539822678616,7.0206204458664025,0.8718097128615421,0.5205833351927222,0.7003393340051013,2.4719220014878642,2.1997854047175283,2.537072749010814,0.5451160407001672,0.8788388230181357,0.1924793635979452,1.3330108128944396,2.6866125896811437,-0.4848038982241808,1.2991746774489277,-0.4816958811635604,-0.4230049990007555,2.5055887292514707,0.73375436336176,0.7141537112552503,1.525835540933864,1.1080839529156266,2.0839224365897717
254,254,254,254,12.7,-2.61,-8.28,0.63,-1.08,0.848,-0.825,-9.04,-12.9,6.65,90.0,12700000000.0,-2.384283080925557,-9.343540834234435,0.1246166169603693,-1.1521387567363408,0.8989277210466998,-0.7564258401934989,-8.597672323561168,-12.261966382608126,6.821619565554652,0.8486672913252722,0.5195028401027496,0.7073955840978456,2.4694211139241613,2.0286546967903165,2.4342510470019363,0.5214278945888191,0.8552372112714262,0.20478775987727127,1.3205818694918203,2.781595454720404,-0.15340486707759346,1.2736359994744488,-0.4918777164754576,-0.4541251788992983,2.4000342735905145,0.7233367444611045,0.7713870223417636,1.5234281952013866,1.0863887489847361,2.1706963951920097
255,255,255,255,12.8,-1.66,-9.0,0.103,-0.976,0.789,-0.906,-9.91,-14.6,7.44,90.0,12800000000.0,-2.095783534588405,-9.203506614038336,0.11363309911949665,-1.0199323088418188,0.8216511226063359,-0.8612483966842789,-9.199947973845534,-13.248122040638707,7.153652768921478,0.7977820216468208,0.4792615656280441,0.8557325522792089,2.4983920876765966,1.9447668501123665,2.3622273325672323,0.4959553865378946,0.8623011542027689,0.21466759208580016,1.3336503822815224,2.912399661204436,-0.18530339117877884,1.2077893496599432,-0.651959336358934,-0.6325078836356162,2.2669743781062572,0.7329417952828047,0.8075542678232847,1.4963427629380532,1.0635734703571549,2.210677259619821
256,256,256,256,12.8,-2.44,-8.9,0.608,-0.691,0.524,-0.606,-9.92,-14.9,5.89,90.0,12800000000.0,-2.232893331378996,-9.0797909994601,0.36482353751814595,-0.7730418590594554,0.6124094352736136,-0.6823686648898166,-9.530406522004428,-13.944864868418286,6.475147015919293,0.7740997071606349,0.4471177461386885,0.9046808390960076,2.634338257047601,2.0751059615203094,2.3390890700817573,0.4832982038347785,0.8791828568471335,0.21360829543651874,0.9402037084908396,2.8792631312309784,-0.04128706239418101,1.2392330056405458,-0.672173346787976,-0.7398864457500168,2.3448536222167475,0.7296788261589514,0.8073628102931842,1.4440699100502938,1.0858880858663769,2.1246577857618854
257,257,257,257,12.9,-3.29,-10.1,1.77,-0.199,0.61,-0.315,-10.8,-17.0,6.57,90.0,12900000000.0,-2.6539645634686084,-9.495649060598105,1.0788011524778782,-0.3421767778329249,0.6107156694784335,-0.4249143140643507,-10.113070025233966,-15.233485477667033,6.526077466628784,0.7554371978112582,0.446686001239524,0.9043957430394908,2.689951556953817,2.0041670187296323,2.3782690987206743,0.4757617634496449,0.8713828921459377,0.2162553712872243,0.3626696342052986,3.11649580786308,0.13965462286979274,1.2738665366051585,-0.4226654232629652,-0.9837734268169228,2.394826021929489,0.7167796457865411,0.7624434098332722,1.4247816173782977,1.1777241659612296,1.969796464789917
258,258,258,258,12.9,-3.24,-10.2,0.488,-0.0638,0.639,-0.266,-14.7,-16.5,6.68,90.0,12900000000.0,-2.887396707597192,-9.782756728756176,0.7786119514525078,-0.13323237517681455,0.6305988819931378,-0.3135461312721161,-12.218181796706562,-15.767686632476885,6.608724535087607,0.7598217978588941,0.4682252177492863,0.8256427181497729,2.601837905589884,2.205621464416549,2.4146409773020334,0.4761871483068562,0.8354954657657104,0.2358062363025775,0.11309507519835348,3.383352313753113,0.12739646496362006,1.6474989613137128,-0.5724984328705666,-1.1760575163692144,2.4337119176508204,0.6818102880539417,0.7074154485640428,1.4871743050898463,1.1904316139940212,1.7805757872460664
