,Unnamed: 0,Unnamed: 0.1,Unnamed: 0.1.1,Time (s),Acceleration x (m/s^2),Acceleration y (m/s^2),Acceleration z (m/s^2),Gyroscope x (rad/s),Gyroscope y (rad/s),Gyroscope z (rad/s),Linear Acceleration x (m/s^2),Linear Acceleration y (m/s^2),Linear Acceleration z (m/s^2),Still,Walk,Run,Cycle,SPM/RPM,Timestamps,Acceleration x (m/s^2)_kalman,Acceleration y (m/s^2)_kalman,Acceleration z (m/s^2)_kalman,Gyroscope x (rad/s)_kalman,Gyroscope y (rad/s)_kalman,Gyroscope z (rad/s)_kalman,Linear Acceleration x (m/s^2)_kalman,Linear Acceleration y (m/s^2)_kalman,Linear Acceleration z (m/s^2)_kalman,Acceleration x (m/s^2)_kalman_max_freq,Acceleration y (m/s^2)_kalman_max_freq,Acceleration z (m/s^2)_kalman_max_freq,Gyroscope x (rad/s)_kalman_max_freq,Gyroscope y (rad/s)_kalman_max_freq,Gyroscope z (rad/s)_kalman_max_freq,Linear Acceleration x (m/s^2)_kalman_max_freq,Linear Acceleration y (m/s^2)_kalman_max_freq,Linear Acceleration z (m/s^2)_kalman_max_freq,0,1,2,3,4,5,0_max_freq,1_max_freq,2_max_freq,3_max_freq,4_max_freq,5_max_freq
0,0,0,0,0.0459,2.66,4.06,8.37,-0.289,0.5660000000000001,0.165,-0.0585,-1.43,0.7120000000000001,,,,,150,45900000.0,1.0662011341667554,2.484215656693027,5.093237461989914,-0.3080332781850651,1.1044182216925205,0.17621074185840438,-0.4461088874987201,-0.9049673451039154,-0.16915588405784662,,,,,,,,,,-0.7132619043673977,-1.5338922704217148,-1.2847217302989615,-1.6562775316458154,0.17902884677339312,0.6133177510523301,,,,,,
1,1,1,1,0.0959,0.39,4.38,5.61,-0.317,1.63,0.39,-2.08,-0.979,-2.22,,,,,150,95900000.0,0.9219049883661424,3.2750389847342016,5.203057265666611,-0.31419737113408364,1.1940916730468194,0.3102668762681974,-0.8661054380275608,-0.9356615279087299,-0.7119015817994017,,,,,,,,,,-0.7396041906604262,-1.4894080569049843,-1.3260417878714683,-1.7587104445271973,0.05332613415984133,0.6520803721867856,,,,,,
2,2,2,2,0.146,1.57,2.17,4.92,-1.2,3.84,0.134,-0.0709,-2.89,-3.32,,,,,150,146000000.0,1.132058251308642,2.6888840426771754,5.1123326586062,-0.9630836339074816,1.858968820400756,0.18845311760021632,-0.5683719331056173,-1.9679905971871223,-1.7040455075698675,,,,,,,,,,-0.3756190191682773,-1.3891435047832081,-2.1832590958152007,-2.3095130178373133,-0.3219841334343351,0.5536638388649018,,,,,,
3,3,3,3,0.196,-3.98,3.74,12.8,0.526,2.48,-0.4270000000000001,-3.77,-0.826,4.11,,,,,150,196000000.0,-0.7663574363013734,3.271365942084305,7.9334909557785585,0.1324771151286317,2.041508249103607,-0.2405593277954637,-1.9040872430786835,-1.3373530941656484,0.7487587849266975,,,,,,,,,,-1.5801531994191913,-1.2731469776339408,-2.479799883333296,-2.2881440216603437,0.2415970534557131,0.535233054231284,,,,,,
4,4,4,4,0.246,-1.94,3.73,8.1,0.11,0.966,1.81,-1.36,-1.08,-0.422,,,,,150,246000000.0,-1.22341778158311,3.527660224085292,7.997606380524457,0.1159350687328798,1.7031878314117606,1.1899446822615591,-1.6693797490089541,-1.1940105790367856,0.2389981114415015,,,,,,,,,,-1.721114873645761,-1.1371747262891516,-1.9038181365810782,-2.206928803282721,0.24885810605841616,0.4056083131804517,,,,,,
5,5,5,5,0.29600000000000004,-1.89,3.03,8.09,-0.76,2.69,1.01,-1.12,-1.71,-0.465,,,,,150,296000000.0,-1.4874528179041522,3.2491063442631094,8.033808029855848,-0.5287234319200279,2.023042255502669,1.0644032643998609,-1.4298905750825501,-1.4818915760554818,-0.07054435276061921,,,,,,,,,,-1.4798262137409897,-1.114752208134823,-2.476329496153169,-2.3392170507372194,0.02858561886980767,0.27508281657880235,,,,,,
6,6,6,6,0.34600000000000003,-1.07,2.06,10.0,-0.913,0.5529999999999999,1.44,0.248,-2.38,1.39,,,,,150,346000000.0,-1.3210879623716971,2.5833226040087442,8.809098262687856,-0.8115383615568261,1.5401798052673068,1.3264463590189008,-0.6960318090662271,-1.983128170483624,0.5736041446642227,,,,,,,,,,-1.49818687042258,-1.241465645153541,-2.171744306159374,-1.87747219715071,0.4543602249395418,0.2439777297261275,,,,,,
7,7,7,7,0.396,-2.91,3.0,8.38,-0.757,0.759,0.7290000000000001,-1.48,-1.08,-0.428,,,,,150,396000000.0,-1.9556968909177768,2.8166355213531955,8.639508734977282,-0.7713999351775821,1.2820626744382224,0.9096249241789084,-1.039273787315287,-1.479058007504215,0.13144415145657645,,,,,,,,,,-1.4159814745923411,-1.2550685270035165,-1.910151326943991,-1.5088672850459344,0.4640819301964873,0.2707034704893205,,,,,,
8,8,8,8,0.446,-1.92,1.9,9.59,0.14800000000000002,0.455,0.5329999999999999,-0.345,-2.03,0.746,,,,,150,446000000.0,-1.941428337372828,2.303371710151712,9.01548205335775,-0.09475169017140027,1.0080623762329382,0.6468643541999085,-0.7352022478619669,-1.7865635013726684,0.4028212091031838,,,,,,,,,,-1.6216543848797305,-1.268459326524611,-1.459913227523452,-1.3685020879732237,0.8381432641788954,0.3486573535869452,,,,,,
9,9,9,9,0.496,-2.3,-0.836,9.39,-0.5820000000000001,0.6509999999999999,0.271,-0.506,-4.74,0.5770000000000001,,,,,150,496000000.0,-2.084795059329441,0.5454979513431732,9.1636709386544,-0.4533505025148264,0.8896306064785687,0.38463441490786027,-0.6348079410584401,-3.435013146521011,0.4797426035533962,,,,,,,,,,-1.392471183618818,-1.1809072614965168,-1.5618592109377598,-1.1360799600818514,1.0255553053289348,0.340497836633975,,,,,,
10,10,10,10,0.546,1.92,-3.32,7.2,-2.27,0.665,0.197,4.06,-6.73,-1.74,,,,,150,546000000.0,-0.4834047997109389,-1.6189670643961909,8.386600844406088,-1.7903450273464618,0.8150851350384134,0.253727184054402,1.4216615501435197,-5.2740988828222255,-0.5005752809048758,,,,,,,,,,-0.4205066810113457,-1.370114147117385,-1.851622188997765,-1.039102694621463,1.0070420507579303,0.2576174025926987,,,,,,
11,11,11,11,0.596,-0.929,-3.89,6.8,-3.09,-0.309,0.455,1.06,-6.05,-2.55,,,,,150,596000000.0,-0.6615907343411389,-2.890620065465672,7.7587204800404175,-2.7468484632081003,0.44196094376721656,0.3941495488797351,1.2632410576235948,-5.70716560371472,-1.4056827700647476,,,,,,,,,,0.1392345150824945,-1.3349075486678357,-1.7192576528013537,-0.507710086947995,0.896787374771065,0.21039238979789707,,,,,,
12,12,12,12,0.6459999999999999,1.71,-7.03,9.28,-2.63,2.09,-1.33,3.99,-7.68,-0.24,,,,,150,646000000.0,0.2867805845561534,-5.208444234591664,8.36075961922849,-2.660851905041946,0.989061458034769,-0.8087408965211822,2.457661207664108,-6.808296450194348,-0.8908694312143539,,,,,,,,,,0.27947188704591996,-1.4263200716139572,-2.495570851966563,-0.9584937298841828,1.1241332080800883,0.1974061233034412,,,,,,
13,13,13,13,0.696,-5.76,-5.44,8.26,-1.86,2.76,-3.51,-2.36,-4.72,-0.907,,,,,150,696000000.0,-2.131267659816029,-5.338102701607117,8.3208843441515,-2.0714511395981123,1.57698846280593,-2.693333028270845,0.34734725910609177,-5.642720626162284,-0.8979933607111313,,,,,,,,,,0.07399651849892484,-1.1639236459360462,-3.184282323727704,-0.9898366274820444,0.8031333227832158,0.18374380538066595,,,,,,
14,14,14,14,0.746,-14.2,-3.2,6.55,-1.75,2.71,-3.21,-9.81,-0.999,-1.93,,,,,150,746000000.0,-6.957443391502642,-4.140883346662552,7.620059997808808,-1.8348736276719029,1.953140410875251,-3.0537969999538537,-4.101948578231516,-3.0508434337092454,-1.3537703310328593,,,,,,,,,,-0.3612517838401114,-0.4887466132607613,-3.5436933633339547,-0.6858492015225727,-0.06227905399329444,-0.012291213922354077,,,,,,
15,15,15,15,0.7959999999999999,-13.3,-3.16,5.48,-2.43,0.6829999999999999,-0.8,-8.47,0.383,-2.27,,,,,150,796000000.0,-9.4937754847814,-3.5916429148267905,6.773134337939429,-2.272867197756393,1.5314587344203336,-1.48138653413307,-6.015317778170368,-1.134255166363315,-1.7584154317800835,,,,,,,,,,-0.5056606721545719,-0.1046244994272088,-3.013463477873405,-0.1348404611215131,-0.5355893916287517,-0.2772681201244492,,,,,,
16,16,16,16,0.846,-11.6,-5.61,7.77,-2.91,2.09,-0.737,-6.45,-0.952,0.833,,,,,150,846000000.0,-10.336036289497192,-4.721811442197159,7.1676425880928925,-2.7417761386779453,1.7168930070555786,-0.9620490777886608,-6.2057246910046775,-1.0325300645609978,-0.6139386207463606,,,,,,,,,,-0.6572868236021685,0.041068452432440485,-3.46359755041519,-0.14308805636586555,-0.5821490194048571,-0.5169871205975302,,,,,,
17,17,17,17,0.8959999999999999,-12.0,-5.58,6.82,-1.74,2.0,0.652,-6.31,-0.00403,1.14,,,,,150,896000000.0,-11.001440790555458,-5.202349576565731,7.030063551547344,-2.004501713595501,1.810883993555964,0.16402735743801464,-6.2514011339203845,-0.4584761792542485,0.1606736053080332,,,,,,,,,,-1.172358665546699,0.3032408226165703,-3.177070572167098,-0.5005715184041714,-0.5917004130190116,-0.6913387113985702,,,,,,
18,18,18,18,0.946,-12.6,-1.86,8.04,-1.92,2.1,1.06,-6.13,3.93,3.51,,,,,150,946000000.0,-11.64069077604885,-3.3308184879244696,7.429744593532042,-1.9423111880502384,1.906870008796637,0.7891221098758242,-6.198222966907611,1.990937220210504,1.6398754223590393,,,,,,,,,,-1.677214635698396,0.18437706919618094,-3.2918133704761146,-0.5492301369594321,-0.698159261575778,-0.8911711490466758,,,,,,
19,19,19,19,0.996,-5.03,-0.905,5.59,-0.474,1.09,2.38,-5.3,3.58,4.44,,,,,150,996000000.0,-8.997133465673414,-1.9724941461621928,6.7016680758672225,-0.8616822426966648,1.6356703971389608,1.8990327351471432,-5.8047679443730456,2.877867275276887,2.876526908319609,,,,,,,,,,-2.1177888102362523,-0.044603994165740166,-2.427727521528543,-0.940114353641527,-0.4843005121124338,-0.6117259912206289,,,,,,
20,20,20,20,1.05,-3.19,-0.828,4.69,-0.0565,0.211,0.883,4.74,4.0,1.54,,,,,150,1050000000.0,-6.674911622424212,-1.3316406631691415,5.905553017681338,-0.2690944792960914,1.1626818740665223,1.190175420423507,-1.185767034439464,3.5041819179534683,2.286261027219576,,,,,,,,,,-1.6991811691005412,-0.6956011110979613,-1.5692306315160076,-0.9545658416123296,-0.01810189452937629,-0.6336438849073408,,,,,,
21,21,21,21,1.1,-10.1,-3.74,11.5,1.04,-0.852,0.7070000000000001,-2.1,0.795,8.05,,,,,150,1100000000.0,-8.04457465281039,-2.680188834264418,8.119548294865691,0.6943561594252061,0.4938103428067661,0.8530775961992577,-1.5862350744837803,1.9920610635734048,4.831767936034206,,,,,,,,,,-2.531190013848758,-0.6027637230742011,-1.00550883913618,-0.2365047796150232,1.0457066772551895,-0.5693822970713618,,,,,,
22,22,22,22,1.15,-12.0,-2.46,0.541,1.19,0.18,-0.22,-3.92,1.55,-3.35,,,,,150,1150000000.0,-9.626314645921141,-2.5568952739625868,5.1203474484969576,1.0591338369547028,0.3896257519250595,0.10442168353885173,-2.6085110467223847,1.7453261267533988,1.2183590057561688,,,,,,,,,,-1.7767509800138153,-0.2104788270142205,-0.3490467750630294,-0.1071548096632714,0.31853803319573176,-0.5084206662419762,,,,,,
23,23,23,23,1.2,-17.1,-5.78,3.0,-0.131,-0.462,1.35,-9.03,-1.96,-1.11,,,,,150,1200000000.0,-12.614976190078735,-4.361655960127871,4.281222642087242,0.1832343092401688,0.1068871896280708,0.9734264912884296,-5.421362205656332,-0.3227893303930989,0.1900588339731488,,,,,,,,,,-1.5003358127086055,0.5109215891174103,-0.2481973341028822,0.5252847246332389,-0.07258416918907752,-0.6458493530874515,,,,,,
24,24,24,24,1.25,-8.45,-5.55,4.22,-0.982,-0.701,1.87,-0.204,-2.42,-0.0738,,,,,150,1250000000.0,-10.949438571438847,-5.027063072747385,4.256993776301363,-0.6743399785860241,-0.1613302205790806,1.5989404943060688,-3.1359632811105285,-1.4933405227758882,0.07352780097383835,,,,,,,,,,-1.038314531469885,0.2392611363081649,-0.16001386490225747,0.5956647378050667,0.13703494172750674,-0.7276711804572332,,,,,,
25,25,25,25,1.3,3.74,-8.2,2.5,-0.458,0.364,0.78,12.2,-5.54,-1.66,,,,,150,1300000000.0,-5.075260588923559,-6.803732339103174,3.5616657235256546,-0.5151208421637401,0.01307867688627512,1.0275888348816655,3.581759611509544,-3.7519700099827813,-0.692070152716056,,,,,,,,,,-0.14014008618272544,-0.57298345603981,-0.0609465480641745,-0.4221065975350039,0.7298491502634801,-0.6323820249211192,,,,,,
26,26,26,26,1.35,6.55,-2.83,3.33,-0.338,0.0128,-1.36,15.0,-0.0306,-0.715,,,,,150,1350000000.0,-0.4264205031037481,-4.5786617368742535,3.4699842778325496,-0.3847657022984107,0.012986156441565715,-0.6381644314828256,8.583374078054739,-1.6748997342392524,-0.7021969152684439,,,,,,,,,,0.3889722842316976,-1.7645511352462429,-0.04471436767207061,-0.7732260596008543,1.12617081302336,-0.4498725364676009,,,,,,
27,27,27,27,1.4,-5.85,-8.83,3.82,-0.463,-1.35,-6.04,1.99,-4.71,-0.402,,,,,150,1400000000.0,-2.595262459289871,-6.959176233270532,3.608502528382917,-0.4423435830546191,-0.4395233536577304,-4.406872424126832,5.695230721247492,-3.368930859477687,-0.5696174777402792,,,,,,,,,,0.8428449364600656,-1.6721142938324183,-0.27314126050818793,0.6467870280542432,1.5131560788324692,-0.07174774856176272,,,,,,
28,28,28,28,1.45,-22.6,-7.82,2.59,-1.97,1.13,-4.03,-16.4,-1.41,-1.51,,,,,150,1450000000.0,-10.594982149195623,-7.4411900778834115,3.205431413930347,-1.5666486995940343,0.08155620837513844,-4.143939330676989,-3.9833029187073175,-2.2755601064857407,-0.9849295026670168,,,,,,,,,,0.4075356739923657,-0.21926484409659824,-1.4198493956087752,1.5374412328951397,0.10324389701357052,-0.2856667194828941,,,,,,
29,29,29,29,1.5,-9.64,-10.3,1.93,-0.0828,1.69,-2.12,-4.29,-2.73,-1.27,,,,,150,1500000000.0,-10.213093279385657,-9.041965790614645,2.7006810329410382,-0.47458465014176504,0.6155573221531213,-2.7318939767303108,-4.1176476439585645,-2.5292042300368154,-1.1108284809774132,,,,,,,,,,-0.04068540196191503,0.21205604760819013,-1.3023417543942546,0.4793865730372624,-0.07631966546796595,-0.3725042926551067,,,,,,
30,30,30,30,1.55,3.32,-12.4,1.1,0.636,-0.211,-0.96,8.11,-4.48,-2.17,,,,,150,1550000000.0,-4.801327693673189,-10.922279201460805,2.067213559006956,0.3427692666632667,0.3411414458689122,-1.495693608254569,1.2385171896639935,-3.618034401928449,-1.5786027048111348,,,,,,,,,,0.2733900161077792,-0.32830629088275826,-0.29743124635546114,-0.4483901092865259,0.5813357177851203,-0.2748098324096747,,,,,,
31,31,31,31,1.6,0.462,-7.96,0.304,-1.51,-0.921,-1.97,4.69,0.3,-2.87,,,,,150,1600000000.0,-2.6965689885854776,-9.26356653717936,1.3694240312537835,-1.0208082324626333,-0.07788775456629454,-1.8266037937474329,2.750395207121648,-1.4311965441249943,-2.1489374046431293,,,,,,,,,,1.030515333296376,-1.0175167115029755,-0.26042855873253123,0.08300695200966872,0.4258399065103452,-0.2219694477185463,,,,,,
32,32,32,32,1.65,0.306,-7.38,1.56,-0.8959999999999999,-1.99,-6.28,2.76,1.72,-1.13,,,,,150,1650000000.0,-1.4958679193704878,-8.20887340828584,1.4448442059048583,-0.9289534809196336,-0.7127063555651687,-4.933612619406872,2.754602459874695,0.3276333268631686,-1.6989322705079304,,,,,,,,,,1.4206226604768302,-1.7452110960946683,-0.023341812388677063,1.1584708340464418,0.8917537937055906,0.22096335895528907,,,,,,
33,33,33,33,1.7,-0.0311,-6.58,3.35,-2.7,-5.51,-6.04,-1.04,2.97,1.39,,,,,150,1700000000.0,-0.9101200422059762,-7.296794252868812,2.198807151091221,-2.232385756177191,-2.3054012286495684,-5.705507801515689,1.0924253010863298,1.8024615001824915,-0.3347313279888784,,,,,,,,,,1.7191902987602494,-2.341050020642021,0.7887501212537547,3.243021835371071,1.4988362314961523,0.6006198225233681,,,,,,
34,34,34,34,1.75,-1.04,-6.98,-0.563,-1.21,2.57,-4.56,-4.91,2.01,-1.17,,,,,150,1750000000.0,-0.9620578858591308,-7.119406984958582,1.1058254736984223,-1.4799433485911495,-0.6867748447246866,-4.9063193407445445,-1.5368604238271886,1.91829841725833,-0.7036206905771654,,,,,,,,,,1.28985756458468,-1.7148545607434467,-0.377848606746077,1.482944910789369,0.474253784408437,0.6160375065424142,,,,,,
35,35,35,35,1.8,15.2,-23.3,-5.71,2.3,-3.14,2.79,10.8,-14.6,-7.12,,,,,150,1800000000.0,5.501007597733421,-16.179644661583094,-1.5915288056495287,1.3019711360451207,-1.5012422085343653,0.4631851372364837,3.8671439080269554,-7.301335037690826,-3.5373605784548623,,,,,,,,,,1.5049674208798771,-0.8778487880160087,2.776329074371912,-0.4963465051354393,1.574275410718223,0.8403604000206859,,,,,,
36,36,36,36,1.85,0.285,-9.97,5.06,-1.36,-0.847,0.517,-3.55,-0.972,4.33,,,,,150,1850000000.0,3.4151717885745985,-12.702586886106904,1.0408052384952402,-0.6571524569107368,-1.2840347090041238,0.5007302598080822,0.6181587080184263,-3.768637769907292,-0.0628070039525177,,,,,,,,,,0.8679758124668627,-1.1519119114291363,1.2548390696141505,0.34308896076635986,1.313624402192752,0.6727379613244016,,,,,,
37,37,37,37,1.9,0.654,-8.0,-0.175,0.469,3.6,0.199,-2.97,1.07,-1.01,,,,,150,1900000000.0,2.311003339275594,-10.069398049797696,0.5596518625511817,0.17165888095677972,0.3374579688575077,0.2902215851596296,-0.9535884294367608,-1.0679681860127346,-0.4811268173283616,,,,,,,,,,0.3230276234023639,-0.8685955629093264,-0.021809656409383676,-1.1689357492500918,0.2700109677946391,0.5292838003889409,,,,,,
38,38,38,38,1.95,2.64,-12.1,-1.24,0.243,-2.12,-0.654,-0.919,-3.02,-2.53,,,,,150,1950000000.0,2.4425662677255486,-11.206423163897991,-0.15255807740055427,0.224163608834214,-0.4784146103344119,-0.3685351199470949,-0.9384374223382296,-2.1574882304677567,-1.3859944078233717,,,,,,,,,,0.7616119451387932,-0.9141030930557521,0.8524877403563865,-0.368861298131153,0.594987767745643,0.7301630092329298,,,,,,
39,39,39,39,2.0,0.919,-11.1,2.89,1.33,-0.908,-0.638,-3.1,-2.2,1.8,,,,,150,2000000000.0,1.833305457525616,-11.146832285641818,1.0515304543469042,1.0380230106062711,-0.6210363578427675,-0.5565331596156751,-1.8852822788087644,-2.1812160596474253,0.02107319627675764,,,,,,,,,,0.1217130310340636,-0.8498851624628534,1.044392421204342,-0.2218397872661455,1.0193919100937476,0.8393796161937073,,,,,,
40,40,40,40,2.05,1.93,-11.3,5.33,2.15,1.35,-0.159,-2.24,-2.62,3.42,,,,,150,2050000000.0,1.871972738184144,-11.232597849902508,2.7447293063684035,1.8564017301860227,0.03334497102360323,-0.2791855046052677,-2.040661853347916,-2.4261217905679238,1.5221806562936275,,,,,,,,,,-0.6697048486322427,-0.7310858010816882,0.46695164893280894,-1.0040479324803908,1.2370596269141465,0.8062898925006906,,,,,,
41,41,41,41,2.1,2.75,-17.1,4.76,3.88,0.573,-0.0635,-1.32,-8.86,1.42,,,,,150,2100000000.0,2.223088159038463,-14.51801909111335,3.5422702113460787,3.3457038726001174,0.21250969234555966,-0.12870782476925907,-1.7249851495642998,-6.017169291416257,1.4770534101754198,,,,,,,,,,-1.075801279280138,-0.29434953026330624,0.7794562724843044,-1.6584450951456817,1.8262992892182133,0.9393134511923534,,,,,,
42,42,42,42,2.15,11.0,-8.13,-8.23,2.84,0.13,-0.0482,7.04,-0.6809999999999999,-13.2,,,,,150,2150000000.0,5.732898422181267,-10.941081404921961,-1.1165905740830573,2.9735223198877185,0.18511658801552727,-0.07253979064818429,2.1144047074327808,-3.038804172064068,-5.004943660222113,,,,,,,,,,0.6444796247037355,-0.8846831712137897,1.7701949570745583,-2.3434767602220603,0.6102484393459556,1.011718942163008,,,,,,
43,43,43,43,2.2,5.31,-1.21,4.4,3.58,-0.0935,0.5660000000000001,1.46,5.56,-1.56,,,,,150,2200000000.0,5.563785019863095,-5.492213485881468,1.06659316848673,3.4198699754900383,0.09261626843227656,0.37295136538599455,1.827751094484296,1.7605897035250564,-3.483513251114536,,,,,,,,,,-0.3761974319277692,-1.4113541628527466,1.8661341202100938,-2.2466743303704,0.7187048918828234,1.0173436876484674,,,,,,
44,44,44,44,2.25,0.35700000000000004,-5.66,0.448,-2.22,1.11,1.52,-3.36,0.746,-5.98,,,,,150,2250000000.0,3.4816372376743483,-5.5861645780713225,0.8217857141301762,-0.7308896541863161,0.4303862526789936,1.17321476863747,-0.4446770131317033,1.1942998353987253,-4.586065628233528,,,,,,,,,,0.8058536513893322,-1.2146558524466964,0.05603051994661031,-1.4816667041191245,-0.4111561615766148,0.6088022124352638,,,,,,
45,45,45,45,2.3,3.65,-10.5,-0.29,-4.37,0.8640000000000001,2.18,1.16,-2.78,-5.83,,,,,150,2300000000.0,3.5489640715962087,-8.337640922869939,0.3817979348059193,-3.4091556116184285,0.5743454192823516,1.8756204191923809,0.2582312567061356,-1.023942364063526,-5.135438744108028,,,,,,,,,,1.8658665779395047,-1.130870522582738,-0.9786208287549116,-1.1989445170835478,-0.7930426729548421,0.2725471792715429,,,,,,
46,46,46,46,2.35,5.05,-3.16,1.61,-3.3,-0.255,0.804,3.26,5.73,-2.12,,,,,150,2350000000.0,4.149215284296521,-5.4384481209699524,0.8678573459929639,-3.3288206209798763,0.2990038987087695,1.1279811508902693,1.5731177377368415,2.7457480808849497,-3.803695542333212,,,,,,,,,,1.6391328457488064,-1.7885960118762128,-0.8382292099219595,-0.8090171831687054,-0.6205474046446589,0.24278718255742435,,,,,,
47,47,47,47,2.4,4.0,0.594,-3.36,-2.35,1.57,-0.504,2.42,9.93,-5.91,,,,,150,2400000000.0,4.0895453974694105,-2.0606104786781603,-0.8053117810487607,-2.6084406279744443,0.7209728485460877,-0.010605983644912827,1.9440837370390731,6.755614530386697,-4.73392711748366,,,,,,,,,,1.690202006048601,-2.0790405678409534,-0.8612713678237625,-1.187222133641847,-1.2673977597679489,0.2314482066853381,,,,,,
48,48,48,48,2.45,-0.0958,-1.07,-7.34,-4.77,2.34,-0.649,-1.85,8.51,-8.53,,,,,150,2450000000.0,2.41586238822176,-1.5059233716357956,-3.3914063946128943,-4.199277525431288,1.2584875755790044,-0.4559954400684893,0.2821337710147662,7.7348190644501935,-6.410430650223755,,,,,,,,,,2.604833788124505,-1.8385147987943389,-1.7730941962230695,-1.0957097242351252,-2.4989156185726817,0.01483212325209244,,,,,,
49,49,49,49,2.5,6.49,-29.3,-19.5,-5.06,-0.532,-0.421,4.42,-19.8,-18.3,,,,,150,2500000000.0,4.0450742863302205,-17.069070221848797,-9.766361830349053,-4.832741037833029,0.6640481967091486,-0.43158011317187583,2.094673292776704,-7.633648056879673,-11.661358584864313,,,,,,,,,,5.4789867272135755,-0.3244935800396196,-0.6366216600188059,-1.1646269187915836,-2.32369594058756,0.18186086282533806,,,,,,
50,50,50,50,2.55,-10.5,-45.0,9.18,2.64,-5.97,-1.41,-12.6,-35.7,11.2,,,,,150,2550000000.0,-1.7713736777572926,-32.708847701952145,-2.2683631073011723,0.6669517273805168,-1.5384464795794202,-1.1141959945932212,-4.342140956147981,-23.298789335660558,-1.5648319919258196,,,,,,,,,,2.037477953574498,1.739444518970536,1.7292939532338032,0.8281647108898255,2.2377374052645256,0.9204460090685378,,,,,,
51,51,51,51,2.6,2.84,-5.49,7.49,1.17,3.34,1.37,0.499,3.86,9.3,,,,,150,2600000000.0,0.07267428050003644,-17.467796713523764,1.5934965931546792,1.0371787507193646,0.08119091707594084,0.6189573503118735,-2.221540944112964,-8.140201587685246,3.2335297313310374,,,,,,,,,,-0.318635116256122,0.09094009923899272,0.058599197428917435,-0.8650461080232529,1.380186136534208,0.4401147964301129,,,,,,
52,52,52,52,2.65,-2.43,-3.52,5.7,3.92,-2.31,0.8079999999999999,-4.3,6.09,6.21,,,,,150,2650000000.0,-0.9281232971073254,-9.657801164926859,3.2186400191243147,3.158840840282716,-0.7126811123728471,0.7508470842460642,-3.131983488877483,-0.19766188466205128,4.548062800091113,,,,,,,,,,-1.886925004938004,-0.5440224301681827,1.5590773628669536,-0.30948408119699833,1.6604157093585112,0.6117822902785702,,,,,,
53,53,53,53,2.7,3.52,-6.19,0.371,4.44,-1.67,0.362,2.03,3.37,-1.21,,,,,150,2700000000.0,0.8506422887684053,-7.716024142086412,2.0916900993906498,4.101732068801609,-1.0305096332324764,0.4795594544756204,-0.8708425185955601,1.7936166491302232,2.0050627924883035,,,,,,,,,,-1.5844020622124615,-0.942110868500136,2.6141357857019685,-0.5465743488439883,1.6200350627827371,0.7581497167962974,,,,,,
54,54,54,54,2.75,3.62,-7.34,0.764,4.53,0.996,-1.67,1.73,1.62,-2.74,,,,,150,2750000000.0,1.9580841648695064,-7.505471483451399,1.5662584302738378,4.416923395742646,-0.357711264935892,-1.0201274000138525,0.26842335942238593,1.6967130973662974,-0.09055427189889233,,,,,,,,,,-1.1103858369468027,-1.0937978904410413,2.1016029340131173,-1.2522491525060406,1.333000349453355,0.8696925676331271,,,,,,
55,55,55,55,2.8,-2.74,-33.8,-0.6659999999999999,1.33,2.5,2.23,-4.14,-25.7,-6.02,,,,,150,2800000000.0,0.07936140323887497,-22.228954241713872,0.6828449916233212,2.145048898013896,0.5910448881427595,1.247394651066894,-1.6626301681933064,-13.594671490106714,-2.7092440824726856,,,,,,,,,,0.33799545090329913,1.0245666897603296,0.5625584880741572,-2.1269333598827127,1.1638056942182364,0.5208929789421819,,,,,,
56,56,56,56,2.85,0.91,-8.18,1.85,1.64,-3.39,0.17600000000000002,0.316,-0.266,-3.91,,,,,150,2850000000.0,0.41152652199023104,-14.362316247888314,1.1447451114761225,1.7733494377884589,-0.7306564954716441,0.499912880167949,-0.7959164707048134,-6.155317894838303,-3.2395478689111936,,,,,,,,,,0.2968350750467025,-0.15263618315674982,1.8035903532297248,-0.6214196228423411,1.2022069943054976,0.6703372487997857,,,,,,
57,57,57,57,2.9,2.1,4.8,-4.1,-1.39,-2.13,-0.983,0.279,12.6,-9.79,,,,,150,2900000000.0,1.086732256629613,-3.632477768331962,-0.9308560594610312,-0.5547721451573735,-1.1952366247025201,-0.5346735152866396,-0.3250630241456398,4.312900530401945,-6.132499924163523,,,,,,,,,,1.3360682975635916,-1.543355527603448,1.8248571316482929,0.4948077320340332,-0.2696306777029337,0.6403077640262499,,,,,,
58,58,58,58,2.95,4.11,-1.08,-4.63,-2.74,4.65,0.866,2.38,7.11,-9.75,,,,,150,2950000000.0,2.2957106324859806,-2.203231267570517,-2.3947876154088306,-2.163028291933005,0.7453738114928423,0.44253681070126616,0.8598553578944297,5.874092357230165,-7.730138397169527,,,,,,,,,,1.9634867781437981,-1.5248957801443292,-0.31581642330862936,-1.3589462653890312,-1.8073188180242177,0.1896048235487349,,,,,,
59,59,59,59,3.0,-4.13,-9.16,21.4,-0.325,3.52,1.6,-4.37,-0.302,17.2,,,,,150,3000000000.0,-0.2738748818969801,-6.098637307880964,7.021969175106782,-0.8102996516819243,1.666545828779305,1.2500661843798115,-1.4310159807371423,2.4269269872425494,3.2800478155768493,,,,,,,,,,-1.390689102769056,-1.0881476612569672,-2.4486089361624233,-1.8184483672596907,0.3911100530668405,-0.06556608838928236,,,,,,
60,60,60,60,3.05,3.05,-4.02,2.09,-0.28600000000000003,-3.2,-0.7809999999999999,3.96,4.6,-2.49,,,,,150,3050000000.0,1.0553135864294536,-4.934715250376286,5.070148611554774,-0.42443228753099066,0.05085938726002559,-0.1669513067885764,0.9304497786114759,3.6398203979584105,0.7317547393550003,,,,,,,,,,-0.4700083509576563,-1.7190473466718053,-0.4004373737335034,-0.4717539287756822,0.8280692854625582,0.24197596684409034,,,,,,
61,61,61,61,3.1,1.13,-25.9,-2.69,-2.76,2.91,-3.11,0.95,-16.7,-6.16,,,,,150,3100000000.0,1.0851800279388442,-16.67411615573066,1.99907964364778,-2.1433336321824155,1.0000901103111746,-2.220233135739978,0.9390134983415048,-7.712783034613992,-2.311930690779724,,,,,,,,,,1.7740222739153884,-0.6137491944289971,-1.9930725106962164,-0.9510980409259884,0.5122174346104429,0.22907696981419626,,,,,,
62,62,62,62,3.15,-2.43,-14.2,4.01,-2.21,-0.464,-0.621,-3.2,-4.74,1.38,,,,,150,3150000000.0,-0.3205097404806436,-15.28874769768256,2.794898908179006,-2.192397923794123,0.5140142407172502,-1.1044933659100429,-0.8740285575865375,-6.053533957914307,-0.6814205650047271,,,,,,,,,,1.131368059907922,-0.5330732007125122,-1.5953709916265657,-0.35492182558166707,0.6121044010625598,0.17772971692493275,,,,,,
63,63,63,63,3.2,-13.5,-35.5,18.1,-4.51,-1.23,-1.02,-14.8,-25.8,17.1,,,,,150,3200000000.0,-5.590872598629622,-26.605932306758426,8.851873354354034,-3.898077323959233,-0.06499606040583761,-1.0455447190060991,-6.974122688664067,-17.074957781451587,7.171594393739562,,,,,,,,,,0.02457740979203552,0.8002345471622511,-3.1879094388538145,1.5953739222173595,2.57457263994576,0.09743287207166393,,,,,,
64,64,64,64,3.25,0.445,-6.55,9.67,0.0754,1.11,-1.33,-1.25,3.11,9.93,,,,,150,3250000000.0,-3.1771799522343382,-15.375718420501272,9.175645964236477,-0.9737281344772736,0.3251009971253707,-1.2440011597362453,-4.466743804193845,-5.8087908868462375,8.389821156943897,,,,,,,,,,-1.5434797710333368,-0.4685990250734285,-2.3416640308450227,0.4641547545746885,2.293871191202269,0.21492160983879294,,,,,,
65,65,65,65,3.3,-6.18,0.366,5.07,1.32,1.16,1.09,-8.06,9.99,4.88,,,,,150,3300000000.0,-4.3779813514614965,-6.561225843477692,7.550841862540665,0.7143806965481634,0.6022862902050591,0.3843655133841684,-6.0407240023885365,3.0092514958913146,6.8397382230624935,,,,,,,,,,-2.5577339305417723,-0.6216683824240872,-1.3776806965628552,-0.2606042604994326,1.0622330607468489,0.13803490309520966,,,,,,
66,66,66,66,3.35,-0.407,0.493,-2.11,1.63,-1.86,1.89,-1.46,10.2,-3.21,,,,,150,3350000000.0,-2.7900206499932136,-2.611249119685483,3.7275760216273235,1.388246515860465,-0.21518932768166546,1.4348041351999767,-4.0341963354900106,7.0227437158773975,2.4013558725006563,,,,,,,,,,-1.82116860374264,-0.9689421965303484,0.6711746337561411,-0.2455538366075274,0.3353350002399527,0.21990472268876446,,,,,,
67,67,67,67,3.4,3.0,2.75,2.22,2.34,-2.43,1.23,2.61,12.4,0.344,,,,,150,3400000000.0,-0.4746420442387969,0.3907541760612676,3.1309547394158463,2.0887058491847386,-0.9505034031047928,1.2919180911816392,-1.123790979252675,10.024041187245258,1.4927419659349666,,,,,,,,,,-1.6964046818323848,-1.7076817393903492,1.9284298623211893,-0.031597492984033915,0.6127002876248488,0.3627128467938464,,,,,,
68,68,68,68,3.45,0.136,-10.3,11.1,4.41,-0.912,-0.109,-0.22,-1.0,7.95,,,,,150,3450000000.0,-0.2304516298023272,-5.5954776006526865,6.284694418865664,3.7971022146058035,-0.9377203271495818,0.3145371310045396,-0.7278968757196256,3.8710093177351776,4.344535564927114,,,,,,,,,,-2.538867695451374,-1.3186999266034718,1.8579082227280936,-0.25870730529894026,2.20688559044671,0.5900565596648788,,,,,,
69,69,69,69,3.5,-4.61,-52.7,9.66,-0.273,4.2,1.56,0.157,-1.7,6.37,,,,,150,3500000000.0,-1.9817947633316693,-31.971408026743326,7.620467250193781,0.8016402701501968,0.767995590350188,1.1834613377649863,-0.34027909131070755,0.7615689964833221,5.239064841085968,,,,,,,,,,-1.3454572711479058,0.30171579455094377,-1.3946118748083416,-1.0821655660603668,2.2658833429731846,-0.8494757142089101,,,,,,
70,70,70,70,3.55,0.476,-8.72,-1.51,0.428,-0.957,1.82,1.84,-0.384,-6.49,,,,,150,3550000000.0,-0.9989441343354836,-18.951904331397525,4.0070964499538455,0.5266532694980104,0.1952994552487033,1.627556410297529,0.6147643514728474,0.12217347492287599,0.05902213645724519,,,,,,,,,,-0.4042337392191042,-0.2388838181604007,0.0293607462031203,-1.017902031477878,1.1312599160587438,-0.34294699877912443,,,,,,
71,71,71,71,3.6,1.8,-1.38,-4.02,-1.17,-3.88,-0.229,2.95,6.97,-9.04,,,,,150,3600000000.0,0.12032912023294995,-9.112608758277196,0.8303832446430004,-0.7220279436043362,-1.1576943163136404,0.3322894679717185,1.6376845426378626,3.944264923879756,-3.9594844195186902,,,,,,,,,,0.9574017852842468,-1.3252679365472435,1.488013328723249,0.47203810890401504,0.3685257527208504,0.07464519879135406,,,,,,
72,72,72,72,3.65,0.35700000000000004,2.21,-0.8190000000000001,-3.16,2.91,-2.18,0.6609999999999999,11.0,-5.07,,,,,150,3650000000.0,0.21497173194134275,-2.7725734111955163,0.17764192065737094,-2.516295602055993,0.19277455023386736,-1.42046394263053,1.2098603504046497,7.8823999551982045,-4.449934358235584,,,,,,,,,,1.5037963655457967,-1.9374374683392093,-0.6493721734320923,-0.0314607936584894,-0.9663138025773512,-0.017919935595262775,,,,,,
73,73,73,73,3.7,-2.6,-2.39,11.7,-0.118,0.153,-0.465,-2.64,6.89,8.57,,,,,150,3700000000.0,-0.9107107996289672,-2.5583534970090414,4.737600403309296,-0.7512285783766777,0.1795694540970548,-0.7538637539442767,-0.4765218847132269,7.328495151194186,1.3002099743417972,,,,,,,,,,-0.6381984771572751,-1.8086790756198639,-0.763691594272506,-0.08436765833255394,0.32578110726188914,0.07018455622376732,,,,,,
74,74,74,74,3.75,0.996,-6.5,-0.345,-0.121,2.96,0.957,1.12,2.58,-4.05,,,,,150,3750000000.0,-0.14823383435976956,-4.765457761050716,2.7261677571771066,-0.287400982809073,1.1026685289381954,0.4397575498252229,0.2228141519179037,4.678138356377816,-1.0626653315883066,,,,,,,,,,-0.2621165588767506,-1.2185733956360387,-1.0028028419558188,-1.5578021260233808,-0.3219570629110633,-0.04590707087228985,,,,,,
75,75,75,75,3.8,13.1,3.34,45.5,-2.84,1.19,-0.949,14.1,12.7,42.7,,,,,150,3800000000.0,5.149619130532717,-0.2268492928857846,19.65385747631305,-2.166030204287972,1.131662474489031,-0.5291393468017758,6.3015384596178725,9.15551360689102,18.26474795609936,,,,,,,,,,-4.0599736654582115,-4.13024213864079,-4.667476401006447,-0.5802961969772349,3.8565320224653,-0.2895930884432372,,,,,,
76,76,76,76,3.85,7.62,-22.0,-9.89,-2.11,-0.498,-2.39,7.4,-12.5,-12.3,,,,,150,3850000000.0,6.137502783117308,-12.418610713101618,7.961913311993348,-2.1247937315919763,0.5906168078960778,-1.8274093094523187,6.782705559046671,-2.9314391820713066,4.766084090603774,,,,,,,,,,0.2653725389776023,-2.4223641374045237,-2.356641676808532,-0.8914695020320829,2.328625833203373,0.16131337719818087,,,,,,
77,77,77,77,3.9,4.12,-20.6,-4.95,-1.51,0.994,-1.11,3.14,-11.0,-6.82,,,,,150,3900000000.0,5.330721023874473,-16.999736902154794,2.852040112970413,-1.6723256712644254,0.72453947075984,-1.3268931183506842,5.1870649281864205,-7.434879527634945,-0.35081254542575024,,,,,,,,,,1.5528281621808608,-1.30995053268796,-1.507909750645693,-1.4302188950161896,1.3361067640182562,0.2649792214341779,,,,,,
78,78,78,78,3.95,-7.7,-30.3,6.99,-3.85,-0.527,-2.16,-9.57,-20.6,6.75,,,,,150,3950000000.0,0.11984975787213335,-24.447148964593293,4.489632385876477,-3.2750225929806014,0.3090301092039305,-1.9081283058007783,-1.2770788795234456,-14.782947881490507,2.7852015732616366,,,,,,,,,,1.4739541023643619,-0.05764293325498161,-2.4991355682850607,0.26071133582820977,1.8672886753643425,0.2795472980460281,,,,,,
79,79,79,79,4.0,3.17,-12.2,21.0,-2.8,0.7759999999999999,-0.873,0.65,-2.82,22.2,,,,,150,4000000000.0,1.3395781869265555,-17.589422097770505,11.023589374676533,-2.925421485398645,0.4640634690631466,-1.185948557730061,-0.4329465828810137,-8.105868330660925,11.359584290846747,,,,,,,,,,-1.0361636198449156,-1.2831967247579654,-3.540006305525465,0.3216796539409808,3.051879474277935,0.1586429289433787,,,,,,
80,80,80,80,4.05,-4.13,-5.88,5.06,1.01,2.44,0.0276,-7.06,3.3,6.89,,,,,150,4050000000.0,-0.8476583269017115,-11.032792737613661,8.66350644026962,-0.029080155564243707,1.12007165964203,-0.33929002433638145,-3.3358427234151846,-1.7397209394672537,9.385629934244113,,,,,,,,,,-2.175593828147257,-0.8933942097376296,-2.5767873244992705,-0.8335638048995886,1.8177846121966963,0.2178146070749325,,,,,,
81,81,81,81,4.1,-4.49,-1.36,3.41,1.91,0.91,1.85,-7.24,8.01,4.33,,,,,150,4100000000.0,-2.304198806563265,-5.616563238442218,6.584437980829143,1.3980193137541217,1.0503281704252596,1.188115772526128,-5.046008887821895,3.702053456032778,7.1528534751443305,,,,,,,,,,-2.7333568903366623,-0.7258394527539109,-1.342031887547669,-1.2091331729522912,0.8466921887507013,0.19232971354159667,,,,,,
82,82,82,82,4.15,1.8,1.71,1.57,1.71,-1.21,2.12,0.114,11.4,1.59,,,,,150,4150000000.0,-0.6629656271816551,-1.5140925992662195,4.599980547004604,1.6276269102245329,0.2999023586320381,1.838264982967672,-2.785732853771284,7.9986364661200176,4.69606605511815,,,,,,,,,,-2.3084895771025,-1.3254464833660835,0.10042806040785776,-0.981345109698562,0.4981633401226507,0.22204882453440367,,,,,,
83,83,83,83,4.2,0.8809999999999999,-3.23,3.91,2.68,0.145,0.607,-0.0852,6.47,2.77,,,,,150,4200000000.0,-0.0455472868255411,-2.4749059497489725,4.326921656870248,2.402139090525705,0.24847499028999595,0.979246195475306,-1.6027989037836807,7.1454329970716985,3.8454351782221305,,,,,,,,,,-2.1567066427928747,-1.3751659602200117,0.4448278819024054,-1.1323488835227913,0.7526662926732647,0.3278125438057399,,,,,,
84,84,84,84,4.25,-3.18,-50.5,-0.74,1.93,-2.57,2.34,-3.87,-41.1,-3.42,,,,,150,4250000000.0,-1.2989875327441345,-29.366305211169426,2.3216938504583844,2.0546601428128217,-0.6872547521826424,1.9286056098502744,-2.5959173566448888,-19.78259388149021,0.6367168251022486,,,,,,,,,,0.02910185177125396,1.5986850573913298,1.3595863496259872,-0.7706340302720865,2.6330632444449176,0.5383429534689759,,,,,,
85,85,85,85,4.3,-0.778,-20.9,1.12,2.64,1.59,1.87,-0.272,-11.8,-2.31,,,,,150,4300000000.0,-1.090649174951522,-24.625641846249557,1.8461250390936048,2.48545118631537,0.0687906595561476,1.8877181353901318,-1.5779550261412387,-15.32713580161693,-0.6646758435160849,,,,,,,,,,-0.16236925125408874,1.2631068099520206,1.0011017665262891,-1.6453512700601731,1.8750941471736908,0.3879396073410615,,,,,,
86,86,86,86,4.35,1.83,-5.42,-2.29,-0.289,-1.98,0.932,3.08,3.37,-6.45,,,,,150,4350000000.0,0.07729289689069829,-13.871543574889884,0.2092588294419453,0.44354596702912863,-0.6114049874185852,1.2209405881296145,0.4624026882714887,-4.891391794704703,-3.219715498725252,,,,,,,,,,0.7384987863820734,-0.2710900127870032,1.3767687269966489,-0.5557063894950988,0.7244312858523023,0.28358651816692715,,,,,,
87,87,87,87,4.4,5.33,1.91,-10.0,-1.71,-0.608,-1.13,6.23,10.8,-14.0,,,,,150,4400000000.0,2.1778044852558316,-5.03475112858643,-3.8310423702743814,-1.1413933688841231,-0.6102745298553365,-0.4192442188553329,2.988825084845744,3.866706376689285,-7.980737449831754,,,,,,,,,,2.3550060001673905,-1.5585717578543037,1.479973642594674,-0.30889340682020033,-0.9449012800569676,0.2730775457036545,,,,,,
88,88,88,88,4.45,-1.13,5.19,7.56,-1.2,1.15,-1.56,-0.8959999999999999,14.6,4.67,,,,,150,4450000000.0,0.8550424107979029,0.6905446136460219,0.6769481403322457,-1.1845259652407596,-0.025865849671463333,-1.2151172494644171,1.287127027912364,9.857458674734582,-2.3936456571755316,,,,,,,,,,0.6230042941307042,-2.244814051245689,-0.03815163454723639,-0.11576549111266007,-0.6371068255850252,0.1590617913151946,,,,,,
89,89,89,89,4.5,-0.395,-7.65,14.4,2.34,-1.86,1.23,-0.423,1.69,11.4,,,,,150,4500000000.0,0.3551613820330317,-3.979699604785369,6.1078283126750925,1.4094096615323828,-0.6347958334733735,0.4907719693173247,0.5380277069336913,5.298818851743589,3.6982017273388816,,,,,,,,,,-1.7223051519224148,-1.7397116902796308,0.7709734019873073,-0.12209867424420096,1.5911985176187096,0.3015802364860266,,,,,,
90,90,90,90,4.55,2.1,-4.03,-6.99,-2.3,4.95,0.7659999999999999,2.82,5.11,-10.5,,,,,150,4550000000.0,1.0529070430485663,-4.007865164468576,0.9243795036374296,-1.3205943392517938,1.2193485283972332,0.6827907693658264,1.5376165149315049,5.193430313086059,-2.5723146103426835,,,,,,,,,,0.5509914406529941,-1.423207640397107,-1.16252563685165,-1.7109334435994792,-0.8882398698251811,-0.13937037712233422,,,,,,
91,91,91,91,4.6,8.48,-10.8,-18.4,1.52,-1.95,-1.44,9.56,-1.46,-21.1,,,,,150,4600000000.0,4.0229363598867725,-7.811085510850189,-6.72321896119012,0.7699900571814768,0.16712922279313158,-0.798220399872575,5.051719391439909,1.4798403239568112,-10.754911150267832,,,,,,,,,,2.8032230012617245,-1.1757656385690096,1.8775107696423128,-1.8950699805316817,-1.2580650624182323,0.3732406981105215,,,,,,
92,92,92,92,4.65,5.24,-21.7,-5.62,-2.02,1.79,-3.11,5.21,-12.2,-8.19,,,,,150,4650000000.0,4.5096293709410515,-15.588110683589278,-6.2866214148562225,-1.2833512448270077,0.7059200440445975,-2.4110836223634142,5.1210522085298615,-6.155516881248905,-9.622139535063862,,,,,,,,,,3.9193975328277,-0.8087657386067876,0.05910044611965076,-1.7384981916988045,-0.8795418235580571,0.35007072722317195,,,,,,
93,93,93,93,4.7,3.8,-30.6,-9.27,-3.18,-2.88,-2.13,2.68,-21.0,-10.9,,,,,150,4700000000.0,4.225854774403187,-23.99393950115924,-7.467289877439065,-2.6792226666891468,-0.4846004457461118,-2.214979602359064,4.051780473964707,-14.440915689605866,-10.186495689774524,,,,,,,,,,5.118235116361136,-0.10681556879100257,0.7356940730974505,-0.4017045251723844,-0.18982498078066395,0.519978597041923,,,,,,
94,94,94,94,4.75,-10.4,-22.4,8.68,-3.26,2.59,-1.04,-12.6,-12.9,8.8,,,,,150,4750000000.0,-1.6228964476355603,-23.10142123273841,-1.0770203204713755,-3.1066557578065765,0.5361625842771588,-1.3952295123252028,-3.2423195963268,-13.580858517056635,-1.8012695251951671,,,,,,,,,,2.452184931477988,0.5897704735550248,-1.7838847285786674,-0.08928538462299727,0.20787192842623076,0.22088744610169064,,,,,,
95,95,95,95,4.8,0.373,-10.0,5.3,-0.904,-0.687,-1.24,-2.42,-0.733,6.62,,,,,150,4800000000.0,-0.8247549203203622,-15.765349201458793,1.4466774378555685,-1.4855732406128035,0.1300743205256894,-1.2869302750448464,-2.8821130261739016,-6.409869068816558,1.9179132585283685,,,,,,,,,,0.7726560238051333,-0.346075288610022,-1.113535822050306,0.11013956817351793,0.7635983195512098,0.3640145310395723,,,,,,
96,96,96,96,4.85,-5.13,-2.47,2.93,0.8270000000000001,0.83,0.281,-8.28,6.72,4.27,,,,,150,4850000000.0,-2.546384810363231,-8.320688238318043,2.033700482058792,0.21640494893265694,0.3624486640826928,-0.1930296403031784,-5.246588402669509,0.9185235015447732,2.9566925704212537,,,,,,,,,,-0.7774983016569708,-0.48427752250174894,-0.6182606860052869,-0.2804418441627679,0.20290798179064568,0.34456319367595245,,,,,,
97,97,97,97,4.9,-4.02,0.895,1.28,1.44,0.8440000000000001,1.75,-6.78,10.3,2.0,,,,,150,4900000000.0,-3.1356706256118123,-3.1604120062056174,1.7354244633627989,1.1169308785831769,0.522323029764544,1.1625672293506732,-5.9182798732299675,6.1547634675600875,2.5341773457351624,,,,,,,,,,-1.5405743477515867,-0.6078627800919251,-0.11778411731837014,-0.7437049144833435,-0.3968156462055695,0.2466949318170361,,,,,,
98,98,98,98,4.95,1.87,1.18,0.481,1.85,0.0446,2.04,0.0614,10.8,0.419,,,,,150,4950000000.0,-1.1339467310607474,-0.730021121696395,1.2389875795591672,1.6564457630909633,0.3637196499511305,1.7747272504023457,-3.2989574258380214,8.747486872129956,1.60002706672605,,,,,,,,,,-1.537809989752745,-1.0892132631671518,0.5735316213902525,-1.1369124526451466,-0.4212547822815384,0.22808688797516136,,,,,,
99,99,99,99,5.0,-0.611,-15.9,7.73,3.04,-1.82,1.64,-1.59,-6.24,6.61,,,,,150,5000000000.0,-0.9248249087169002,-9.224370932207393,3.807797498562548,2.674696345022052,-0.3612722446728396,1.6807318452339706,-2.550370452187374,0.3822711228946839,3.812639520749058,,,,,,,,,,-1.9016239834019883,-0.5180063917728551,1.1755153555957245,-0.7362092525088851,1.4066658189877446,0.4105474679043077,,,,,,
100,100,100,100,5.05,0.747,-53.3,1.03,1.13,1.13,2.45,0.71,-43.8,-1.35,,,,,150,5050000000.0,-0.2562767615464057,-33.904287585854746,2.70848765941542,1.5378504169852103,0.13382805845610046,2.217428530418045,-1.1222067984361532,-24.27791591510817,1.5326032012492008,,,,,,,,,,0.288071806637047,1.9148368805583276,0.2288357479691308,-1.6649136224360752,2.8051330743656337,0.3529975585856845,,,,,,
101,101,101,101,5.1,-1.27,-12.1,-3.68,0.932,0.112,2.33,0.0278,-2.88,-6.81,,,,,150,5100000000.0,-0.6616558087371863,-21.69509144747188,0.1802517653471752,1.0919643366665568,0.12658117464940682,2.295966410226192,-0.6184609986728108,-12.334740483676455,-2.1518372876260443,,,,,,,,,,0.5402473138401069,0.9004791865112662,0.791388378736292,-1.5563919152761498,1.0467549913795002,0.18129545257478835,,,,,,
102,102,102,102,5.15,4.04,-2.46,-5.72,-0.523,-3.54,0.294,5.92,6.56,-9.05,,,,,150,5150000000.0,1.2184952029624243,-10.924503005170411,-2.154765285031076,-0.0965965299928031,-1.0907186473103314,0.8992510215949976,2.2456284221862552,-1.7887040497218882,-5.198352896757335,,,,,,,,,,1.5490775120005462,-0.8120894596763746,2.0672228358500124,-0.16250058862782915,0.2255674666292062,0.2743392426485243,,,,,,
103,103,103,103,5.2,2.84,2.81,-4.47,-2.12,1.21,-2.51,3.96,12.1,-7.41,,,,,150,5200000000.0,1.8669207517491668,-3.2339401914043484,-3.071016396409376,-1.5857551376788368,-0.32688325354125103,-1.4792870634386788,2.9965870273377155,5.963230067705195,-6.175108165036202,,,,,,,,,,2.171524755873712,-1.923858993427661,0.6857494741245757,-0.13051322856133452,-0.9875024894813418,0.19345217972267909,,,,,,
104,104,104,104,5.25,-1.49,5.26,11.5,1.12,-1.54,-1.64,-1.34,14.8,9.15,,,,,150,5250000000.0,0.5245175062783003,1.5221971501619675,2.695444814048258,0.4055920396309258,-0.7296363082446754,-1.5914119275192096,1.0970004150101251,10.895443878140263,0.5930967512631167,,,,,,,,,,-0.5017420209961374,-2.4643753385805134,0.8320684812508138,0.4496112537593367,0.3907448454502989,0.3409318881439475,,,,,,
105,105,105,105,5.3,0.936,-8.51,-4.88,2.25,1.54,1.35,0.433,0.612,-8.45,,,,,150,5300000000.0,0.6890657515971712,-4.095279098962267,-0.3025278835087519,1.7630158981574269,0.02387976698904204,0.4607280660865112,0.8061435073904428,5.155773923519697,-3.400710761475497,,,,,,,,,,-0.06696757145616268,-1.1830992830130242,1.3710437452722632,-1.2644482416426153,-0.19491263789515148,0.3102025066509189,,,,,,
106,106,106,106,5.35,5.44,-0.539,4.81,-2.54,3.4,1.24,6.4,8.7,1.67,,,,,150,5350000000.0,2.588922818358716,-2.103959275313772,1.720748502683604,-1.4038628605025107,1.1447470058823217,1.0044040786590096,3.256460989093757,7.133971796452691,-1.1612740345578358,,,,,,,,,,0.2920376390463762,-1.9384469465184848,-1.1755999405097042,-1.7889595186134155,-0.6573154961670744,-0.18286348455123352,,,,,,
107,107,107,107,5.4,10.1,-12.1,-14.6,-0.655,-0.588,-1.43,11.1,-2.87,-17.6,,,,,150,5400000000.0,5.592537027542863,-7.701190009270152,-4.738167114848844,-0.8527242977285201,0.5694774174958475,-0.6940108137066643,6.69222330965014,1.5502883236157752,-8.421299220036532,,,,,,,,,,2.846017024807673,-1.676267496643089,0.5442648532371597,-1.9915378172879967,-1.0397287091952216,0.1872574102570825,,,,,,
108,108,108,108,5.45,8.92,-33.5,4.03,-2.24,-0.7240000000000001,-3.21,8.78,-23.9,1.89,,,,,150,5450000000.0,6.923160391472603,-22.147098208935887,-1.26817604566734,-1.8737137913902129,0.14004472705583054,-2.449345393266616,7.606747124748818,-12.654705120840307,-3.867400678944296,,,,,,,,,,3.3428117524820316,-1.0849877507600805,-0.5283812468951732,-1.1699966124604462,1.3237101675141665,0.4211317244961239,,,,,,
109,109,109,109,5.5,-8.17,-26.4,-1.69,-3.76,0.337,-1.34,-9.66,-16.7,-2.48,,,,,150,5500000000.0,0.8875375581885878,-24.52848802371049,-1.4351123618504786,-3.2619586621826024,0.20543360701103305,-1.6753864859827459,0.04326899608719437,-14.912573409306505,-3.254666850273681,,,,,,,,,,3.1417191625954755,0.21529479238108906,-1.3243533918896466,-0.1555881201001432,0.5816525549278133,0.28064133806189223,,,,,,
110,110,110,110,5.55,-3.53,-14.8,21.5,-3.25,2.63,-0.249,-5.26,-5.21,22.3,,,,,150,5550000000.0,-0.878997054449614,-19.081072340303805,7.641429191193727,-3.253157478436098,1.0103863048911401,-0.6802369432509863,-2.279760400134834,-9.497114399766767,8.031336425484797,,,,,,,,,,-0.2619780465909497,-0.44716629367841787,-3.676667689894765,-0.1342033038002057,1.8484981563365863,-0.034697419760067384,,,,,,
111,111,111,111,5.6,-3.88,-4.63,6.27,-0.341,0.28300000000000003,-0.8059999999999999,-6.07,4.8,7.86,,,,,150,5600000000.0,-2.0790719248070357,-10.989270321661603,7.0986878251320435,-1.1099049342179077,0.7688950639331317,-0.7679782698648582,-3.940026555684846,-1.5172275122635268,7.955667193657402,,,,,,,,,,-1.4224787366296616,-0.8395870542248368,-2.4758150941811734,-0.10357986553419517,1.3759318966819056,0.1335914201122797,,,,,,
112,112,112,112,5.65,-5.85,0.14800000000000002,4.02,1.28,0.831,1.11,-8.13,9.6,5.28,,,,,150,5650000000.0,-3.587033035159725,-4.753014279349979,5.880301025629616,0.6489868121787117,0.7895138062476684,0.542234106978502,-5.7753909947663296,4.687816207084227,6.7739813817059735,,,,,,,,,,-2.370736679808118,-0.7830912490780818,-1.383411600897207,-0.5269476697942626,0.5748470457369617,0.13038691876641406,,,,,,
113,113,113,113,5.7,0.397,0.285,0.685,1.59,-0.0715,2.18,-1.06,9.97,1.19,,,,,150,5700000000.0,-1.993853071550392,-1.9320046373322457,3.8242672519953977,1.3415417268679768,0.5036584226918752,1.6848571335398583,-3.7098741288916592,7.636049646112112,4.3078630100340005,,,,,,,,,,-2.1336693261748585,-1.0603393751577868,-0.1815730305028974,-0.9488389853849916,0.14446864842400245,0.11499281626001374,,,,,,
114,114,114,114,5.75,2.93,-2.52,-3.57,2.63,0.0929,1.03,2.37,7.26,-4.05,,,,,150,5750000000.0,-0.024847276324512446,-2.26124954275408,0.8979954159453779,2.289804905942587,0.36728719958994704,1.2279817978951848,-1.0466629167590176,7.426158916439795,0.6166830454884922,,,,,,,,,,-1.264500787538277,-1.1690257189768285,0.8863996851963498,-1.4686352828172309,-0.1314326521748261,0.2442514584105551,,,,,,
115,115,115,115,5.8,-8.71,-46.4,-0.124,2.41,-3.09,3.3,-8.7,-36.8,-1.88,,,,,150,5800000000.0,-3.497963886445097,-26.97651196862369,0.4935420304505467,2.3782646222123787,-0.7805272988115254,2.6735703086092686,-4.399109459879048,-17.25852394734771,-0.4859560138441477,,,,,,,,,,-0.09431909549359196,1.9053844460255511,1.908261366057847,-0.6417948607504737,1.8921755314599031,0.4113711078051774,,,,,,
116,116,116,116,5.85,-3.98,-25.4,-0.206,2.04,2.6,2.35,-2.24,-16.1,-2.74,,,,,150,5850000000.0,-3.690725918941419,-26.093752155544248,0.21669916133904665,2.1293129096117323,0.34180301645540234,2.4478243819156305,-3.45333912274606,-16.61189787789205,-1.4814355803605297,,,,,,,,,,0.05833827316786139,1.9516532725219229,0.7785832607790188,-1.6736073886838314,1.2379667370942748,0.1527691493628444,,,,,,
117,117,117,117,5.9,0.381,-7.02,-3.05,0.159,-1.64,1.48,3.16,1.84,-6.22,,,,,150,5900000000.0,-2.0624783393102053,-15.413504770617967,-1.0760928589740817,0.6792271274293729,-0.31615281538473616,1.772600674860482,-0.5564502911591194,-6.313032518757312,-3.5741825961805564,,,,,,,,,,0.7263092366445899,0.3550087331668761,1.3150845095522965,-0.8045898052943093,0.3344349787322718,0.057711489892593074,,,,,,
118,118,118,118,5.95,6.04,0.68,-7.15,-0.6890000000000001,-2.08,-1.03,8.65,9.5,-10.6,,,,,150,5950000000.0,1.1776318513373414,-6.402031267999338,-3.479833924230937,-0.3277432396493434,-0.901747594550566,-0.1826945940031985,3.4763175861267994,2.5129589111446595,-6.6770759100147865,,,,,,,,,,1.9301836755371784,-1.3464907284975043,1.965116350293925,-0.16168196001720614,-0.4529437348247437,0.1750558198611132,,,,,,
119,119,119,119,6.0,1.26,4.87,1.35,-1.25,1.05,-2.17,2.96,14.1,-1.5,,,,,150,6000000000.0,1.2105701496019894,-0.09031660648635677,-1.5684332808704409,-1.0064940133864235,-0.25377013193324705,-1.5691814673680955,3.2501512742044736,8.980227513400378,-4.390663891184444,,,,,,,,,,1.3575041685457885,-2.2367990194162903,0.5984669903368146,-0.13156335550902815,-0.8136153921665057,0.09656187567154563,,,,,,
120,120,120,120,6.05,-6.68,2.46,10.1,1.22,-2.6,-0.05,-5.75,11.8,7.29,,,,,150,6050000000.0,-1.944799756402268,1.3377198084370727,3.04933450348696,0.6321326887389498,-1.0327151431727726,-0.5092914904612065,-0.6922501188804175,10.55407424108558,0.7680030253734316,,,,,,,,,,-0.9570836640088328,-1.9885639060298377,1.2663111893208407,0.7998893673736613,0.3862582885130808,0.20915722331102246,,,,,,
121,121,121,121,6.1,-0.934,-5.26,-0.764,-1.12,4.96,1.76,0.685,3.87,-3.94,,,,,150,6100000000.0,-1.5405897825831838,-2.3566388856442195,1.5402122233125326,-0.6573795951893919,0.956857936405826,1.0739290451727004,-0.08896328166224654,6.823380403029747,-1.3112469257253607,,,,,,,,,,-0.2257301623213453,-1.2096293830473828,-0.7754290208435167,-1.2939513096143025,-0.8332687024002833,-0.2580096987749051,,,,,,
122,122,122,122,6.15,7.76,-9.44,-21.6,3.09,-2.63,-0.889,10.4,-0.361,-24.3,,,,,150,6150000000.0,2.178634799709899,-6.322929516029473,-7.6174974900676276,2.100569005259583,-0.2339739323403289,-0.2955510758996385,4.505593041880196,2.81344241019338,-11.464035970381365,,,,,,,,,,2.3610623755153477,-0.9147973769171024,2.9979804926491416,-1.7552085878106969,-1.3337305672048625,0.3232283026336993,,,,,,
123,123,123,123,6.2,8.87,-30.8,-1.81,-3.03,2.38,-3.66,10.3,-21.5,-4.25,,,,,150,6200000000.0,4.8544531602343,-20.028736191371767,-5.319187720509137,-1.6753617467016744,0.6338618043562005,-2.642832070162231,7.043759137067842,-10.757024487236727,-8.278017678656669,,,,,,,,,,4.143194411188955,-0.6716893016177867,-0.27403728557467555,-1.657079628911338,-0.13088530919905406,0.2188549625608203,,,,,,
124,124,124,124,6.25,-0.156,-28.5,-9.98,-1.91,-3.4,-2.64,-0.141,-18.8,-11.7,,,,,150,6250000000.0,2.8508167725459246,-24.772175883302,-7.163698072295933,-1.8480477926768213,-0.705374718588391,-2.64085628803356,3.896567097920845,-15.246184054110346,-9.789307296124056,,,,,,,,,,4.811290062976905,0.09317506492021398,1.1349316839970407,-0.17909344110331385,0.14473121027531688,0.501441368779305,,,,,,
125,125,125,125,6.3,-12.3,-22.2,7.97,-3.32,2.49,-0.337,-13.3,-12.4,7.91,,,,,150,6300000000.0,-3.207862388904485,-23.33189992966022,-1.1745563871403926,-2.9313563649373693,0.3554852331845022,-1.0335208719372029,-3.636169716113076,-13.657595691533313,-1.972557207590916,,,,,,,,,,2.310630274101063,0.8326029111503848,-1.4876970880106726,0.1259160884796623,0.1894003721559952,0.07983424121218281,,,,,,
126,126,126,126,6.35,-2.05,-8.59,9.22,-1.66,-1.62,-1.88,-3.5,1.03,10.4,,,,,150,6350000000.0,-2.744843329708877,-15.077250550685706,2.9390761910880885,-1.9956796899033464,-0.30037310975620024,-1.6240854345993627,-3.5765223099590484,-5.459763094082115,3.4916784193547423,,,,,,,,,,0.4489643199305241,-0.4432977232962285,-1.2012446738383808,1.0086245892559242,1.0777956100021355,0.2270346307001549,,,,,,
127,127,127,127,6.4,-6.35,-3.17,3.69,0.415,1.08,-0.131,-8.4,6.28,5.26,,,,,150,6400000000.0,-4.186513905440411,-8.40984816564169,3.2362533562394686,-0.22149838873501002,0.15790885113010505,-0.5824019198436976,-5.689384980981807,1.0927466908884416,4.272642868927788,,,,,,,,,,-0.9957096318731664,-0.4948920461111767,-0.8725567770217741,0.33144437905105184,0.4545552602972471,0.1999459612918337,,,,,,
128,128,128,128,6.45,-4.42,0.139,1.81,1.07,0.599,1.53,-6.23,9.71,2.95,,,,,150,6450000000.0,-4.279882982584277,-3.622965521153409,2.6718153814784107,0.7290021702445478,0.3043504895763626,0.8913611827923241,-5.926194498328911,5.902437944098791,3.688508794852857,,,,,,,,,,-1.6661466273418524,-0.6262312976782577,-0.27874972313780744,-0.23352300320322075,-0.11790245001319374,0.11810623610504545,,,,,,
129,129,129,129,6.5,1.89,2.57,4.04,1.97,-0.461,1.89,0.975,12.3,4.54,,,,,150,6500000000.0,-1.812600758853542,-0.15524703064725598,3.213272689385953,1.6423359540505882,0.05025519630473774,1.5880832538557126,-2.903214320636206,9.4732160028991,4.064562704819864,,,,,,,,,,-2.114665970130716,-1.3319738146790543,0.500603647302099,-0.614881650216561,0.17701141851174845,0.13185691603536714,,,,,,
130,130,130,130,6.55,0.426,-4.31,3.45,2.02,0.469,1.29,0.272,5.48,2.92,,,,,150,6550000000.0,-0.9174038994653028,-2.4816791095890065,3.3069572404111334,1.9202843101648133,0.1892778908065065,1.3801189649157328,-1.5123522075544311,7.244415802230054,3.559076249598419,,,,,,,,,,-1.9076818125433692,-1.2538267546471027,0.4751189628433252,-0.9790498571488684,0.4539908331255328,0.1419461347738687,,,,,,
131,131,131,131,6.6,-8.05,-61.0,-2.15,1.62,-0.433,4.86,-7.18,-51.4,-3.85,,,,,150,6600000000.0,-3.769666759064637,-35.248705646286396,1.147373313812603,1.6992848950437558,-0.017317500228323957,3.807933714146056,-3.9949929093540657,-25.48777039516861,0.2869201016282701,,,,,,,,,,0.18084047754572768,2.8633647596630167,0.7823795613076666,-1.4877976905045385,2.247453204618835,0.13859567706510922,,,,,,
132,132,132,132,6.65,-4.47,-18.2,-3.65,2.05,1.36,2.43,-1.58,-9.1,-5.88,,,,,150,6650000000.0,-4.0497238115686764,-25.702372859754053,-0.7511811125577195,1.9573996920493784,0.4399499930591441,2.8465883490287323,-2.9371361077438456,-16.340991146814954,-2.436648327011623,,,,,,,,,,0.29009377075551124,2.034395164209742,0.8404936050599634,-1.8378174554775992,0.8990082578309758,0.007494181200117098,,,,,,
133,133,133,133,6.7,2.22,-3.91,-5.84,-0.63,-2.92,0.996,5.91,4.75,-8.6,,,,,150,6700000000.0,-1.5425160965917573,-13.4998481441524,-2.7650747767363812,0.053158253861029126,-0.6755487423973567,1.5554851502331712,0.9382388778284096,-4.5691246886186185,-5.158640907096364,,,,,,,,,,1.4169699257655188,-0.0006959251104551058,1.744576846226883,-0.4523219434681944,-0.03357196012345324,-0.00803732424518999,,,,,,
134,134,134,134,6.75,7.21,1.3,-8.84,-1.52,-0.292,-1.44,10.6,10.1,-11.6,,,,,150,6750000000.0,1.9575385370507243,-5.212750907985038,-5.169218769389143,-1.1046346894695418,-0.5482110935971887,-0.5343802260278707,5.170450187518462,3.618398608964181,-8.003413125198126,,,,,,,,,,2.6517254078266044,-1.6015925688252368,1.5689944906179003,-0.4568172285745888,-1.0533978828627548,0.014707845398451613,,,,,,
135,135,135,135,6.8,1.55,4.29,8.21,-0.0944,-0.556,-2.22,4.06,13.6,6.21,,,,,150,6800000000.0,1.7945674222387829,0.10826454812712336,0.1255900607549183,-0.3611350435991684,-0.5507969977566701,-1.7103895263546782,4.684031630937351,9.189596391320446,-1.7261787847843608,,,,,,,,,,0.7089171635261883,-2.5580065307201454,0.8072925296292713,0.0448212204646248,-0.011884981610054137,0.0902363693039558,,,,,,
136,136,136,136,6.85,-5.61,-6.44,10.8,2.12,-2.61,0.986,-4.09,2.85,8.11,,,,,150,6850000000.0,-1.1664543667723328,-3.55840183648372,4.349974296175418,1.4648990125480013,-1.2344494868165603,0.17080524670225428,0.8406789946897435,5.651171728361428,2.6178866681507325,,,,,,,,,,-1.3312590910629116,-1.662877886775406,1.589031429981787,0.549806341188866,1.4370619806371492,0.20030243535084766,,,,,,
137,137,137,137,6.9,1.79,-2.59,0.816,-1.04,4.52,1.9,4.55,6.43,-1.84,,,,,150,6900000000.0,0.01580585563243897,-3.0161502646026714,2.9514084562069174,-0.378624602677625,0.6760197082663406,1.3772155420730356,2.46549980104671,6.085872038223673,0.6490985124191087,,,,,,,,,,-0.5484741334603238,-1.5618108058192464,-0.5622792984337963,-1.3125197866390446,-0.04407439860133351,-0.305537982672904,,,,,,
138,138,138,138,6.95,7.01,-10.7,-16.3,0.526,-3.41,-0.0714,10.3,-1.91,-19.3,,,,,150,6950000000.0,2.8127229989812386,-7.318681473682562,-4.667311658423415,0.2871494972714509,-0.6805331628431509,0.3665574153705571,5.897302701844152,1.6230027115689492,-8.161252668833201,,,,,,,,,,2.2193903120917597,-1.3361835568789855,2.3331886260680066,-0.9696087807438756,-0.5239600021206307,0.11921673287661988,,,,,,
139,139,139,139,7.0,6.87,-29.0,0.28300000000000003,-2.18,3.17,-4.27,9.24,-19.8,-2.01,,,,,150,7000000000.0,4.4351925321106656,-19.45902194641896,-2.7082321174097537,-1.5285917881302915,0.5978385005541111,-2.868237650035652,7.361528488841437,-10.33417446979033,-5.444603676400868,,,,,,,,,,3.3728127273983777,-0.9041091902305513,-0.6555591329704054,-1.4324287541621423,0.5260507648588688,0.1496960347284399,,,,,,
140,140,140,140,7.05,-4.9,-28.5,-8.84,-2.69,-2.69,-2.25,-4.13,-18.9,-10.6,,,,,150,7050000000.0,0.7021306663840754,-24.521470138570226,-5.134871520210226,-2.3833502406135967,-0.4937193136632887,-2.436910713118872,2.3278110552131106,-15.115161245295855,-7.721441256762737,,,,,,,,,,4.2059213980348,0.2613172970207834,0.3460108456248007,0.09448749234700796,0.2593044288662297,0.3036339013863934,,,,,,
141,141,141,141,7.1,-13.8,-18.1,13.5,-2.73,3.66,0.112,-13.7,-8.25,13.4,,,,,150,7100000000.0,-5.097144596038954,-20.925801863508852,2.239855187916588,-2.63847312554206,0.8853097319882071,-0.6586077388634926,-4.69296692452206,-11.283394362883975,1.6066654026094866,,,,,,,,,,0.9062856158714352,0.767833042360943,-2.4457502379819043,-0.05936222156335377,0.4739819121034429,-0.1643602032357375,,,,,,
142,142,142,142,7.15,-6.37,-7.68,5.57,-1.38,0.319,-1.7,-6.55,2.09,6.45,,,,,150,7150000000.0,-5.606148291143168,-13.508884559967694,3.557755830640213,-1.7122781138614145,0.697295692943797,-1.3851577227834586,-5.5064166447179534,-3.819078891581309,3.7456832943831433,,,,,,,,,,-0.20774389805916268,-0.0088412163869011,-2.18695061411406,0.33934021494195404,0.4309844661367504,-0.0695867886239965,,,,,,
143,143,143,143,7.2,-6.02,-0.261,6.3,0.168,-0.35600000000000004,0.302,-6.71,9.44,7.54,,,,,150,7200000000.0,-5.77164396143595,-6.090801161738873,4.642995549125377,-0.3284549987001535,0.3476029903133527,-0.20807546864185866,-6.033630988386617,3.581431593877042,5.421411327454743,,,,,,,,,,-1.6075596598230153,-0.5760397984832628,-1.2536942844451582,0.37578240136404734,0.3653640403632008,-0.04555810617777065,,,,,,
144,144,144,144,7.25,-3.11,0.505,1.69,1.07,-0.41,1.92,-3.33,10.3,2.62,,,,,150,7250000000.0,-4.707275783864018,-2.39751693463374,3.4743513382162377,0.7007621226199543,0.09607985567165628,1.2766226160729075,-4.8493399080429285,7.3313782778376755,4.184191533545872,,,,,,,,,,-1.9208528899361383,-0.8206704217588332,-0.09478382570349972,-0.054203018441042035,0.04657961515511665,-0.058728823010799874,,,,,,
145,145,145,145,7.3,3.23,2.02,2.62,2.34,0.28600000000000003,1.93,4.08,11.8,2.8,,,,,150,7300000000.0,-1.5332286270347508,0.07604846840555801,3.1362428372156046,1.9071874557670359,0.1591330830579455,1.7324655156758708,-0.9379565635305104,9.825524714324112,3.5728749674578792,,,,,,,,,,-2.0800499847900102,-1.441510689745661,0.6091862005531454,-0.9409655331472252,0.2073797599708897,-0.035392050071794544,,,,,,
146,146,146,146,7.35,-0.929,-5.45,4.83,1.46,-1.48,1.76,0.754,4.18,4.02,,,,,150,7350000000.0,-1.2916028929966854,-3.0182332505898626,3.8065450504223457,1.578072160803301,-0.3850568200451522,1.7516755406055569,-0.19681658245286726,6.674493803466163,3.7703439678132256,,,,,,,,,,-1.8248435889400552,-1.3487149949986894,0.93072482334455,-0.4388755962355859,0.8366593670922435,-0.0008884535154734186,,,,,,
147,147,147,147,7.4,-16.4,-62.1,-3.79,1.11,1.87,5.27,-13.4,-53.0,-5.76,,,,,150,7400000000.0,-7.3333185724721215,-36.10075748329732,0.800222021537695,1.2335863893142165,0.3636188996944463,4.206311074102378,-5.980302393827442,-26.632626147648764,-0.43865236402757546,,,,,,,,,,0.17415396805279088,3.5541094752695783,0.26464944186466816,-1.4548364589137224,1.7059151724674266,-0.18150860661267396,,,,,,
148,148,148,148,7.45,-6.31,-13.4,-4.04,1.33,-0.00611,2.4,-1.36,-5.28,-6.27,,,,,150,7450000000.0,-6.924102404639817,-23.389587305482955,-1.115289673590505,1.3045436810294897,0.2408694208297469,2.9460989509294087,-3.956437907270543,-14.71472910230124,-3.01401797755155,,,,,,,,,,0.3305934921155337,2.1524992909135303,0.8609571492621266,-1.2124679135216705,0.44781755089459896,-0.24717041223432784,,,,,,
149,149,149,149,7.5,1.3,-3.0,-4.66,-0.885,-2.9,0.364,6.74,4.71,-7.32,,,,,150,7500000000.0,-3.6353558180705714,-11.972544947718616,-2.5181042174471564,-0.3068887584483944,-0.8018948766249472,1.1446414783149297,0.7290000947760116,-3.8728812329315225,-4.915718785615239,,,,,,,,,,1.3632345004823303,0.0006445324799707947,1.6267952245851467,0.045024695756838574,-0.12835746615267346,-0.1966134988381775,,,,,,
150,150,150,150,7.55,8.6,0.0838,-7.08,-1.21,0.949,-2.34,13.5,8.1,-9.88,,,,,150,7550000000.0,1.2574560889531945,-5.221657893502086,-4.323468642318544,-0.9715490853979384,-0.22060021999564106,-1.2864943445955268,6.323173601808801,2.8097427605743555,-7.10815186799005,,,,,,,,,,2.4921327320290025,-1.6477657879186556,1.0502870812991183,-0.6241870179228851,-0.8455371770260178,-0.13995009320241486,,,,,,
151,151,151,151,7.6,1.81,4.76,12.0,-0.0816,-0.5589999999999999,-2.96,5.69,13.6,10.1,,,,,150,7600000000.0,1.4784135423419174,0.3675191642078808,2.136523316049358,-0.31657570458777684,-0.33294847991114024,-2.454051973398482,6.0458200120525865,8.832289111218369,0.4916837938584715,,,,,,,,,,0.2647333421047657,-2.802488270911053,0.17288784658002834,0.03837267272051455,0.5173027602834838,-0.051087909596934274,,,,,,
152,152,152,152,7.65,-11.6,-7.79,6.86,1.82,-2.45,1.67,-9.01,1.16,3.82,,,,,150,7650000000.0,-3.7515297733921376,-4.200240840010808,4.005833260214959,1.2558740844355158,-1.0358066468484832,0.42318251201088586,-0.5491898809496938,4.550026480213276,1.9616066143514783,,,,,,,,,,-1.3258402422865845,-1.1471518981293427,1.3549865576076292,0.6084228639890079,1.0923391177857986,-0.0027775015353070065,,,,,,
153,153,153,153,7.7,3.22,-5.1,29.1,2.03,6.94,2.87,7.59,3.24,26.4,,,,,150,7700000000.0,-0.96367599381114,-4.704056204130839,13.93681798885169,1.8256053863132309,1.6121500516114375,2.130257846013019,3.016078429458512,3.8188395690739534,12.754617274590032,,,,,,,,,,-4.433866517744924,-1.660801976573337,-2.503160596466576,-2.173535382148652,2.710106497139021,-0.5680466454880193,,,,,,
154,154,154,154,7.75,10.7,-16.6,-16.7,-2.02,-1.05,-1.24,15.7,-8.67,-19.6,,,,,150,7750000000.0,3.7005259238331316,-11.36512768750293,1.812335925434402,-1.0046342288553285,0.7283199643540244,-0.2210758156786712,8.572108299850758,-3.1517646808501043,-1.5345274007609255,,,,,,,,,,1.2524614881123308,-1.5870938969253725,-0.7773356775371401,-1.803415539668825,0.8232456815663471,-0.2874145667610855,,,,,,
155,155,155,155,7.8,-2.65,-29.3,4.14,-0.425,-0.35200000000000004,-4.02,1.13,-20.4,2.6,,,,,150,7800000000.0,1.1610061243379466,-21.40766484603085,2.733505970261215,-0.5780424269376899,0.36965524400902666,-2.8714778474556035,5.312187743658501,-12.77880956046592,0.291451798220324,,,,,,,,,,1.4781178305333589,-0.5504771019924742,-1.0989210597981414,-0.7791771576678242,2.0433023052347767,0.057577019630692075,,,,,,
156,156,156,156,7.85,-9.89,-23.7,-4.79,-3.24,-0.835,-2.68,-7.85,-14.3,-6.33,,,,,150,7850000000.0,-3.2581946858189683,-22.691246306972552,-0.2439119355257464,-2.5371560344729907,-0.03028860922681431,-2.7378892110606805,-0.4533405613370282,-13.627857043930906,-2.6328566458245137,,,,,,,,,,2.5179659596175865,0.3607607516473309,-1.1312548557727231,0.5330218833344351,0.7914835374157477,0.018387288064613032,,,,,,
157,157,157,157,7.9,-10.4,-13.7,10.2,-1.75,1.72,-0.979,-9.25,-3.93,10.2,,,,,150,7900000000.0,-6.114140000571947,-17.656645038421058,3.8892528570566136,-1.9578349707301657,0.5508047766540716,-1.5107618957507132,-4.30660495311178,-8.215030473984879,3.0346664395686345,,,,,,,,,,0.2104983712440619,0.3377694539079848,-2.168752371049556,0.4487046534442479,0.8779473414504801,-0.1805466079630246,,,,,,
158,158,158,158,7.95,-6.79,-4.11,3.48,-0.845,1.06,-1.2,-6.32,5.66,4.26,,,,,150,7950000000.0,-6.384410486539568,-10.07127234952306,3.727291566828367,-1.138824896227297,0.7198568614140352,-1.2939521365430589,-5.1885470308178006,-0.470728515393601,3.57582479839143,,,,,,,,,,-0.6330193178149054,-0.2212333551316628,-1.9210041623705347,0.26542585336184205,0.22173487236685752,-0.17596055797621207,,,,,,
159,159,159,159,8.0,-5.65,0.685,4.68,0.502,-0.161,0.74,-5.39,10.4,5.71,,,,,150,8000000000.0,-6.090726195868569,-4.048354121043217,4.104324649862656,0.06876847503798644,0.42741361284932905,0.12507879590390747,-5.276790874257847,5.596732184064084,4.518365337352403,,,,,,,,,,-1.7041351699659977,-0.6582257733118221,-0.9684025510420948,0.12380250201944648,0.07308761065513886,-0.16886419769599362,,,,,,
160,160,160,160,8.05,-1.16,2.56,3.92,0.782,-0.00672,2.02,-0.239,12.3,4.64,,,,,150,8050000000.0,-4.118971911703032,-0.3480409596542229,4.031378434258916,0.5936835245061723,0.28328185907409464,1.4471117558625626,-3.0700508779194844,9.338138894575406,4.572084203783725,,,,,,,,,,-2.068416691794046,-1.1928530536071889,-0.3055021425779033,-0.3155942284546297,0.01166484871846357,-0.2281610142288118,,,,,,
161,161,161,161,8.1,1.48,0.153,-1.72,2.19,-0.0434,1.59,3.34,9.78,-1.66,,,,,150,8100000000.0,-1.8799920174336309,-0.06748570657440872,1.7552777209985149,1.7685202167274912,0.1748239373660799,1.5468008690357151,-0.26220994252259633,9.584762049764931,1.819736662961996,,,,,,,,,,-1.5741816408551532,-1.3556018938858103,0.7822030022130295,-0.9890764205154576,-0.12614955767748515,-0.12104537474815134,,,,,,
162,162,162,162,8.15,-16.4,-17.4,12.7,2.66,-1.52,2.53,-13.8,-8.04,11.7,,,,,150,8150000000.0,-7.686416033384262,-9.772735868559117,6.086637570183822,2.424620206381956,-0.3878552390065687,2.232751097355273,-6.192266172445312,-0.2524401620235075,6.183271754887952,,,,,,,,,,-2.9677543199628342,0.3473818699629481,0.6362147843621541,0.14447535566045286,1.478434756251387,-0.10068987325256354,,,,,,
163,163,163,163,8.2,-16.3,-52.6,0.883,1.61,1.99,2.98,-11.8,-44.1,-1.15,,,,,150,8200000000.0,-11.130912603306001,-33.75363670333529,4.027304625115503,1.825086422033469,0.40158938609149664,2.7540855526420023,-8.648662485373773,-24.72580878538185,2.9445939926442235,,,,,,,,,,-1.1148640961191274,3.570267851119611,-0.3584203160249973,-0.6971326431787339,2.185026077225758,-0.2392346374142104,,,,,,
164,164,164,164,8.25,-2.22,-6.74,-4.8,0.305,-0.831,2.24,3.44,0.882,-7.25,,,,,150,8250000000.0,-7.567516619006225,-18.627492536138046,0.5339099689931981,0.7063526001687732,-0.0076285606526939045,2.395422597372287,-3.3533781510924934,-10.4328955907132,-1.5577626729760814,,,,,,,,,,-0.05682049436657492,1.464699121595189,0.6228684716241516,-0.5546584518615358,0.5177418172834667,-0.3744579668330271,,,,,,
165,165,165,165,8.3,7.87,-2.01,-8.1,-1.34,-1.85,-0.7509999999999999,13.8,5.27,-10.9,,,,,150,8300000000.0,-1.3941888190970628,-9.322614834038404,-2.8829490733713268,-0.7996959245729549,-0.6192933160829279,0.2002524786664739,4.16044029602131,-1.6683767309980304,-5.6836830199726895,,,,,,,,,,1.9024563792342064,-0.7822550761992741,1.3478024835231162,-0.2065085581851914,-0.2587327227086812,-0.2539199828811013,,,,,,
166,166,166,166,8.35,6.07,2.19,2.82,-1.21,0.684,-3.6,11.2,10.3,0.64,,,,,150,8350000000.0,1.5906750601932471,-2.8761865717662456,-0.62601425584123,-1.101666315605907,-0.1866017483417179,-2.451076213309087,7.244029492045077,5.011732983299348,-2.8908816242152446,,,,,,,,,,1.5746198463770051,-2.3805002577820136,0.2022380177630148,-0.22477344487274264,-0.0035234326363459603,-0.16320125462493426,,,,,,
167,167,167,167,8.4,-5.08,6.43,9.59,1.18,-6.96,-2.29,-1.85,15.3,6.85,,,,,150,8400000000.0,-1.0768695095622571,2.3347636415652584,3.416960455668917,0.5775653345222129,-2.4353605307827118,-2.3386978647135708,3.260505933397252,10.754095056712911,1.411096749035328,,,,,,,,,,-0.4978045676502809,-2.8581677537558825,2.4303148450465017,2.241918552554837,1.4357798012720049,0.2674991898284235,,,,,,
168,168,168,168,8.45,-4.02,-3.75,-2.42,0.234,6.78,2.31,-0.934,4.89,-5.87,,,,,150,8450000000.0,-2.253801638007896,-1.0723678119514002,1.1069907473903484,0.3247124973929725,0.6241263784629449,0.9045672224937956,1.4231561387688156,7.481069858561798,-1.8045383208306431,,,,,,,,,,-0.3910312191505375,-1.2784999595455382,0.03867380780107038,-1.2102047597899508,-0.6551776517435313,-0.34234645563743354,,,,,,
169,169,169,169,8.5,2.74,-4.28,-8.79,2.0,-0.665,0.557,7.51,3.98,-11.1,,,,,150,8500000000.0,-0.2568240458606952,-2.8684647317072045,-2.809730740835757,1.5576692373297294,0.19613821218882235,0.6620793807010603,4.0894205035834155,5.526959389101987,-5.909800933440466,,,,,,,,,,0.6727291106483348,-1.1725023467055324,1.6355062760902137,-1.6204133567750627,-0.8316672898127148,-0.14954913936381967,,,,,,
170,170,170,170,8.55,9.84,-32.6,-19.2,-3.03,0.119,-1.19,14.5,-24.4,-21.9,,,,,150,8550000000.0,3.78080762220231,-19.516480947668512,-9.29615926030938,-1.818705064208804,0.17052843427028194,-0.6300641030210545,8.649641977540977,-11.176673099547784,-12.971737650719561,,,,,,,,,,5.104260968042344,-0.22457091498091047,1.1674585743418198,-1.784116878698168,-1.0355398350026483,-0.1019610187499107,,,,,,
171,171,171,171,8.6,1.91,-32.5,-0.812,0.464,-1.68,-4.46,5.24,-23.4,-2.21,,,,,150,8600000000.0,3.0326880069089355,-26.786534272065488,-5.938564012203809,-0.13870890034888886,-0.4438444067648246,-3.3021021702434297,7.156091727663593,-17.99908208235755,-8.218906776965913,,,,,,,,,,4.246174869024006,0.1272425874810812,1.243675294015567,-0.8519952278430528,1.0455046610424223,0.3652219543283104,,,,,,
172,172,172,172,8.65,-13.6,-18.5,4.28,-3.43,0.24,-2.45,-12.0,-8.84,3.63,,,,,150,8650000000.0,-3.6185785737511877,-22.14653291422552,-1.8945802152105042,-2.5609914162767407,-0.21680901955205184,-2.7076145999009027,-1.2349897566727073,-12.886971010554747,-2.9859367380087485,,,,,,,,,,2.7387850323213847,0.43393652896829205,-0.7899438978390948,0.7583652104200933,0.4522539468788199,0.04815122279680746,,,,,,
173,173,173,173,8.7,-7.92,-9.74,7.47,-1.79,0.336,-1.49,-7.18,0.0161,8.16,,,,,150,8700000000.0,-5.338679402982461,-15.199559820278989,1.8114404139808529,-1.9935669540957308,-0.03327719780541685,-1.8581193102227882,-3.839125539991647,-5.6851649035544405,1.9365723796824224,,,,,,,,,,0.6808226824804815,-0.03734545715355685,-1.3159587538741275,0.9518600189547975,0.5719794063245315,-0.054526088179677634,,,,,,
174,174,174,174,8.75,-7.55,-3.54,4.51,-0.196,0.398,-0.324,-7.5,6.18,5.78,,,,,150,8750000000.0,-6.222967240958983,-8.670850495164725,2.879392029254641,-0.6706165384738834,0.10990623081125828,-0.7878076226479942,-5.442724871973046,0.9373372707655676,3.633989944549045,,,,,,,,,,-0.7637953971927034,-0.3203835666441517,-0.9648435775847228,0.6563826481895424,0.2654060188269713,-0.07289613873656445,,,,,,
175,175,175,175,8.8,-5.35,-0.0431,0.469,0.6970000000000001,-0.0116,1.52,-5.12,9.69,1.61,,,,,150,8800000000.0,-5.8738752400427225,-3.8397869044091486,1.925482453341218,0.3359044670608804,0.06956633174794255,0.8222845232859273,-5.301359310744278,5.822606585293162,2.7401118205004265,,,,,,,,,,-1.325283748008241,-0.510700640969876,-0.06904628744775328,0.15736003648456334,-0.2792934997263226,-0.12038036022497915,,,,,,
176,176,176,176,8.85,1.2,2.91,5.67,1.46,0.511,2.36,2.42,12.6,6.44,,,,,150,8850000000.0,-3.045094396058018,-0.060279118455480514,3.4073705411174986,1.1632019957220014,0.2161216863095281,1.8951050820700177,-1.9191163820931416,9.605386358317112,4.374136331595828,,,,,,,,,,-2.108436318234971,-1.280315237945846,0.15550818641868358,-0.6285849870251285,0.0632683898258198,-0.20424040210222325,,,,,,
177,177,177,177,8.9,-0.29,-1.13,-1.55,1.47,-0.657,2.0,1.95,8.42,-1.61,,,,,150,8900000000.0,-1.943356245815821,-0.6592637069200976,1.4454974721051352,1.388995300966761,-0.07375349716796725,1.9682873019595168,-0.224299313131354,8.943766953320024,1.7312928613813192,,,,,,,,,,-1.3977645983093674,-1.2998311202377308,0.9685513334113708,-0.7498544558537854,-0.1080315596859424,-0.15594585624498966,,,,,,
178,178,178,178,8.95,-18.1,-38.3,-2.91,3.57,-0.112,4.01,-14.8,-29.2,-4.17,,,,,150,8950000000.0,-8.404256894335004,-21.735995937270626,-0.27818514802210403,2.9941432872159046,-0.08645128389708281,3.3927327118791704,-6.608999046984656,-12.346049947298999,-0.8749635145853256,,,,,,,,,,-0.92715939475523,2.3378035338243413,1.6250646800524131,-0.9855241439321816,0.7342319498877361,-0.08914277294852803,,,,,,
179,179,179,179,9.0,-11.3,-27.4,0.843,1.59,1.68,2.42,-6.15,-19.3,-0.927,,,,,150,9000000000.0,-9.562239306064203,-24.90752506018157,0.16552244653921688,1.960739834995721,0.5000080605127162,2.714084641639892,-6.407940414618479,-16.227373580991973,-0.8979449844576346,,,,,,,,,,-0.4600073437534036,2.693297936733748,0.4349170919068699,-1.140987065774759,0.7014441120460883,-0.3011747069099535,,,,,,
180,180,180,180,9.05,0.596,-3.96,-4.7,-0.657,-2.11,1.02,6.56,3.53,-6.81,,,,,150,9050000000.0,-5.500048267443961,-13.178068407442687,-1.7600017992249952,0.034169037802164404,-0.3665109394476895,1.5321696490135663,-0.7274996561417071,-5.199861341081848,-3.5089543162976486,,,,,,,,,,0.7966146360993227,0.4840771019247302,1.1215626260543194,-0.2349456160959019,-0.11329934099243745,-0.34583021757239385,,,,,,
181,181,181,181,9.1,7.36,-0.718,-5.75,-1.19,-0.136,-1.75,13.1,6.88,-8.08,,,,,150,9100000000.0,-0.3574274139967111,-6.201118520377298,-3.3390385135227394,-0.8667793272883807,-0.28998163159768603,-0.757707360367222,5.32946024934379,1.5424730944148868,-5.52771815075925,,,,,,,,,,1.998853727106269,-1.3313730551927916,0.9657561328723938,-0.42580564246716784,-0.5769888498582368,-0.2592420179561535,,,,,,
182,182,182,182,9.15,5.25,2.85,2.67,-0.757,-0.5920000000000001,-3.02,10.1,11.2,0.892,,,,,150,9150000000.0,1.8849337540423043,-1.132992280485694,-0.9609691326619982,-0.7859853588428422,-0.39025131108517386,-2.3360449889134682,7.4191344658833405,6.93278946277812,-2.69250363252024,,,,,,,,,,1.418511918713666,-2.5851998414097337,0.5950117608576571,-0.12493213062616908,-0.04840379781143765,-0.12974265719196268,,,,,,
183,183,183,183,9.2,-9.65,4.14,7.67,1.01,-5.61,-1.48,-6.44,13.1,5.15,,,,,150,9200000000.0,-2.7277851919062726,1.8195919867761088,2.4547259566910773,0.5358010436753476,-2.1232006379010424,-1.7388066054491091,1.3483174777916789,10.374997695146163,0.7710721567543932,,,,,,,,,,-0.5176512863314093,-2.34952006216343,2.2500203972763417,2.040165435810295,0.9089670654394351,0.1659027498835266,,,,,,
184,184,184,184,9.25,-1.39,-2.55,-0.6920000000000001,-0.696,6.12,3.05,2.6,6.04,-3.22,,,,,150,9250000000.0,-2.192816591136216,-0.6271380773163684,1.209413171823124,-0.3707641709547311,0.6135304355474855,1.6022083973234067,1.896600989138945,7.955433149426981,-0.9915512954118896,,,,,,,,,,-0.3791132430184224,-1.3741746255664842,-0.18281025316842267,-1.1370463905792054,-0.7348943969043598,-0.5090744952085652,,,,,,
185,185,185,185,9.3,2.68,-5.01,-10.9,0.972,-1.35,0.846,8.03,2.96,-12.9,,,,,150,9300000000.0,-0.2442198379513396,-3.0812987272089263,-3.5828715416989683,0.6174662883994997,-0.03835893758860076,1.074623180081714,4.583258025819329,5.167248797279028,-6.250817306738383,,,,,,,,,,1.1336403833610282,-1.2114523921061284,1.6634365142901817,-1.2979154442555971,-0.998665312210144,-0.265655149898543,,,,,,
186,186,186,186,9.35,7.86,-36.0,-13.9,-3.32,3.17,-3.84,13.0,-27.8,-15.7,,,,,150,9350000000.0,2.9965868314137256,-21.513952667829948,-7.665861858903715,-2.2803799073683444,1.0268117789409803,-2.3541704645976744,8.270104421318269,-13.233310884957044,-10.423969259195818,,,,,,,,,,4.938663786896165,-0.1681360051764942,-0.5172826455623057,-1.99303318976252,-0.7957448262045895,-0.19334132250615305,,,,,,
187,187,187,187,9.4,-9.79,-35.3,-16.5,0.0889,-3.18,-4.13,-6.74,-26.0,-17.4,,,,,150,9400000000.0,-2.1166573677734597,-29.233377061706328,-11.161960794802878,-0.5366674843578145,-0.3698438847794221,-3.5931166260110303,1.6951198598680683,-20.358995890912304,-13.504874375238845,,,,,,,,,,5.464350366374305,1.5540696380818244,1.6422971552882468,-0.3974916454885603,-0.5966988901348091,0.3311172900906791,,,,,,
188,188,188,188,9.45,-14.6,-15.2,13.8,-2.5,1.66,-1.48,-12.9,-5.55,14.1,,,,,150,9450000000.0,-7.1086370323434105,-21.375461150356667,-1.2832964762635903,-1.9816159210476367,0.3040614419886408,-2.118854886426276,-4.698085944215934,-12.093404267029856,-1.3134136898836264,,,,,,,,,,1.7655831136578397,1.067386329673058,-1.2974156358065425,0.5871862982079206,0.0978787884606836,-0.1305112286259879,,,,,,
189,189,189,189,9.5,-8.03,-8.32,7.82,-1.36,0.397,-1.84,-7.06,1.35,9.08,,,,,150,9500000000.0,-7.477081916072136,-14.065124055015293,2.3193215964525984,-1.52412697023925,0.3349169184945852,-1.9243057359458797,-5.7326922252205765,-4.59001293970553,3.2767499885775795,,,,,,,,,,0.02027121545628021,0.22715291858395,-1.7138070017375893,0.8631798408108098,0.3833572130795616,-0.1592160452089238,,,,,,
190,190,190,190,9.55,-6.73,-3.22,1.19,0.243,0.618,0.14300000000000002,-6.31,6.46,2.69,,,,,150,9550000000.0,-7.178330401073804,-7.992453797909198,1.8723940333403093,-0.2235793891393969,0.4289000969596844,-0.4820049417706571,-5.985574502484776,1.5775149982244976,3.017616817957532,,,,,,,,,,-0.8673963011863373,-0.06831596831651557,-0.9467624733487126,0.27325638066864,-0.16432412154839404,-0.1729523231433788,,,,,,
191,191,191,191,9.6,-4.48,2.81,2.93,0.545,0.239,1.62,-3.71,12.5,4.27,,,,,150,9600000000.0,-6.099291686808077,-1.9436765432529448,2.2909402762192426,0.3420698842649693,0.3658535272506873,0.9845045063716804,-4.988788152461262,7.673863621080503,3.5707213050781124,,,,,,,,,,-1.6361838054192648,-0.6678950153502701,-0.4098320462250583,-0.07712116754949899,-0.4463135176860935,-0.2572395645308874,,,,,,
192,192,192,192,9.65,0.816,1.52,1.19,1.34,0.00428,2.12,2.53,11.1,2.16,,,,,150,9650000000.0,-3.3339270436136377,-0.004209059302603846,1.85524458449978,1.0765137939945109,0.2458116206436269,1.7767075431162336,-1.6952789801500967,9.586150442030123,2.9476881475640875,,,,,,,,,,-1.6721449733866427,-1.1799420255352189,0.32568362801398376,-0.6817093050932026,-0.3189590492471361,-0.2527272839097191,,,,,,
193,193,193,193,9.7,-0.45,-1.78,-1.95,1.64,-1.99,1.74,2.21,7.66,-1.82,,,,,150,9700000000.0,-2.180669843235796,-0.9985538568738724,0.34932386004054083,1.4912211781522262,-0.4964747213273221,1.751097734299675,0.015378649155188384,8.511075903314438,0.8420787665107086,,,,,,,,,,-1.070564725161096,-1.2630982027791764,1.568701249833446,-0.3840031177171493,-0.10305220850299678,-0.11501404323357575,,,,,,
194,194,194,194,9.75,-20.6,-47.7,-7.93,3.28,3.03,3.64,-17.0,-38.7,-9.2,,,,,150,9750000000.0,-9.546398989745114,-27.148783849613967,-2.9272079616947133,2.807703791402825,0.6743099567624518,3.068931537531653,-7.43799079392961,-17.839629286125568,-3.5929207484233934,,,,,,,,,,0.045351230183592994,3.2986744966321546,1.0673643596882278,-1.7063776547613552,0.11553962202893373,-0.1789106067767428,,,,,,
195,195,195,195,9.8,-9.15,-20.6,-1.87,1.29,0.6629999999999999,2.61,-3.95,-12.4,-3.24,,,,,150,9800000000.0,-9.387882348971749,-23.48182693050439,-2.508819257080724,1.6907234743173984,0.6705550627801421,2.74874790009932,-5.910120966176912,-14.803518105611186,-3.437056273358623,,,,,,,,,,0.2523334271923251,2.688622663412152,0.6317333056902383,-1.4039616361022516,-0.13437541754730367,-0.37263753384538106,,,,,,
196,196,196,196,9.85,1.32,-2.35,-5.0,-0.6509999999999999,-2.31,0.8190000000000001,7.22,5.25,-6.89,,,,,150,9850000000.0,-5.105893851189785,-11.649171338380173,-3.4947008683197978,-0.03270833333046008,-0.3189850408025624,1.4024173292333162,-0.15863915390529115,-3.6107137697216967,-4.962019760256036,,,,,,,,,,1.2164100307321593,0.35024728676847744,1.3362332285738179,-0.36136514062715175,-0.6160085987076862,-0.3648198459074192,,,,,,
197,197,197,197,9.9,9.03,-0.335,-5.12,-1.03,0.00672,-1.44,14.7,7.38,-7.19,,,,,150,9900000000.0,0.5469263296891578,-5.313860506302554,-4.13791088767128,-0.7666823198338544,-0.2108514216748497,-0.5806569540417419,6.349997997077078,2.5237165765802176,-5.94598851351353,,,,,,,,,,2.136353600901006,-1.4969550963300893,1.096596346272282,-0.6955600145383432,-0.7586670314944306,-0.2837286802484306,,,,,,
198,198,198,198,9.95,5.46,3.71,6.51,-0.964,-1.21,-3.16,10.2,12.2,5.03,,,,,150,9950000000.0,2.5116215252185685,-0.2609971735153325,0.07598639688154574,-0.91190166088976,-0.542567368400914,-2.380191764365416,8.036442151771707,7.924501832898197,-1.0985354392784652,,,,,,,,,,1.1411310972013111,-2.910485809944408,0.5091083468219102,0.0738021959181909,0.2725166482442042,-0.1308435578943538,,,,,,
199,199,199,199,10.0,-11.9,4.87,16.8,1.74,-6.94,-0.856,-8.82,13.8,14.3,,,,,150,10000000000.0,-3.2514596946235725,2.6120776898127698,6.694493212223005,1.0398111245955568,-2.666506095835719,-1.3168062486404182,0.6526929464731309,11.203891671068515,5.70209826762602,,,,,,,,,,-2.0052968963255178,-2.6337955255322205,2.283684643386572,2.722645814175163,2.1387323368805133,0.20499640782761733,,,,,,
200,200,200,200,10.0,-1.51,-2.86,1.4,-0.853,7.18,2.56,2.47,5.67,-1.36,,,,,150,10000000000.0,-2.5550651935433497,-0.4519834231394335,4.599204246497749,-0.3532358668254054,0.6025201338297088,1.3879318718359883,1.4487411187760588,8.115168509868994,2.5831819776923157,2.31837859139238,1.1126328191384098,2.2726928434682367,2.051202880152804,3.2887705431523484,2.1167730273896948,3.033762656335591,2.451880677788046,3.4305720949057217,-1.3263596122621182,-1.5900939025535519,-0.7861515682293173,-0.8382090113211677,0.060995900994223674,-0.5151041958789012,2.773999974503036,2.0566236990449758,2.8817901231879226,1.962575431446779,2.5476855089865813,2.7785337741653082
201,201,201,201,10.1,4.06,-7.66,-11.8,-0.397,-1.18,0.568,9.26,0.385,-13.9,,,,,150,10100000000.0,0.0902414846516404,-4.488074374781818,-1.8907600564021907,-0.38544484654180855,0.010725953660420284,0.8158885892603822,4.8703634736903165,3.8006006986004497,-4.696476494624509,2.440983422783465,1.0142046002022786,2.0568549308924555,2.4089795624080645,3.3743470688625443,2.354532974625553,3.379396519342612,2.142566291951003,3.14434640955827,1.1635544062460947,-1.3551673706647491,0.9032782193695128,-1.033026248417359,-0.613763085655943,-0.3173064656569459,2.685627641683564,1.8693635839408078,2.583302379203225,1.9871122976807196,2.6481987761489427,2.766605133173485
202,202,202,202,10.1,5.86,-36.6,-7.27,-3.16,2.63,-4.72,10.5,-28.0,-8.57,,,,,150,10100000000.0,2.397517493409746,-22.468977673049242,-4.019587416321872,-2.42742664207515,0.8803213208103504,-3.046344287829111,7.336353900706405,-13.94879865909082,-6.4071854264797325,2.3510898105797904,0.9490693704829116,2.4887286151956105,2.67177666063062,3.395112807953593,2.880752192833792,3.1407071639375164,2.7890742297609528,3.489316981138975,4.061239724470179,-0.343169429323579,-1.2013932962466487,-1.3878628101884276,0.18678854089016853,-0.14161442504946348,3.0439987476464987,1.9466796797655481,2.749684530370869,2.174825202731732,2.764191641645564,2.8220386309138727
203,203,203,203,10.2,-9.68,-31.4,-14.0,-1.62,-1.3,-3.54,-7.29,-22.0,-15.0,,,,,150,10200000000.0,-2.432176217871904,-27.46985651978589,-7.9693230052767525,-1.833187078464328,0.15645769996495373,-3.3907539007927427,0.9294662732977486,-18.4425498703774,-10.202129688060236,2.518408087837935,0.8723290822068785,2.3911303524587457,3.2578015581099056,3.4679368335560112,3.2417438615032648,2.8785610803142307,2.4485313873639525,3.1550812731574536,4.785817468690813,1.2128621165845976,0.09986515735858127,-0.3410164094342403,-0.4743972699336872,0.1396695187638937,3.0724187715082505,2.0374359845523453,2.910692786981341,2.233778425583209,2.7647899466778996,2.9193214517635497
204,204,204,204,10.2,-16.4,-13.8,13.5,-2.02,2.8,-0.779,-15.2,-4.1,14.0,,,,,150,10200000000.0,-8.017786602677388,-19.81549224085024,0.5271342737927922,-1.9706752569647128,1.0341100396592462,-1.568607001891289,-6.135840477252628,-10.437303379519443,0.4865372663931264,2.4514051378197816,1.059377197152683,2.5506600404254973,3.5392029589287994,3.577603077577277,3.3583616134589684,2.381902111578876,2.456299412173211,3.1118922985161115,0.9334847988705456,1.1455181137703383,-2.2717709728804167,0.06974228438017382,-0.07630408173904944,-0.2669468458141525,3.0586203795445313,2.223980471542663,3.3664272948690037,2.0820957998823424,2.824972930628937,2.9846448869670215
205,205,205,205,10.3,-8.78,-4.75,5.57,-0.87,0.735,-0.888,-7.85,4.93,6.8,,,,,150,10300000000.0,-8.322588965499607,-11.379648960780324,2.52284204039476,-1.1606143160425026,0.9348059285391852,-1.0937667387387475,-6.886706135904528,-1.8600942798496003,3.274825049218681,2.4592378483787325,0.8695037554195962,2.445218002127896,2.9999740423633314,3.51790862163853,2.9718204112206115,2.135447822910373,2.0458935381955268,2.8247251231060733,-0.5497988746001167,0.3333556903278444,-2.071213119802836,0.2336503328568783,-0.17161769772146065,-0.28432494239269124,2.499185302492302,1.9551389068434841,3.413211116394144,2.1444169156550625,2.7469715481457424,2.973787233382906
206,206,206,206,10.3,-6.57,-1.92,1.69,-0.028999999999999998,-0.541,0.408,-5.97,7.74,3.22,,,,,150,10300000000.0,-7.6217440388165345,-6.082768168311608,2.1932458845906475,-0.3277832367016894,0.4448404163564299,-0.04602653065603191,-6.485154621459826,3.4981662384657715,3.2506120401319696,2.3868213628546813,0.7691118764199067,2.490327748628017,2.6453979320759817,3.5392084617703317,2.602352690406087,2.136217122267363,2.762970425396992,3.0900432350894054,-1.12621895359589,-0.15716231922086465,-0.9735642126121788,0.3136423629146857,-0.35077638000462225,-0.2341769567250289,2.4466928922763853,2.108234753099113,3.4407171523682942,2.255296965537397,2.7005505331748174,3.0227913979243755
207,207,207,207,10.4,-2.51,2.62,3.11,0.331,0.76,1.44,-1.51,12.3,4.6,,,,,150,10400000000.0,-5.577602312368024,-1.2096988897528806,2.556050118508898,0.15705965198378152,0.5494729552711712,0.9907322243125452,-4.3058516352678184,8.41088054155709,3.84655783754431,2.2639685193987606,0.8307263637485381,2.59515475503457,2.1553255403102622,3.666800521102264,2.294904325935469,2.4025220775168097,2.545499802823245,3.2569478676674772,-1.6541047962150734,-0.845643504088622,-0.6806947493838871,-0.2588754459591871,-0.4941472241980258,-0.3113467135848835,2.5307803993980715,2.0368269351199384,3.168587176231359,2.2859520381582703,2.958073427820899,2.946969269812979
208,208,208,208,10.4,1.98,1.95,2.35,1.77,-1.07,1.53,3.78,11.5,3.46,,,,,150,10400000000.0,-2.5553832553358378,0.5595579405114497,2.474506008379618,1.3441309138364628,0.011810176083190349,1.3669640916396468,-0.7639475419744229,10.135062277970995,3.675837837707152,2.35071854582384,1.007805817208172,2.6963055656727986,2.109382541028778,3.531677109558401,2.0579705512146242,3.06165921794425,2.2863388170944874,3.3748352378418165,-1.8100560179756324,-1.480204804613038,0.5343672673314384,-0.5154062281344146,0.04462100239115558,-0.1774835310823485,2.7493982047577314,2.12976515908143,2.903610384020798,2.1260641936353677,2.897130825241529,2.9826812443775017
209,209,209,209,10.5,-1.53,-2.73,1.95,1.52,-1.38,1.55,0.953,6.75,2.04,,,,,150,10500000000.0,-2.145341450329544,-1.282412767390157,2.266933441393004,1.4735647878895015,-0.4502688590365488,1.494663039005644,-0.011860581341671115,8.2457010425712,2.9533838028000052,2.451964115896299,0.8572934209728853,2.591132530178017,2.4448386656213312,3.4753460191311984,2.4233049170302805,3.3507017751397634,2.035115614911604,3.1703052417743027,-1.5508672579617269,-1.4005997438433022,1.1385934992202416,-0.26757279622528835,0.3879825977377503,-0.11157224866752656,2.7123108802779026,1.9943008303506853,2.610740302536818,2.1964947135095727,2.6777788720809337,2.957309030720066
210,210,210,210,10.5,-19.9,-63.4,-3.93,2.38,3.03,3.96,-16.2,-54.4,-5.12,,,,,150,10500000000.0,-9.245273930740137,-36.06483044914194,-0.18549511447212108,2.1406715044675093,0.7051755372358945,3.2146589924159787,-7.102868772092964,-26.719789184143373,-0.6121581785306014,2.409598222038696,0.8074101800201497,2.7120464650232377,2.7852433435039354,3.459656979636921,2.8380038129555207,3.197676864774689,2.902764210077794,3.2892935475102503,0.01810327022953552,3.8924590757050814,0.18673849824850527,-1.6201737262618066,1.4434653722682624,-0.20569280068795615,3.0650421835910775,2.1856411027283116,2.7199664180197165,2.2527399588956243,2.706544701336716,2.963455561660846
211,211,211,211,10.6,-6.2,-14.7,-3.4,1.17,0.444,2.48,-1.07,-6.44,-4.71,,,,,150,10600000000.0,-8.027495450186867,-24.10170570672297,-1.4576313731152333,1.426289032952551,0.6184656251472392,2.7021081883166644,-4.460247629404145,-15.400692431377893,-2.4219355590338365,2.4057723760864564,0.8295968233978278,2.6871938285838675,3.3209811300347987,3.67296776327901,3.2559529898937414,2.829692137987716,2.482297120472932,3.094597040148813,0.23674703199583635,2.4056376466407206,0.4375823636587869,-1.4228571746577845,0.2873459330209834,-0.3675315531265539,3.1084356859767786,2.1693059483076294,2.9786502518560347,2.3494468080398776,2.8654976697166585,3.0854001221803853
212,212,212,212,10.6,2.13,-2.32,-4.46,-1.06,-2.46,0.429,7.92,5.43,-6.1,,,,,150,10600000000.0,-3.9656018335531993,-11.90515392201323,-2.645814954506667,-0.4035382326892738,-0.40358068020518656,1.1162248369762386,0.9627618639551015,-3.774110930005536,-4.046321732228714,2.2965605717169018,1.0145900674125063,2.7815734504061376,3.5713842618094938,3.5264587597682326,3.2846373306472922,2.298615378893282,2.397240788230945,2.939895678118794,1.2668672209718852,0.040064722225405816,1.1224810582512306,-0.245974083715277,-0.282687550929048,-0.3435882561693522,2.813445643439174,2.391138913720074,3.210542737918907,2.021473654928169,2.907292554200618,2.9676701120652202
213,213,213,213,10.7,8.25,-0.5870000000000001,-5.1,-1.08,0.363,-1.9,13.7,7.4,-6.88,,,,,150,10700000000.0,0.9193104753271948,-5.567613065410048,-3.617055527791402,-0.9013919723788104,-0.1490769620365739,-0.9881099760630784,6.54214637536517,2.4626819197991727,-5.297791948853607,2.3368221815025745,0.8153356853319734,2.744749599827605,2.7932348006252083,3.5442273819231724,2.926899014279314,2.116606872461339,2.1116357488066204,2.819365015646365,2.114166361195402,-1.6219667546430618,0.8323891562692668,-0.6568725827617237,-0.6082401187030919,-0.2569292533659558,2.512478764901718,2.0967730217355887,3.300164819043649,2.245264270766342,2.832510737968048,2.887885125531398
214,214,214,214,10.7,3.08,3.04,6.54,0.273,-2.5,-3.12,7.4,11.7,5.12,,,,,150,10700000000.0,1.783351283620614,-0.7478253443961957,0.4025862665815283,-0.03707793805905102,-0.9295801307960648,-2.4754693183057843,6.917918248277262,7.618460131916183,-0.6968618342697228,2.354111691266864,0.6774978010607062,2.8485744635287897,2.3401535988347284,3.690686045391463,2.4868163616111025,2.2776944172537834,2.87290826177268,3.0902341871572228,0.7516898082936451,-2.7383984175008655,1.1304266632903468,0.38158587707849617,0.6066492721485421,0.01637884350851807,2.4687211645550717,2.2403600804312913,3.4266094611881184,2.233915168300011,2.7447258499737925,2.901393124171039
215,215,215,215,10.8,-12.5,1.66,6.68,1.34,-2.34,0.0685,-9.68,10.7,4.1,,,,,150,10800000000.0,-3.9284359412848495,0.6004237964087575,2.886864701323603,0.9764063526434752,-1.3978375311563649,-0.7006138198915284,-0.3525881280976977,9.338411238759422,1.4216317947839603,2.1994654738825483,0.8635943628504138,2.8821500390637143,1.9475746725668368,3.7341930797500944,2.179003445668953,2.4249546302304994,2.547348478311626,3.3131681364660577,-1.0853591390403787,-1.7683131721332297,1.6741260513587015,1.2655477280872267,0.6581749881618945,0.036602697907260916,2.626641482056925,2.176125736626232,3.185562766645982,2.303346283945823,3.044657288064117,2.823213209614308
216,216,216,216,10.8,1.24,-5.06,20.0,0.629,6.18,2.99,5.4,3.53,17.7,,,,,150,10800000000.0,-1.8616236189905704,-2.569100756735546,9.659366234809509,0.7207266598579554,1.117993900124162,1.874223151454696,2.167259720574965,6.0964658366779165,8.610836493086197,2.4399983270626158,0.9874198876608152,2.886546421374562,1.9750992467808992,3.5905291418805096,2.004572399555588,3.2808389477093014,2.2110141567461623,3.3461277542268126,-3.0735770481657245,-1.6473001914825114,-1.7581074303456306,-1.4706319712360811,1.4905934325872714,-0.5779868249084565,2.7636916623431786,2.278021633264806,2.743750574968732,2.285508464930779,2.8654589358025944,2.775855934509249
217,217,217,217,10.9,6.36,-13.0,-13.0,-1.33,-1.28,0.66,6.49,2.98,18.0,,,,,150,10900000000.0,1.4261317953419637,-8.409828021377034,0.6919508609045621,-0.7885410365929044,0.3218632802958573,1.0270939911581776,4.060780826831228,4.357020820983943,12.75748156109519,2.4956865917391498,0.7666586314590638,2.9024012012524927,2.2916061533597283,3.56754832068454,2.4920460550098067,3.299731816807741,1.9988638144360016,3.408743051801065,-1.0748562379283444,-1.851171109962472,-1.2450089197101948,-0.4950730864373626,0.9882028222277784,-0.6420730053056225,2.7798864609746867,1.938155994698962,2.659326030595158,2.341470512772559,2.8824272236955997,2.9005658333832285
218,218,218,218,10.9,0.7020000000000001,-29.8,-5.5,-1.34,1.31,-5.01,5.24,-21.2,-6.57,,,,,150,10900000000.0,1.1365578339957998,-20.38714208617025,-1.7585058186490057,-1.1943967991576043,0.6499232736608724,-3.18481603673756,4.5773226345265465,-9.907545650119095,4.221661863722368,2.4557998071061715,0.7649160982054272,3.0252302851550663,2.7474912171752925,3.5465957386538864,2.78727574942069,2.77610871946564,3.1522119329214844,3.2813048994252787,1.7604481316401184,-0.6775026189605738,-1.6053300562018786,-0.6172976270348166,1.1585538260497086,-0.16005640653545405,3.2269273078166565,2.071300545555971,2.8192232497369205,2.3414058736978376,2.743654070743272,3.0400153699439914
219,219,219,219,11.0,-8.63,-26.6,-9.03,-2.38,-1.7,-3.32,-6.27,-17.2,-10.1,,,,,150,11000000000.0,-2.76900324991806,-23.865999468494376,-4.6361902888518065,-2.0669620133045044,-0.13024799057589942,-3.279130021006744,-0.17420858839541076,-13.977805181448725,-2.1033797729459383,2.5353693260613057,0.8752060905962334,3.0427253894130515,3.3866227004703284,3.71415318572544,3.04529915721381,2.519025997294265,2.4081182523746287,3.0716405730424152,3.12623380488986,0.4951561655173648,-0.601090725044752,0.5306917187946529,0.3359307998809252,0.042293220146306716,3.1539766823094775,2.1347195901756066,3.039477284517122,2.3899019382099667,2.7926581352416537,3.1078221345181984
220,220,220,220,11.0,-12.1,-14.0,12.0,-1.76,1.79,-1.4,-10.9,-4.26,12.3,,,,,150,11000000000.0,-6.5003873735266495,-18.341584866773104,1.9475608634765733,-1.8410480168246328,0.5072716506340729,-1.968114093286879,-4.8725044515256375,-8.553844715480203,4.2577518065687805,2.3612058977601382,0.9896648048295944,3.1233573328825,3.5186866373353207,3.834749699936928,3.163860806486396,1.9082675793133328,2.196839391542325,3.0753683927514124,0.37454361253915996,0.4588007506789579,-2.1066972127138293,0.6356727729858438,0.7004774300010158,-0.1822590751806203,2.7494245035697475,2.2659807373388605,3.66377765930074,2.158792753636704,2.7458519602616898,3.230105538813881
221,221,221,221,11.1,-8.63,-4.71,5.25,-0.4320000000000001,1.63,-1.08,-8.19,5.03,6.3,,,,,150,11100000000.0,-7.352000878369798,-10.70865051355884,3.254496952392941,-0.8040348279129865,0.8800158946879364,-1.3485020186139458,-6.325690850186125,-0.9720669158392816,5.159693623176381,2.366125552765311,0.7288190691436645,3.128938996109582,2.633369844234288,3.600227890635824,2.771084017609033,1.744931581657036,2.043987771629514,3.0575562666375684,-0.9279534315348199,0.030542614065600594,-2.0959945760570924,0.24162773867740775,0.18526282030292535,-0.21230277592673996,2.5646593201550743,2.0264560432203367,3.69074957392516,2.285540068505539,2.6300749220881947,3.17873533360277
222,222,222,222,11.1,-5.8,-1.7,2.38,0.287,-0.35,0.8270000000000001,-5.55,8.05,3.49,,,,,150,11100000000.0,-6.731369380575348,-5.664303984410022,2.908415940778621,-0.0010689232096912082,0.4716523356630626,0.1692842749769703,-5.985909457267938,4.063569788769328,4.422287486518238,2.4034361503034343,0.5823746851657329,3.0724597367848565,2.2215618708534004,3.8747676762684384,2.251272600583785,2.0168975187678693,2.9038714339069758,3.2621401828488668,-1.4734362261241258,-0.33365769282570235,-0.9731920010556852,0.13976332530971916,-0.10135165336903244,-0.19678067210784989,2.5709376500419783,2.0499511181233325,3.635899825545789,2.403197354831487,2.521446628640135,3.2329073163506092
223,223,223,223,11.2,-2.49,3.15,4.92,0.7240000000000001,0.174,2.17,-1.54,12.9,5.77,,,,,150,11200000000.0,-5.035282873385368,-0.7287806937560237,3.704497804489893,0.532558043014766,0.3728321738245219,1.565127148948311,-4.038435547747193,8.995593665649919,5.0174933708248695,2.372081038634781,0.8877656408218222,2.9958480265117053,1.997910741569925,3.7790159498928535,2.109296499980934,2.3396118379418263,2.437449169788332,3.3025238373754813,-2.143192221245123,-0.9781239001074584,-0.4491665214755796,-0.2685054701130666,-0.1278993639732538,-0.2802877143013127,2.613524531151728,2.2022168537491176,3.144443631828583,2.3259172033731885,2.706925856916953,3.218315419054216
224,224,224,224,11.2,1.33,0.809,-1.69,2.01,-0.136,2.12,3.33,10.4,-1.45,,,,,150,11200000000.0,-2.4898619198359144,0.13229154025892256,1.5696321353307463,1.6199069333617402,0.2039005995482575,1.9522461764730081,-0.8107864358070063,9.779458170419773,2.1611793161711983,2.417539437993024,0.9386956181774648,3.0352405756059646,2.150234995406125,3.457214792830208,1.9730207663349435,3.179411343968237,2.1251158051200467,3.3413013082564045,-1.6641679635139754,-1.2418824977065892,0.7236311522673518,-0.9559159411563678,-0.2656099092803166,-0.19751060669491424,2.531237373765325,2.173254077288041,2.722184038188036,2.228322193929806,2.7107660435678356,3.249678361871091
225,225,225,225,11.3,-3.64,-4.82,4.79,1.64,-1.89,2.28,-0.649,4.49,4.07,,,,,150,11300000000.0,-2.9497921184218883,-2.6407182022087463,2.8440886076755723,1.6346947618756524,-0.491271473487955,2.180910736802107,-0.7399179477435678,6.827164583109312,3.0041939873186987,2.418045843503826,0.7331469846110772,3.0746126081312104,2.38068371277407,3.5297495823116347,2.356471810816174,3.1139037617323297,2.22358106653343,3.488664104454063,-1.7802861901175184,-1.069756956826613,1.240013086509264,-0.2982160497856618,0.5308142902916295,-0.15123297692305882,2.678596436698477,1.885958775885081,2.69896168490532,2.446886289121214,2.760965242405647,3.289332751563792
226,226,226,226,11.3,-24.4,-72.8,-2.87,0.94,3.26,2.88,-19.9,-64.2,-4.67,,,,,150,11300000000.0,-11.527542447309248,-41.92604138785047,0.5827453524803077,1.1234221651064158,0.7541454190307206,2.6686456391824747,-9.132747175739686,-32.816409046576474,-0.3850492547859576,2.5121678298398065,0.6729323216435543,3.094364898939037,2.880289947589242,3.4786051047292035,2.7352132182377438,2.8768171505589133,3.0830786347754437,3.2281845763713366,0.4247963458409159,4.665210059435807,-0.5805309173375373,-1.1079750188626936,1.7472858506060798,-0.25974210702819744,3.079144964433112,2.1947991733085073,2.8546397271304658,2.417366669469039,2.6427155654791106,3.3108428095680678
227,227,227,227,11.4,-3.61,-9.65,-3.3,0.262,-0.632,2.25,1.97,-1.74,-4.88,,,,,150,11400000000.0,-8.361386444814391,-23.853241261964282,-0.9538461646161503,0.4894436572340983,0.29394706410936794,2.3765684077299234,-4.2693304717390665,-15.4712148526297,-2.3702064841180532,2.4433612499310096,0.9081511987733806,3.1696715120156225,3.5540999525637478,3.613323437881217,3.1765921713649243,2.3696602354828737,2.4071522848145865,3.0474056141128965,0.5225237645800971,2.223000063644801,0.31205498099196194,-0.8050967197585229,0.39039878113258014,-0.4099687325545873,3.0541904747627404,2.383427613579376,3.103435901164854,2.368756501537602,2.7774948841762384,3.3200517154544276
228,228,228,228,11.4,2.5,-0.927,-3.73,-1.31,-2.99,-0.458,8.42,6.65,-5.65,,,,,150,11400000000.0,-4.018013022962477,-11.015812832029274,-2.052505522376228,-0.8348879045547346,-0.7963187828065112,0.3989701321027888,1.2890688157553405,-3.124332411298619,-3.81869973829986,2.3406005806788617,0.9691107571372652,3.1056897033353352,3.3627913451936298,3.7291616548048094,2.9823612907223684,1.8635648074870883,2.150147187081884,2.9755194516535406,1.3980879782662787,-0.2656328882163881,1.2029957860307572,0.3735135453963573,-0.058606002132880065,-0.2969546800006119,2.6455931686536323,2.3789113137735796,3.6405639230080595,1.9193326762791079,2.6374518831197022,3.1922986165708083
229,229,229,229,11.5,6.31,-0.218,-1.75,-1.09,0.5529999999999999,-2.48,11.5,7.88,-3.74,,,,,150,11500000000.0,0.11206901065882402,-4.969634226873132,-1.932789346560133,-1.022642077007833,-0.3483468382558185,-1.6096059821311026,5.761836894758358,3.0176991344381427,-3.783942665224189,2.392715597766994,0.7003684158809393,3.1935993530782034,2.4168383542550766,3.6371546608194847,2.6190214056820573,1.8095008445723968,2.2331268291463933,3.162940913766324,1.7257386625700368,-1.7712990462020486,0.6181164930661257,-0.12477163980905258,-0.22957537837117314,-0.217349196566934,2.6276486443859803,2.179068140977342,3.8569847284195418,2.1533340786118016,2.6516706387091036,3.09190800935284
230,230,230,230,11.5,1.04,3.22,6.45,0.606,-5.1,-3.25,4.9,12.0,4.46,,,,,150,11500000000.0,0.483140480328785,-0.3838915245523279,1.3846888023508193,0.17598516178521414,-1.9258890271169158,-2.7540625305525697,5.384320284757719,8.031140444080132,-0.14307472989528502,2.13240171492396,0.5610038326118404,3.231216877397663,2.0201805634300487,3.8040999732330114,2.2413632947577464,1.7532189984200075,2.8233196507759915,3.4003313131639112,0.4536190191029874,-2.765366552111772,2.016400824899637,1.5549378305431394,1.1318582168689415,0.19285761179858188,2.5663287146768994,2.054135372693003,3.5924163771214666,2.313468931891805,2.653862541352033,3.1895946238933512
231,231,231,231,11.6,-5.74,-3.67,1.0,0.83,2.62,1.42,-3.27,5.34,-1.98,,,,,150,11600000000.0,-2.0054388650361266,-2.2239307546429155,1.2324486979885705,0.6573186528806426,-0.4166602502166271,0.1580629072753874,1.5934057509737185,6.529089454100824,-0.954337329067498,1.9777751830006751,0.9498598214597684,3.1371048228767133,1.6987956033660585,3.803376857476339,1.8648862002547528,2.0344799870850503,2.3732098471885603,3.355768588277112,-0.33195202314801825,-1.4558515773121672,1.0269736704508166,-0.17400680457219614,0.09202687568362417,-0.11397542447190352,2.7532270877476606,2.222648879535493,3.1997073769862094,2.301028797527344,2.676419324960417,3.1376938325388
232,232,232,232,11.6,6.71,-1.99,27.1,1.5,4.46,1.93,10.8,6.65,24.9,,,,,150,11600000000.0,1.4797889080657778,-2.0929424621558796,11.469499383694995,1.2775045283992958,1.2023841619427202,1.3942933049971369,5.626236937812872,6.596575325791607,10.464013060874565,2.1306346938744274,0.956212576159002,3.0303906923843162,2.0888215433796598,3.5080658558002566,1.9194817146613576,3.0839906278307123,2.1420824076793004,3.3674378327931285,-3.3978313778985334,-2.381047293428056,-1.883493872197632,-1.9460721377934864,2.291583082436309,-0.4754551160446932,2.6153025000521604,2.26742024815832,2.7651630258851054,1.9411521303295602,2.4820296175544465,3.173894357636859
233,233,233,233,11.7,4.98,-14.3,-11.5,-1.1,-2.42,0.397,9.55,-5.91,-13.8,,,,,150,11700000000.0,2.879492710859753,-8.928220345067382,2.3793492104821627,-0.472260964003868,-0.000242351453222156,0.6985099601112872,7.344991350173823,-0.38392794992007495,-0.25198424876892034,2.1218662929584866,0.7391313837722605,3.048746151670993,2.5226258716550527,3.5451052841282813,2.2991961133778216,2.630482994725161,2.4172997084851544,3.341987885171976,0.5394727920630374,-1.698558931578294,0.14911522597786542,-1.1619888152204427,1.032523434323962,-0.23907865702741865,2.732112993623337,1.9862274119024073,2.7398316443410295,2.331656454724697,2.7366698594134293,3.2025673391955083
234,234,234,234,11.7,-1.03,-32.6,2.32,-1.2,1.06,-4.64,2.7,-23.7,0.6459999999999999,,,,,150,11700000000.0,1.3161207881975072,-22.183108221602765,2.3558618094828865,-1.0078530977374298,0.3517566110557233,-3.026017478606459,5.310312196025622,-13.397716328750992,0.144602951810492,2.380600328030749,0.6228894680322846,3.1459637075045346,3.0621384255684467,3.35198509985609,2.6599250003859893,2.6149675633568954,2.8868099614903415,3.255520659293893,1.7624364149538667,-0.5379187980010155,-1.2357770172964873,-0.6649311011113667,1.9854148070319693,0.055655962148961964,3.2599429400328424,2.1366604565526295,2.8798244298665017,2.0167615607752225,2.6167601352501677,3.217658335093635
235,235,235,235,11.8,-6.07,-22.6,-4.83,-2.91,-2.95,-3.08,-4.17,-13.0,-6.01,,,,,150,11800000000.0,-1.6375243684897294,-22.41654479766045,-0.4879338339258257,-2.4077709898427315,-0.7444219932644462,-3.063679504998323,1.1575824062059432,-13.17573228458208,-2.573525761783397,2.3364697135985963,0.94313709403852,3.1418799720939528,3.5772129199761653,3.547655961041504,3.0365641457932915,2.0790201202964016,2.2669872949076626,3.0098610383416133,2.7472491254462965,-0.07352667824693274,-0.33052131076453395,1.0268704463214806,1.233565089707883,0.17365863122541333,2.990277128821745,2.239916050670078,3.3228563390259644,1.9815728178422807,2.720127772324698,3.3210077036488013
236,236,236,236,11.8,-11.9,-14.1,13.5,-2.3,1.48,-1.89,-11.4,-4.31,13.8,,,,,150,11800000000.0,-5.7413984429381415,-17.759739417183475,5.047773193873406,-2.3284550354877736,-0.0059169885271836975,-2.244836472785844,-4.3431061222181295,-8.227353308207014,4.657704218068568,2.137670452488896,0.9548905356673346,3.09664925131827,3.1497352451090066,3.60176321496992,2.6652834658708056,1.6583861097183814,2.0306727077719744,3.0250246012372357,0.14422424281313684,0.008982455361946364,-2.0809023606268364,1.2518185037801122,1.444044470060018,-0.04424621701651624,2.664094534766484,2.2260281225934704,3.5779479407389894,1.473612276229505,2.7007301367704426,3.2484767086378405
237,237,237,237,11.9,-8.34,-6.36,5.32,-0.695,1.01,-0.767,-8.67,3.38,6.37,,,,,150,11900000000.0,-6.7805565335758535,-11.376515258736632,5.155506674170723,-1.1262856161654244,0.33136603116090857,-1.2137917433015155,-6.238446792898903,-1.7487476574178482,5.413925193381688,2.120302325971484,0.671969809933376,3.168017598974437,2.573273625915056,3.317940208294357,2.443667687531702,1.6090088981775097,2.3587492178992497,3.122654282348772,-1.0317079741341293,-0.14466096006344056,-1.8304435939392407,0.7799277084295414,0.7962842375155788,-0.07841855299222114,2.6581560094478003,2.1772059265340182,3.6849436177858528,1.9739084338094577,2.65083778715203,3.148884635101159
238,238,238,238,11.9,-5.78,-0.122,5.02,0.875,0.452,1.4,-6.01,9.63,6.05,,,,,150,11900000000.0,-6.380442812754103,-5.0746085313309015,5.101880072628866,0.3465950596289127,0.3714163379032581,0.6097768731164015,-6.1383786912873575,4.602262510828738,5.694842364407219,2.035931628273968,0.5272415265811989,3.195272419888352,2.0190267707247758,3.5181165621177097,2.1193387117955096,1.7722429346551347,2.6038545034551697,3.4764927843252766,-2.138788572152824,-0.4737632650146605,-0.9545174523033132,0.13852018804998376,0.3857544679679854,-0.13053025888723466,2.663103794347202,2.031199011743365,3.397507594538134,1.9218490104687165,2.7543177649432176,3.343431119836129
239,239,239,239,12.0,-0.328,2.63,4.99,1.4,-0.111,2.51,0.388,12.4,5.5,,,,,150,12000000000.0,-3.960123883452485,-0.7604533725788709,5.057603585572358,1.1218665814996818,0.2112547862781816,1.935508841424073,-3.279581799373752,8.954543504595446,5.608791873454168,1.9306838806828093,0.9729292597639524,3.1102819202324903,1.7080721955114313,3.5593097461044696,1.6743482713501183,2.0805623683277967,2.1609764796700444,3.2736288058437966,-2.556199086048434,-1.1334995067987723,-0.13989160945345142,-0.4131740464823262,0.3668145826106688,-0.18146182443547465,2.7296908364187127,2.2190982331383755,2.8455934281466124,1.7744009832036038,2.783276048595737,3.2822152501149873
240,240,240,240,12.0,2.61,0.0359,-1.09,2.11,-0.0293,1.89,4.47,9.66,-1.44,,,,,150,12000000000.0,-1.3327888610761902,-0.31453948252437963,2.624697270630229,1.8491003411131737,0.1313909326669764,1.903758598870701,0.11502350488299973,9.348291612587015,2.4957522216012005,1.9391435374441683,0.941809159808034,3.0012716267904924,2.0791398094776814,3.3798567620015727,1.9279358463735496,3.3011140731750785,2.0315720896407146,3.3668519865581565,-1.7999162584965285,-1.4249826951978055,0.7881586318453535,-1.0603450990197865,0.1399067182474784,-0.10962155221273752,2.581281580036029,2.1899865543894497,2.561915526363943,1.67962057261037,2.4988367181786115,3.269134794615989
241,241,241,241,12.1,-14.7,-19.2,5.62,2.9,-1.78,2.36,-12.0,-9.89,4.13,,,,,150,12100000000.0,-6.67821958040863,-10.889354369848556,3.8100844716785938,2.62252814558812,-0.5031881808401703,2.22206525778152,-5.191807912473223,-1.389496963222186,3.2175040538872035,1.8242051387683311,0.7046481964127842,3.111808140040764,2.5889614018392098,3.3932628674051886,2.2225769927126207,2.422894515604152,2.5589118844163843,3.3404429574953274,-2.173472162283425,0.4683406069976774,1.2795381853220675,-0.1060548382382399,1.153688107772336,-0.009677484753589332,2.9261701171315306,2.002848913201158,2.6626794844228616,1.9450449534342784,2.7264908720785153,3.4413408634401317
242,242,242,242,12.1,-13.7,-46.0,4.24,1.34,2.29,3.89,-8.99,-37.7,2.07,,,,,150,12100000000.0,-9.486168066088515,-30.5493760447403,3.9802229047539615,1.6786294549775105,0.42414638567208063,3.385736264464283,-6.8555573782897365,-21.656083715104273,2.7107185134195877,2.1777697482871865,0.6278835879495034,3.1442732412858616,3.239525337230235,3.2929859759904136,2.634251675729309,2.5245956610833655,2.7277041557168857,3.1346518984312826,-1.1490122939458398,3.0452044321062433,-0.22155508904888324,-0.9869934809463136,1.9905361413911704,-0.29997202101934634,3.368663955228323,2.2028034551501094,2.9213898594477237,2.0608729767066842,2.7386063518934156,3.5367089495576867
243,243,243,243,12.2,-3.08,-6.88,-3.7,-0.281,-1.18,1.54,2.74,0.604,-6.21,,,,,150,12200000000.0,-6.924397468300536,-17.295833266784847,0.9407844374544698,0.2364063582677398,-0.10842795896352676,2.0980182069899342,-2.652345936542397,-9.231692149396302,-1.2290417812766417,1.8426011648571123,0.995447333592808,3.0256447465144856,3.8909398995179743,3.4849593311550966,3.2067162217388523,1.8698559485937245,2.1753253305126323,2.921914598906102,0.036452437947391336,1.108224879678252,0.4811430551964764,-0.3446954655755603,0.5618499380397881,-0.3716917915187616,2.7663054066852184,2.278901623280445,3.2390749970015116,2.205530100417409,2.759265490519853,3.74292260042667
244,244,244,244,12.2,4.08,-1.54,-4.53,-0.928,-2.32,-0.6609999999999999,9.92,5.82,-7.33,,,,,150,12200000000.0,-2.5238352197528338,-8.473437132464467,-1.2242716300812242,-0.6205585700169849,-0.8426667689927934,0.1731291650352662,2.8548097684301688,-0.8306402149494954,-3.9234786150590577,1.847539787724564,0.9719546710321104,3.077459553244456,2.6254870955652776,3.5691353093086087,2.6326927024455893,1.7014038651440295,2.0981955407480646,2.9453754101298943,1.2550078385934782,-0.8044079644670139,1.3292360357183077,0.2397342602828449,0.08629484060620515,-0.2292014129334135,2.5101777337734377,2.3095210301471982,3.539586804013529,1.5163944304774846,2.7863936494387187,3.701988729434508
245,245,245,245,12.3,7.23,1.23,-1.93,-1.21,1.7,-2.98,12.3,9.21,-4.48,,,,,150,12300000000.0,1.3766381638884586,-3.040048446602153,-1.503562714318561,-1.054368187648664,0.0014950667918526286,-2.0267199586894145,6.9921548801252476,4.773509698701754,-4.169261610902998,1.8485359793046967,0.6438434474543355,3.2124997044792662,2.200931728580939,3.5012671921885383,2.4025860784878037,1.6545275232165584,2.5951310201553657,3.21587692606202,1.75239488392284,-2.167342828073174,0.25824722206399103,-0.5310474181628627,-0.35201003644959,-0.20147670696954745,2.619622207565308,2.3225478910643838,3.67070096328259,2.0551977934104855,2.72890921902296,3.271871297373986
246,246,246,246,12.3,-2.64,5.24,8.24,0.5,-5.67,-2.48,1.13,14.0,5.86,,,,,150,12300000000.0,-0.2295803415028517,1.5963210791617641,2.3524397494345166,0.08959589632041952,-1.8814334082369388,-2.3429606470390163,4.4243127538575635,9.923244528547755,0.2600774582948189,1.780227993425696,0.5532144512827467,3.1607190019378626,1.9880598691647144,3.6399705235444566,1.8511348683483777,1.7258886870506127,2.5668235967135535,3.5183170400782124,0.0390863440511467,-2.826677619406243,1.8839259485686743,1.6272921006896657,1.0205125277009972,0.15406817763434108,2.716698360413511,2.0975657767387865,3.333490179070185,2.1511921009710075,2.8062559034783945,3.6199694786204786
247,247,247,247,12.4,-6.67,-4.98,-0.797,0.575,5.28,2.39,-3.56,3.76,-3.96,,,,,150,12400000000.0,-2.805047851455741,-2.086055391333097,1.1060529769908831,0.4468374119381096,0.4961525618198364,0.9590923152243992,0.9268864841163588,6.483250118304253,-1.6036842627946493,1.5876008256437626,1.0246031775561264,3.07990931749138,1.873970185682248,3.594164551540036,1.4650723781915882,1.906764643255126,2.0294834559884096,3.255394708881187,-0.4401041016362326,-1.09771265515544,0.17454481831824986,-1.0623809776120612,-0.534705142805418,-0.3330960237542033,2.714261601427614,2.204878257584068,2.871645929332662,1.9413486661632608,2.8944448542420194,3.377538075261071
248,248,248,248,12.4,4.27,-4.14,-12.2,0.172,0.555,1.42,9.34,3.94,-14.5,,,,,150,12400000000.0,0.02420188287918457,-3.236150816119169,-4.159800493269075,0.24456608137155,0.5156898315704356,1.280654551613038,4.612143546608948,5.063743567830957,-7.299233606225663,1.4302979897567751,0.9521554402805744,3.085727307539448,2.30408772323179,3.4551346732732484,1.9769721026709448,3.400894591742563,2.0715558982156104,3.3901368554766456,1.4037451290629523,-1.099860144644214,1.122083814285717,-1.8515336166745828,-1.4632983374706077,-0.34619795805307113,2.725522570098708,2.1816832097156773,2.743593911312242,1.8114140177140665,2.80239477796452,3.2861164755279013
249,249,249,249,12.5,7.33,-37.3,-15.0,-2.19,-0.0342,-1.97,12.5,-29.3,-17.1,,,,,150,12500000000.0,2.945726606925358,-22.310023889840995,-8.449795663721948,-1.5471948699443596,0.33312717415645793,-0.9872352848945728,8.067318390106367,-14.116265019109118,-11.627659794708409,1.5625912647708349,0.6892751931187311,3.1224054964491814,2.730797229118424,3.3882691837959285,2.2748733381620685,2.1984698370061,2.782297728964872,3.2502034248493463,4.866637532520417,0.11929590230057438,0.8094092231584952,-1.8166866651811864,-0.6280681058494471,-0.10934887566986827,3.08107651037592,2.19613506581462,2.753256886779391,2.069788404589561,2.77410413797754,3.2910940558409676
250,250,250,250,12.5,-2.22,-24.9,-2.16,-0.392,-1.21,-3.78,1.44,-15.9,-3.54,,,,,150,12500000000.0,0.8799977161123582,-23.76026720065462,-5.960617061839678,-0.6970092682120734,-0.17918890746448565,-2.935668282603237,5.164306181537032,-15.11185054446842,-8.055812874271975,1.8989204503042283,0.65361533674524,3.197477753561868,3.319859318633185,3.374981679918449,2.296829930013458,2.4309076173626725,2.6770010825411332,3.1275210464300867,3.972668458539661,0.21134359216231527,0.7802607765030853,-0.6964507174816609,0.3848772314149464,0.17933190327600668,3.377291540318225,2.234967715527887,3.0638598629241227,2.202885582061655,2.5082847105479558,3.1900228362496685
251,251,251,251,12.6,-13.3,-18.0,3.77,-3.08,0.153,-2.85,-11.2,-8.44,3.11,,,,,150,12600000000.0,-4.790459397575994,-20.534835825482574,-2.1097377405621134,-2.4508123529515,-0.06890265458299914,-2.875899876297689,-2.0038691934605826,-11.387979151631615,-3.1245256071669902,1.7139607993419843,0.9814875634420176,3.0621569521778125,3.6459093480853264,3.492050291557879,3.2966293832007776,1.7715479866308508,1.936832638065422,2.9447433928143325,2.5820620398050487,0.4759022607532633,-0.8942763222643719,0.7761422897419458,0.14950521738152353,-0.02145952601191008,2.6722166617001526,2.2066217088100846,3.16849984174902,2.2957918540247424,2.592183985897856,3.4075215827717242
252,252,252,252,12.6,-9.22,-10.6,6.95,-1.48,0.309,-1.72,-8.24,-0.894,7.62,,,,,150,12600000000.0,-6.561794040822541,-14.971876880687663,1.4756418744714046,-1.7363262671865516,0.0565604946866151,-2.0694612185147907,-4.735526598740101,-5.530799638295578,1.620703678668952,1.8192016982986587,0.9940640439712812,3.106956467369463,2.4633936024754512,3.5545850776680408,2.3575876853423017,1.6210328577641775,2.1547837540982004,3.0622598915235777,0.5975878397241857,0.16335254936933813,-1.310419668061949,0.976592061035404,0.39176699932449616,-0.08436485772465231,2.6113559662346693,2.286775570272035,3.5555880241761733,1.7006262012633224,2.679968212151106,3.4355127780882855
253,253,253,253,12.7,-8.61,-5.59,2.42,-0.162,0.738,-0.483,-8.39,4.15,3.57,,,,,150,12700000000.0,-7.380853548519045,-9.718544265601587,1.8493704320021696,-0.5776736906117395,0.2827974516798677,-0.9626320672040876,-6.336322179024199,-0.12749351200035264,2.481593969285897,1.8323900494067376,0.5598962985874423,3.1809599245974263,2.323787289246704,3.4580638463896336,2.2628350196672002,1.6963153156527566,2.8241588525881838,3.3205964949642257,-0.5297433184036766,0.05142566663846359,-0.994065165664538,0.5644845136986778,-0.04897452458184137,-0.1076974995561492,2.7874400599459377,2.3730344847878264,3.7470673929263123,2.1694544021571014,2.709527123554238,3.3626561432766757
254,254,254,254,12.7,-5.8,1.74,3.4,0.465,0.659,1.39,-5.45,11.5,4.47,,,,,150,12700000000.0,-6.7486841203404415,-3.30239256093256,2.4630301495071327,0.18970000303983348,0.4076961660632143,0.6787328302760847,-5.948079977443062,6.362353262577756,3.359756670828774,1.6932532597014944,0.5029885585677606,3.147691894657489,2.142696635866265,3.7434642832140486,1.888735169679872,1.8047123859243293,2.227534149667962,3.4237278981797616,-1.5438528573794412,-0.4502385769437172,-0.5994491235284403,0.04741098462479092,-0.42228658869740665,-0.21696468979998634,2.7360172757798833,2.1163146576927745,3.3160006572149157,2.215562310441325,2.758050693009745,3.716864595036566
255,255,255,255,12.8,0.7490000000000001,1.91,1.56,1.29,-0.6809999999999999,2.24,2.03,11.6,2.28,,,,,150,12800000000.0,-3.750425826603472,-0.3837407323899078,2.1056570934827508,0.9994847403220803,0.04625055970313397,1.7679848195400312,-2.453383883326429,9.285728556301882,2.882891208950145,1.6176524451143433,1.049686456983168,3.091424373010531,2.059392203144891,3.519275640924181,1.4523166567740846,2.2148926535741937,1.9951264349162268,3.216774063994112,-1.690082796366621,-1.101326436805684,0.4552930646327072,-0.40478931569561577,-0.2355759429527119,-0.19821822107801412,2.725837431234457,2.285924515216313,2.9036767869004354,2.032694486439361,2.771397708159965,3.372893383255824
256,256,256,256,12.8,0.29,-1.29,0.0742,1.64,-1.48,1.71,2.55,8.25,-0.0375,,,,,150,12800000000.0,-2.134694888278542,-0.8911958296842486,1.3017105306948926,1.4708829854505716,-0.4604625031320143,1.7275304762229995,-0.2617154543399631,8.707640112432449,1.5931250012883302,1.23757114153889,0.965070275249028,3.014367666948337,2.3985266637151548,3.2995700345961763,2.0509240919499643,3.2630468359043596,2.1717072132183266,3.344004680960943,-1.3128911905080405,-1.3243347912534638,1.3758167724224577,-0.3525981461383667,0.06666215673340474,-0.09245946197055407,2.58712070306431,2.05762664054662,2.7185351526662345,1.9108770161960524,2.644862591847886,3.317266056451892
257,257,257,257,12.9,-17.9,-30.7,-1.94,3.95,1.21,3.56,-14.7,-21.6,-3.33,,,,,150,12900000000.0,-8.439102332087323,-17.58247964325078,0.018807687668094042,3.2954319576215685,0.09412873005941648,3.0059926371052743,-6.586221634336822,-8.208468479795501,-0.5811317015998163,1.5723204956573344,0.6186202317794406,3.1482317990962003,2.7551600697762786,3.3419102336197715,2.2908590295386766,2.2896112109339155,2.9821527112412114,3.3690282505153566,-1.3043158747470178,1.9185697639141768,1.5228288093704982,-1.0763124018108352,0.4489751240527737,-0.09830666399630997,3.2578961005614437,2.1727457587059864,2.8556738713266716,2.136623136874642,2.7635901423317484,3.5481519902574954
