,Unnamed: 0,Unnamed: 0.1,Unnamed: 0.1.1,Time (s),Acceleration x (m/s^2),Acceleration y (m/s^2),Acceleration z (m/s^2),Gyroscope x (rad/s),Gyroscope y (rad/s),Gyroscope z (rad/s),Linear Acceleration x (m/s^2),Linear Acceleration y (m/s^2),Linear Acceleration z (m/s^2),SPM/RPM,Timestamps,Acceleration x (m/s^2)_kalman,Acceleration y (m/s^2)_kalman,Acceleration z (m/s^2)_kalman,Gyroscope x (rad/s)_kalman,Gyroscope y (rad/s)_kalman,Gyroscope z (rad/s)_kalman,Linear Acceleration x (m/s^2)_kalman,Linear Acceleration y (m/s^2)_kalman,Linear Acceleration z (m/s^2)_kalman,Acceleration x (m/s^2)_kalman_max_freq,Acceleration y (m/s^2)_kalman_max_freq,Acceleration z (m/s^2)_kalman_max_freq,Gyroscope x (rad/s)_kalman_max_freq,Gyroscope y (rad/s)_kalman_max_freq,Gyroscope z (rad/s)_kalman_max_freq,Linear Acceleration x (m/s^2)_kalman_max_freq,Linear Acceleration y (m/s^2)_kalman_max_freq,Linear Acceleration z (m/s^2)_kalman_max_freq,0,1,2,3,4,5,0_max_freq,1_max_freq,2_max_freq,3_max_freq,4_max_freq,5_max_freq
0,0,0,0,0.0442,2.54,4.86,6.28,-0.8959999999999999,-0.0751,-1.26,10.9,2.62,1.72,60.0,44200000.0,1.8260358459676127,3.7746350063485865,6.369765387615157,-0.8920833738537501,-0.07261706497888662,-1.2434635548015354,9.279728255834202,2.496304750710669,2.3081623697413867,,,,,,,,,,5.290379025131425,7.338986883862589,4.416178970248732,-3.987789307899424,2.8329439712770497,1.7576676721782245,,,,,,
1,1,1,1,0.0942,1.64,4.2,8.67,-1.02,0.255,-1.35,10.3,2.84,4.28,60.0,94200000.0,1.7662579421522917,3.8749923781683284,7.205409174524982,-0.9800464309370484,0.12512819928299052,-1.3122350612277207,9.654289489601148,2.5770452575775544,3.025661153198532,,,,,,,,,,5.674983802640443,7.3321721503887,4.70686725578369,-4.385738231737872,2.877713560436032,1.4354744020099708,,,,,,
2,2,2,2,0.14400000000000002,0.8809999999999999,4.22,8.18,-0.84,-0.986,-1.11,9.5,3.57,3.54,60.0,144000000.0,1.3947905839437913,3.9896059972650217,7.6553417694173245,-0.8785987838159891,-0.6021576798533048,-1.1741512575028483,9.58234747963452,2.9055648717058777,3.263912119503216,,,,,,,,,,5.070039806794728,7.482423658092188,5.5531968922347605,-4.092137919164996,2.445462902462212,1.9560954542969644,,,,,,
3,3,3,3,0.194,1.59,4.36,8.98,-0.997,-0.262,-1.25,10.0,4.43,3.97,60.0,194000000.0,1.4828177030316798,4.127594820503614,8.302753931801162,-0.9646939244548144,-0.3774755231754781,-1.226221031564084,9.788294530939098,3.4714564161243664,3.6101730319325287,,,,,,,,,,5.52771692648134,7.7048494041081925,5.739328992468977,-4.165095986904551,2.577139764165352,1.643569687592491,,,,,,
4,4,4,4,0.244,0.905,4.52,9.1,-0.3720000000000001,-0.807,-1.11,9.19,5.27,3.9,60.0,244000000.0,1.2168945601446923,4.279861963444592,8.697964902327017,-0.5335962105838279,-0.6614817663800785,-1.1463936111072472,9.48920290538578,4.167092629503353,3.754319838016935,,,,,,,,,,5.152894626095244,7.825320881746935,6.371945463390225,-3.6694764186757887,2.7498300766145403,1.696077694807584,,,,,,
5,5,5,5,0.294,1.71,4.38,6.69,-1.56,0.7609999999999999,-0.727,9.85,5.66,1.36,60.0,294000000.0,1.4451585113172842,4.319294557035793,7.6990246399786075,-1.280169748374532,0.27919082922126914,-0.8583144849986268,9.670179508522928,4.753170284301669,2.5592977284010745,,,,,,,,,,5.968534886311648,8.160090303773375,5.3238324195192925,-3.242503450872676,3.0694753056358337,0.9333355977422616,,,,,,
6,6,6,6,0.344,0.785,3.03,5.98,-2.11,4.12,-0.921,9.35,5.13,1.68,60.0,344000000.0,1.139052126921371,3.808880373017766,6.843061739009182,-1.883762833478452,2.8191132399654597,-0.9013730363475084,9.509442442794027,4.9019073553709465,2.120047630131483,,,,,,,,,,8.17623416887832,7.260030310362593,3.4735544496794057,-3.2118844849464105,4.3816625489090875,-1.4036678895450885,,,,,,
7,7,7,7,0.394,-0.101,0.943,8.53,-0.7659999999999999,4.25,-0.977,9.03,3.76,6.33,60.0,394000000.0,0.5637806725862644,2.6721190365816665,7.6832373132170275,-1.0707361985617831,3.765358419164015,-0.9533210636188256,9.268701499576704,4.450298837536036,4.223577543217871,,,,,,,,,,8.19164306656476,5.923012102470888,3.506925383422677,-3.756670588352127,5.371053067261403,-2.7962086385077547,,,,,,
8,8,8,8,0.444,-1.06,0.448,12.2,-0.363,-2.55,-0.519,8.05,3.61,10.4,60.0,444000000.0,-0.18960991201095434,1.7892937943055167,9.932928438946265,-0.5559504594029478,-0.4109877857949629,-0.6549866685470678,8.656727635168837,4.117732882944234,7.309836898329119,,,,,,,,,,4.520586722753251,5.89523445988183,7.1765143808448455,-3.864148234429144,2.4685283929273143,0.6758061007502649,,,,,,
9,9,9,9,0.494,-0.675,-0.754,9.03,-1.24,0.5489999999999999,-0.434,8.23,2.66,6.73,60.0,494000000.0,-0.4148268109307259,0.7795195749353487,9.48319484933002,-1.053507256634137,0.2238521229727424,-0.5031912956846465,8.442442337870322,3.540652924716435,7.0200976839791815,,,,,,,,,,4.8013699490753154,5.256776556338627,6.354141914425697,-3.9425260296965625,2.2574555124224767,-0.0336514126421805,,,,,,
10,10,10,10,0.544,-0.958,-1.92,11.2,0.463,0.779,-0.622,7.96,1.79,9.54,60.0,544000000.0,-0.6668574479134439,-0.2923811787734121,10.338309588674713,0.049553907926005225,0.5909713869489702,-0.5848007761398246,8.200178891260615,2.8475467608659657,8.279274278995143,,,,,,,,,,4.141719913188691,4.3106707051956965,6.495862585792287,-4.398373735759129,2.927088378076518,-0.9546102775540656,,,,,,
11,11,11,11,0.594,-1.67,-1.56,10.3,-0.433,0.447,-0.6459999999999999,7.16,2.46,8.89,60.0,594000000.0,-1.1323139105677242,-0.7957327525054609,10.31922823616534,-0.3014410982895458,0.4957631110139753,-0.626838436861087,7.677841695888348,2.6941066310122967,8.584449855673377,,,,,,,,,,4.337787151359908,3.772168922069641,6.54281017370437,-4.3007036910114484,2.4190706643271382,-0.8115487943074214,,,,,,
12,12,12,12,0.644,-2.57,-1.3,9.74,0.618,0.0373,-1.03,6.04,3.13,8.24,60.0,644000000.0,-1.799398471084522,-0.9959718245886441,10.030722917577114,0.3673323166907837,0.19258147060680536,-0.9037694022638856,6.855381534758557,2.866690741352057,8.412330501232745,,,,,,,,,,4.138809933722425,3.2422532903137142,6.8088242338435645,-3.6909125079128615,2.546322739009877,-0.4799455196189419,,,,,,
13,13,13,13,0.6940000000000001,-2.37,-1.61,9.07,0.738,1.29,-0.499,6.16,3.07,7.79,60.0,694000000.0,-2.064156902792297,-1.2397968913904975,9.552200551739336,0.6369446762310003,0.9183042860858726,-0.6257340041196465,6.506187989208825,2.947187699331949,8.101356164775645,,,,,,,,,,4.053471177749904,2.8720511717930384,6.397654370097759,-3.2736468103108267,3.286306941078088,-1.4036853835703105,,,,,,
14,14,14,14,0.7440000000000001,-1.08,-2.89,4.98,-2.4,2.01,-1.69,7.32,2.12,4.35,60.0,744000000.0,-1.6075091616682209,-1.895078795800182,7.274853449082191,-1.5720364037312982,1.6402426227798248,-1.356776527497602,6.914852712430892,2.619675621674064,6.226828938798278,,,,,,,,,,6.764673929622668,2.866411855581032,3.931409635370012,-3.630726712999796,2.0124599750886607,-0.7375389312925559,,,,,,
15,15,15,15,0.794,-2.21,-6.12,4.02,-4.22,2.99,-3.11,5.51,-0.218,5.34,60.0,794000000.0,-1.8870642967734879,-3.5727606398289096,5.653657902326487,-3.498084277840368,2.5328371423226628,-2.5610626465182564,6.209390610198518,1.4961416458503989,5.7836866204228645,,,,,,,,,,9.879296261963695,1.3703355690215269,1.6155459323976142,-4.346769739780205,0.5561218423555044,-0.2740613454413066,,,,,,
16,16,16,16,0.8440000000000001,-6.39,-7.31,7.57,-2.84,2.69,-2.8,0.0468,-0.802,11.1,60.0,844000000.0,-3.976421694156605,-5.056788326057308,6.608160335805604,-3.0194137659616582,2.6367689732498567,-2.7251882713568936,3.1147780568808963,0.5862276394271824,8.440212484168578,,,,,,,,,,9.813541501370176,-1.5643128425578652,2.655905847512248,-3.928407350630213,0.3241362205896662,-0.7326650795903902,,,,,,
17,17,17,17,0.894,-10.8,-5.44,7.45,-1.34,2.72,-2.05,-5.82,1.42,12.4,60.0,894000000.0,-7.142554989642648,-5.208958635995997,7.0274684307429425,-1.797859394805852,2.6918096676734207,-2.2614025750372027,-1.3719189534194365,0.916347055076976,10.418891210144306,,,,,,,,,,8.95965797980664,-4.53604707061471,4.735930319073959,-1.672328013508824,1.1264229209812326,-1.4369284910098836,,,,,,
18,18,18,18,0.944,-13.0,-3.51,6.86,-1.66,1.98,-1.01,-9.28,3.27,12.9,60.0,944000000.0,-9.860403358043264,-4.534315742884775,6.944054888266917,-1.6975846478292729,2.221089968317227,-1.4018162897063675,-5.343048564569809,1.8482400137154367,11.65868422380725,,,,,,,,,,8.150191228991888,-6.4252387128028,6.911854269031748,0.8329361254570105,1.1602718959362064,-1.327523367667186,,,,,,
19,19,19,19,0.994,-13.3,-1.63,7.6,-1.32,1.59,-0.285,-10.3,4.76,14.4,60.0,994000000.0,-11.456372696991751,-3.381035170794589,7.270771636396821,-1.422941119545937,1.803750213194024,-0.6346770966331605,-7.832236261643318,3.0011070493714627,13.028500900572483,,,,,,,,,,7.356192669604424,-7.248013362295402,8.912701355877257,2.56716475614651,1.596254699962784,-1.2357808992464163,,,,,,
20,20,20,20,1.04,-11.3,-1.42,8.14,0.0302,1.83,-0.0751,-8.99,4.73,15.4,60.0,1040000000.0,-11.383816017360168,-2.6023237571173268,7.703721913361423,-0.365970551133022,1.8211092248046068,-0.25030454844760397,-8.413619922662212,3.6856358476429087,14.213522696696383,,,,,,,,,,6.410921795580918,-7.1746396401628125,9.837735465514054,3.0018856898303765,2.8562237517270894,-1.5788610854163196,,,,,,
21,21,21,21,1.09,-10.5,-3.41,5.85,0.361,1.82,-0.0555,-8.95,2.84,13.2,60.0,1090000000.0,-10.973726308109603,-2.9230455739335373,6.780409727856632,0.16280567533005275,1.8203757291610183,-0.11649363930055814,-8.682968973326084,3.3508191988928617,13.707072196266955,,,,,,,,,,5.612270541973356,-7.206464259088429,9.317801740473843,3.1980385539848437,3.2889761369910446,-1.5651036942204848,,,,,,
22,22,22,22,1.14,-9.67,-5.47,4.41,0.315,1.14,0.517,-8.65,0.877,11.8,60.0,1140000000.0,-10.368798697783587,-3.934420743602312,5.599742768652378,0.2735071874388761,1.3704432703308242,0.3186520665696789,-8.666413049740852,2.371348211362561,12.754121272775956,,,,,,,,,,4.048333558797458,-7.128297291544386,8.581837677104959,3.2128512679155183,2.901108764529877,-1.2581068126946582,,,,,,
23,23,23,23,1.19,-8.2,-6.45,2.72,0.267,0.913,0.601,-7.37,-0.004529999999999999,10.1,60.0,1190000000.0,-9.362478277979342,-4.933337091829837,4.165384461160562,0.2687740501368264,1.0679360411270022,0.5125963844792828,-8.015404941938558,1.4306554738973694,11.427875096915658,,,,,,,,,,2.9359411045771586,-6.71059734889932,7.351981285078791,2.928314925812776,2.54397582323146,-0.869327481916955,,,,,,
24,24,24,24,1.24,-7.76,-6.21,1.34,-0.722,0.0959,0.816,-6.97,0.166,8.75,60.0,1240000000.0,-8.618930136363973,-5.440289747678802,2.758101244678586,-0.4518848034773896,0.4251286355984569,0.7210037962267544,-7.490443264188956,0.9299344268285488,10.089759105911165,,,,,,,,,,2.3007496582315587,-6.085206583675372,6.493952006940925,2.8769549189417214,1.566883528464996,0.09441730223674268,,,,,,
25,25,25,25,1.29,-6.51,-6.21,2.0,-0.0877,-0.172,0.5820000000000001,-6.66,-0.0822,8.92,60.0,1290000000.0,-7.640388861250299,-5.7459355542889465,2.380501953219405,-0.18698787685960394,0.030247482851604945,0.6255223392099911,-7.073426982397349,0.5291952397406385,9.505238466783684,,,,,,,,,,1.6519480965502562,-5.547608177489656,6.008128299830184,2.5332373147722467,1.4206877468727566,0.5667331039358698,,,,,,
26,26,26,26,1.34,-7.15,-5.9,1.22,-0.206,0.0819,0.0587,-5.87,0.2,8.78,60.0,1340000000.0,-7.412848985901209,-5.807113352626189,1.8024726892584568,-0.20081671603589424,0.06440529127729053,0.2361730475705105,-6.4691128494988535,0.3988554070942849,9.142841599159759,,,,,,,,,,2.125013220759424,-5.402703387549662,5.442691954453101,2.2318208761654947,1.4218945498925368,0.911006910298867,,,,,,
27,27,27,27,1.39,-8.11,-5.66,1.42,0.166,0.487,0.14300000000000002,-6.9,0.438,9.0,60.0,1390000000.0,-7.736326169238247,-5.748695755094028,1.6119685399973442,0.0659945803559619,0.3438671519640312,0.17217264585885955,-6.6854876120816575,0.4143541090181975,9.071464622602306,,,,,,,,,,2.277568057862685,-5.701585350890396,5.370860878315864,2.4222982749392927,1.813939131544752,0.6369434995322651,,,,,,
28,28,28,28,1.44,-8.39,-5.35,0.488,0.11,1.13,0.126,-7.33,0.84,8.02,60.0,1440000000.0,-8.039630303504723,-5.590376818323852,1.0521360305088094,0.09800278116419167,0.8637367777337925,0.1404567361388676,-7.009136547497016,0.5828820966194214,8.546055123645724,,,,,,,,,,2.7456374054021957,-5.945985257296077,4.995090522002012,2.8079962801767104,2.261476019101269,0.23819886459951736,,,,,,
29,29,29,29,1.49,-9.79,-3.99,1.45,0.14400000000000002,1.5,0.667,-9.08,2.21,9.01,60.0,1490000000.0,-8.851799997397219,-4.954879974035982,1.2503063567507129,0.1314597519317213,1.2844976276121909,0.5021383964924113,-8.049043334399954,1.2271146264783883,8.777885340439537,,,,,,,,,,2.9092033685006897,-6.350607239157214,5.597542031706946,3.649768124586475,2.8029547793732474,-0.3940491110270761,,,,,,
30,30,30,30,1.54,-4.89,-4.04,0.407,0.341,1.4,0.513,-4.38,2.25,7.91,60.0,1540000000.0,-7.013528873215367,-4.59158843078684,0.8302676309911838,0.2838729361497501,1.3608793272553803,0.509599221141569,-6.2065929875015176,1.6321104876395167,8.344208856454742,,,,,,,,,,2.681439377456937,-4.76608809678302,4.794689473367783,2.915881458011471,3.384931817430497,-0.2525249446414139,,,,,,
31,31,31,31,1.59,-6.81,-3.09,1.07,0.192,0.616,0.481,-6.82,3.29,8.51,60.0,1590000000.0,-6.919091662000043,-3.9953196280335987,0.9496748910621132,0.21704736331526905,0.8682906481848598,0.4899544695332516,-6.514622141559273,2.2885265364949907,8.427053678780771,,,,,,,,,,2.6635812697194208,-4.365191950576333,5.32385387928832,3.263490402973272,3.2092851875874167,0.3837442208148296,,,,,,
32,32,32,32,1.64,-5.21,-2.97,1.12,0.438,0.091,-0.481,-5.34,3.5,8.49,60.0,1640000000.0,-6.126074933014466,-3.5881734070670337,1.0345113726068116,0.3777615733163901,0.3542683645372685,-0.17699249166716002,-5.924772809918253,2.7681909752745923,8.458507413432146,,,,,,,,,,3.1942110487670363,-3.6259817871410798,5.2788232050700845,2.867326364029205,3.0667620209590387,1.3965264457698408,,,,,,
33,33,33,33,1.69,-9.17,-4.06,-0.6779999999999999,0.243,0.12,-1.21,-9.51,2.53,6.58,60.0,1690000000.0,-7.538453021298847,-3.775531954660517,0.18153418074994665,0.2797401120880416,0.19934670029301527,-0.8865636005518504,-7.725134131868828,2.673882880510211,7.5198299844066465,,,,,,,,,,4.281468800817831,-4.860430620060007,5.160389220696486,3.823642886887821,2.4923988275367983,2.0738630447778292,,,,,,
34,34,34,34,1.74,-9.85,-3.61,1.33,1.23,-0.418,-1.13,-10.4,3.23,8.33,60.0,1740000000.0,-8.611008582904915,-3.70980049635378,0.7535684556739675,0.9709302105081592,-0.20890466252588752,-1.0537796418135557,-9.06834721177936,2.8940689788444818,7.924666398344075,,,,,,,,,,4.00879483700431,-5.6402057622376525,6.162462344268424,4.5403968661425065,2.5172810585602963,2.253757113468627,,,,,,
35,35,35,35,1.79,-11.6,-4.74,1.5,1.24,-0.853,-1.1,-12.2,2.5,8.09,60.0,1790000000.0,-9.997897656598226,-4.118884397411275,1.125355237767684,1.1666433827732463,-0.6348448801820106,-1.0855283428183622,-10.640940955896523,2.738043377564681,8.007282551973224,,,,,,,,,,3.747038742668861,-6.7351966626232,6.974313214003053,5.3328249524944775,1.9682163517814601,2.4072431594426105,,,,,,
36,36,36,36,1.84,-7.36,-4.73,2.17,1.38,-0.747,-2.47,-8.17,2.89,8.29,60.0,1840000000.0,-8.773915960146516,-4.361553528161664,1.6456777588331213,1.321832480913268,-0.7090130436927607,-2.03651956515208,-9.400130856951943,2.7982083258972725,8.148554520755964,,,,,,,,,,4.725041829471353,-6.0354572055595215,6.343608768379978,4.194881511540361,1.8348180311033184,2.919766789158538,,,,,,
37,37,37,37,1.89,-4.53,-8.67,1.71,-0.318,0.418,-4.13,-6.55,-1.07,7.57,60.0,1890000000.0,-6.804743483110915,-6.072403229362196,1.6777157580640119,0.1290683141861353,0.03628065679180892,-3.4745277576860736,-7.968906442338438,1.2666502218382727,7.859454843522941,,,,,,,,,,7.158953258098288,-5.9506088055970405,3.8037261466835006,1.8023931221676976,0.6800109187833654,3.1082381068664358,,,,,,
38,38,38,38,1.94,-7.2,-14.6,2.33,0.633,-0.622,-0.8440000000000001,-9.95,-7.18,8.15,60.0,1940000000.0,-6.988142005754793,-9.45864392578356,2.002609089271909,0.4956128775841259,-0.3990403080060464,-1.6676227479490155,-8.963734233212223,-2.0776720253564487,8.004638093476574,,,,,,,,,,2.7349782217730403,-7.49658882312266,3.6871977426713864,1.4591710617584024,-0.4001024189622121,1.6601849823918633,,,,,,
39,39,39,39,1.99,-5.25,-11.6,1.97,0.333,-0.246,0.326,-7.9,-4.09,7.67,60.0,1990000000.0,-6.181645929898652,-10.30895946560676,1.9863669866669729,0.3773332289645762,-0.2978347613867041,-0.2982067041522385,-8.429568453801828,-2.874422652478128,7.837421750001157,,,,,,,,,,0.491641828846918,-7.063894664915169,3.4622648155064195,1.2724650910161113,-0.3674156353944978,0.6230509125005997,,,,,,
40,40,40,40,2.04,-4.03,-8.9,2.25,0.542,-0.585,0.16899999999999998,-6.45,-1.21,7.84,60.0,2040000000.0,-5.183284562334828,-9.749472767455817,2.1176787866917905,0.4971068170908979,-0.4877371109136136,0.022716778066455057,-7.435506319020917,-2.2154199064456805,7.838710160254692,,,,,,,,,,-0.08583377512395958,-5.879374363141147,3.5863159032902114,1.113071954521085,-0.0009327158149953057,0.7138964877373777,,,,,,
41,41,41,41,2.09,-3.23,-8.51,2.32,0.375,-0.191,0.122,-6.29,-1.07,7.71,60.0,2090000000.0,-4.276962573708452,-9.257288125363687,2.2184520305310875,0.4082900393836619,-0.29150486809397463,0.0909142535775044,-6.860277721642362,-1.7619083868096703,7.774394586763289,,,,,,,,,,0.07071217428910992,-5.075235608176113,3.3723516725822873,0.8714761957304951,0.35548090447224845,0.6014971426180145,,,,,,
42,42,42,42,2.14,-3.09,-8.63,2.13,0.121,-0.0867,0.248,-5.21,-0.674,7.46,60.0,2140000000.0,-3.726213139003673,-9.008197068049974,2.174395407384379,0.199324019045256,-0.1560674148545762,0.19881618012475044,-6.0315726592722365,-1.3311676651768551,7.6172937669854415,,,,,,,,,,0.2046209921894171,-4.380910131982596,3.1548069894665614,0.6821374259471613,0.5126093836811703,0.5144699062806894,,,,,,
43,43,43,43,2.19,-2.09,-4.55,2.79,1.29,0.332,-1.11,-4.12,3.48,8.04,60.0,2190000000.0,-2.9670119110696005,-7.237882707586538,2.4810191535107418,0.992648462928486,0.16669154365305786,-0.7002074151747917,-5.0716553977664605,0.5737407927135907,7.828517180467446,,,,,,,,,,1.777564199236214,-3.1675643639022155,3.308688978612812,0.6332105898146365,1.933987316907389,0.8361908527693884,,,,,,
44,44,44,44,2.24,-3.13,-5.6,2.68,-0.964,-1.49,-1.61,-5.78,2.34,7.8,60.0,2240000000.0,-3.042638267256032,-6.587492532675341,2.5801286753367085,-0.4305579930053047,-0.9288785309832146,-1.3251423884185751,-5.4273585242847835,1.2730641503885385,7.814267434457848,,,,,,,,,,3.1966961215963834,-2.7325963287585098,3.7915553201214576,0.712696086962185,0.1722080768914564,2.7909242532774217,,,,,,
45,45,45,45,2.29,-3.3,-5.66,2.66,-1.57,-0.8690000000000001,-1.09,-6.06,1.74,8.47,60.0,2290000000.0,-3.1620538204096897,-6.219192597717076,2.6199114724526256,-1.2593534240484734,-0.8892808718999853,-1.163623508735606,-5.745046360347124,1.4579402814565727,8.141932675491871,,,,,,,,,,3.722463972950808,-2.7461888077640304,3.952285608109708,0.7813553430868007,-0.23955859851687825,2.939554757088224,,,,,,
46,46,46,46,2.34,-2.17,-7.82,2.69,-0.7929999999999999,-0.934,-2.03,-5.15,-0.934,9.0,60.0,2340000000.0,-2.7017419189547227,-6.854860495407348,2.654821585229094,-0.920142142416842,-0.9188536400673268,-1.7587360124264246,-5.4462373434981215,0.5108880062058421,8.570703087377492,,,,,,,,,,3.9169248305944793,-3.0918095167137065,3.4172208035458045,-0.11432794175615114,-0.325174983629801,3.210455565896094,,,,,,
47,47,47,47,2.39,-2.78,-7.91,4.58,-0.769,-1.31,-1.93,-6.07,-1.61,11.3,60.0,2390000000.0,-2.738053573574452,-7.273847901874029,3.613725137550355,-0.8102059493719942,-1.1775186783667209,-1.876376915215788,-5.759466697919454,-0.3288452547518585,9.934514305612137,,,,,,,,,,3.638319210506989,-3.682354841519695,3.8864859478804363,-0.7953368291567331,-0.6828111216400066,3.3031076372346635,,,,,,
48,48,48,48,2.44,0.737,-12.0,2.29,-1.13,0.527,-1.23,-2.8,-6.22,9.38,60.0,2440000000.0,-1.1256323490894082,-9.150565139647878,2.954396727343207,-1.0428143930272664,-0.05032052065764714,-1.43238173578454,-4.273337970296609,-2.6613580328940967,9.657427331951652,,,,,,,,,,2.817238522504128,-3.804872645991169,1.7228596649458685,-2.5183469116137323,-0.4608771850226683,1.8494103979794403,,,,,,
49,49,49,49,2.49,-0.206,-14.8,2.5,-0.897,-0.145,0.0428,-4.09,-9.51,9.81,60.0,2490000000.0,-0.6989238994212752,-11.393910661317149,2.72806827386743,-0.9367534577930592,-0.11293205475935245,-0.4190819347217556,-4.181272871690111,-5.372973445283374,9.733667067194228,,,,,,,,,,0.18467334934412605,-4.650230051195809,0.9956103474633926,-3.3858084437681937,-1.0557451610529538,0.9632471976087648,,,,,,
50,50,50,50,2.54,-1.8,-13.1,3.75,0.117,0.93,0.0288,-5.65,-7.92,11.1,60.0,2540000000.0,-1.2098220383183724,-12.071385258097205,3.2370777213732445,-0.17028530529915342,0.5767588866288713,-0.11143260359936258,-4.918810376847565,-6.381429789003649,10.416414540733992,,,,,,,,,,-0.5391251766209623,-5.775944429271855,1.046151054931855,-3.503104427631248,-0.3130530405457312,-0.36324817383514696,,,,,,
51,51,51,51,2.59,-0.067,-8.28,-1.19,-0.913,0.914,-0.107,-4.39,-3.25,6.04,60.0,2590000000.0,-0.6795538065466806,-10.565856357985918,1.0320141574156223,-0.7105133319531239,0.7997764081146264,-0.1083878563347898,-4.653262371591081,-5.141587929013976,8.22954991138258,,,,,,,,,,0.3341832481086763,-4.584564181559927,0.12020174354481422,-2.519002322983704,0.19138377439485355,0.2890006653702102,,,,,,
52,52,52,52,2.64,-0.632,-9.91,-0.448,-0.4270000000000001,-0.00489,0.133,-4.97,-5.12,6.93,60.0,2640000000.0,-0.6574889034568664,-10.305420977713636,0.2948404535943301,-0.5042943639281315,0.2676505364770767,0.05742104835803233,-4.812315544800322,-5.133040472499178,7.5801735647280095,,,,,,,,,,-0.41119922296586897,-4.332669384192388,0.2194617626690978,-2.0745587893353035,0.12179554348500254,0.896215909982151,,,,,,
53,53,53,53,2.69,-0.448,-10.3,0.0886,-0.5529999999999999,1.33,-0.214,-5.04,-5.71,7.41,60.0,2690000000.0,-0.5602862773989634,-10.30326842651466,0.19211506057811467,-0.5397213399437344,0.9701822333505492,-0.1290176044998197,-4.926649775288566,-5.361478811919587,7.495138914437053,,,,,,,,,,0.3004691861242492,-4.613739340305858,-0.3297487254599998,-2.2796895334750658,0.5388451084505602,0.32245619573829803,,,,,,
54,54,54,54,2.74,-0.426,-9.93,-0.6679999999999999,-0.487,0.987,-0.0909,-5.48,-5.54,6.5,60.0,2740000000.0,-0.4979775844531892,-10.155046637819812,-0.23629583209024296,-0.5013734355580858,0.9813038143654788,-0.10283468502611236,-5.204520677182506,-5.432161538180359,6.997874760402082,,,,,,,,,,0.22364841988028936,-4.596447502866425,-0.5140089986379627,-2.0558388107818373,0.6191499868063811,0.3987126712404389,,,,,,
55,55,55,55,2.79,-1.39,-9.93,-0.529,-0.518,0.557,0.00863,-6.76,-5.68,6.49,60.0,2790000000.0,-0.9118750472584742,-10.065682537172627,-0.38208754690924696,-0.5134670967161619,0.7007117023022875,-0.02626978434954487,-5.985621816583599,-5.530289328790747,6.744093079032853,,,,,,,,,,-0.017166614177999126,-4.890415483268916,-0.22634689739715286,-1.6067697973088098,0.3607597348004421,0.6579109846238187,,,,,,
56,56,56,56,2.84,-1.05,-9.62,-0.321,-0.483,0.493,-0.083,-6.55,-5.5,6.68,60.0,2840000000.0,-0.975964858987494,-9.888705517073854,-0.3516607260845474,-0.4913062664665262,0.5633519602474788,-0.06523766984270263,-6.26903061525362,-5.5182967310714455,6.7120661171449765,,,,,,,,,,-0.02476135971051246,-4.925676377315461,-0.06782037690989162,-1.4891669205538816,0.2913854617387093,0.8358724361078129,,,,,,
57,57,57,57,2.89,-0.915,-9.68,-0.405,-0.364,0.519,-0.278,-6.61,-5.72,6.53,60.0,2890000000.0,-0.9476772380277456,-9.80583034491474,-0.3782282493921957,-0.3987075623538701,0.534022006161367,-0.2113837469192608,-6.440252203427876,-5.598157980671671,6.6210890203026,,,,,,,,,,0.08875755875849266,-4.983861740201093,-0.09947662381919274,-1.4923938987817278,0.3058812224876412,0.9505895062013754,,,,,,
58,58,58,58,2.94,-1.07,-10.0,-0.541,-0.477,0.525,-0.304,-6.97,-6.2,6.31,60.0,2940000000.0,-1.004434896201981,-9.882933563597778,-0.4593025140388614,-0.4556550942512333,0.5280557379897375,-0.2750016853235057,-6.706270771890644,-5.836448072566188,6.465639921970904,,,,,,,,,,0.15369363057264726,-5.161178309172682,-0.19298326078815065,-1.48140321563251,0.1703309655626822,1.0019243781115872,,,,,,
59,59,59,59,2.99,-1.21,-9.7,-0.168,-0.462,0.313,-0.404,-7.31,-6.12,6.63,60.0,2990000000.0,-1.099816907431525,-9.810292031332473,-0.3142089338228823,-0.4602701943579842,0.3858393806242107,-0.363610415707419,-7.0094400052989565,-5.9487160877901255,6.547769593396588,,,,,,,,,,0.19689600533550566,-5.296113930116362,-0.02876414655404704,-1.465339697256953,0.012176421519964087,1.1773981819990256,,,,,,
60,60,60,60,3.04,-1.66,-9.64,-0.388,-0.354,0.17800000000000002,-0.32299999999999995,-7.87,-6.26,6.41,60.0,3040000000.0,-1.3597412620020433,-9.742670562598072,-0.3509632048669716,-0.3829724949871823,0.2483952064755901,-0.33571520042866165,-7.441579599972321,-6.071964295312362,6.478926987409926,,,,,,,,,,0.03299375415988838,-5.512585155128874,0.16206165134716924,-1.2536274545313713,-0.0637884584179924,1.28444256838537,,,,,,
61,61,61,61,3.09,-1.05,-10.1,-0.278,-0.35,0.313,-0.33,-7.38,-6.89,6.49,60.0,3090000000.0,-1.2160216177123195,-9.88456337872495,-0.3146212838714973,-0.3589893025914723,0.29111835024644195,-0.3317894480807126,-7.410656785037363,-6.395853001890657,6.484459982194482,,,,,,,,,,-0.07704175044242513,-5.57496266267762,0.03224813303695431,-1.4445327031659876,-0.0871937384023146,1.2031527940718605,,,,,,
62,62,62,62,3.14,-0.922,-10.1,0.124,-0.0559,0.3720000000000001,-0.371,-7.41,-6.99,6.8,60.0,3140000000.0,-1.0795958898813731,-9.97011169124451,-0.09615035217716028,-0.138531380160389,0.3446053886460493,-0.35872310325894746,-7.410326896594253,-6.63109635240508,6.642133280452155,,,,,,,,,,-0.2335274232323675,-5.643161522118193,0.031202870445587894,-1.6289245114194175,0.04715532559327181,1.052840809103529,,,,,,
63,63,63,63,3.19,-2.27,-10.6,0.206,0.35,0.337,0.0496,-8.92,-7.56,6.74,60.0,3190000000.0,-1.6319421452116982,-10.220235457530661,0.054346378684476115,0.21681145408141508,0.3395759535602449,-0.07824666418467435,-8.168425863243115,-6.998881560071317,6.691036500880362,,,,,,,,,,-0.9146880402230816,-6.220511497052361,0.3694844953849,-1.2671047175932992,0.15231824325290574,0.6791689967017924,,,,,,
64,64,64,64,3.24,-3.18,-12.3,0.613,0.769,-0.633,0.523,-9.79,-9.01,7.06,60.0,3240000000.0,-2.350239404463708,-11.046093416453765,0.3326036746299032,0.6184565706538937,-0.30358850619797884,0.3347486377625,-8.98271710523582,-7.795153320579589,6.875405025861236,,,,,,,,,,-2.4299664216814967,-6.9496911113670095,1.0181796428438046,-0.9479270903264232,-0.3683456205624361,0.7342522891921135,,,,,,
65,65,65,65,3.29,-3.15,-11.6,1.03,1.92,-1.72,0.858,-9.31,-7.62,7.57,60.0,3290000000.0,-2.7213275300036877,-11.26604544672817,0.6799667074322443,1.5651595671204288,-1.2402614036586228,0.6941690860652935,-9.14706601582779,-7.7258039896694735,7.222489500764414,,,,,,,,,,-4.211846229394341,-6.932525070123977,2.046582762068312,-0.5135396018288958,-0.3605415757979111,1.121016989702241,,,,,,
66,66,66,66,3.34,-0.453,-11.5,0.5529999999999999,2.51,-1.6,0.7190000000000001,-5.83,-6.54,7.12,60.0,3340000000.0,-1.6688259286726603,-11.358946930612918,0.6167264091411685,2.2524076982905443,-1.4781565424398029,0.7112253857390144,-7.481364849139715,-7.256302972404457,7.1712761364159014,,,,,,,,,,-4.983030466491063,-5.808220296287866,1.8273557763398276,-0.9704193830762432,0.1890863656565671,1.2474479086245365,,,,,,
67,67,67,67,3.39,-0.508,-11.5,-1.04,1.58,-0.682,0.621,-5.31,-5.72,5.29,60.0,3390000000.0,-1.1302039173228324,-11.41495797749916,-0.20846509162516813,1.7633188605097203,-0.9516582324089228,0.6492497177213943,-6.390990115148147,-6.648027161261704,6.231215214389395,,,,,,,,,,-4.202862649891886,-5.098985210365192,0.8258441968430748,-1.035241894447425,0.37034616805768494,1.0317230461336329,,,,,,
68,68,68,68,3.44,-1.88,-10.8,-0.606,1.28,-1.03,0.8170000000000001,-6.27,-4.38,5.42,60.0,3440000000.0,-1.4781085146017938,-11.170763153684364,-0.40647149660998416,1.4117674290714617,-1.0034656220567588,0.7644770790849483,-6.330233590516522,-5.750036447207763,5.8258565217152265,,,,,,,,,,-3.8769636679787953,-4.7986713843798565,0.9945232571562176,-0.467754391441688,0.22998796991375026,1.1380274116082878,,,,,,
69,69,69,69,3.49,-2.06,-9.56,-0.0287,0.545,-2.27,0.603,-5.71,-2.75,6.01,60.0,3490000000.0,-1.7481055297167272,-10.531142141447539,-0.21830896478807127,0.7813072269017903,-1.8410247557438315,0.6535587407387601,-6.018776500694049,-4.562217776706336,5.917871881014955,,,,,,,,,,-3.4356068650425016,-4.114831699440056,1.77094947456218,-0.08365354154847908,-0.5732631918435577,2.2721815834890937,,,,,,
70,70,70,70,3.54,-1.43,-8.44,0.536,-0.13699999999999998,-2.05,0.703,-4.16,-1.42,6.83,60.0,3540000000.0,-1.600504871728099,-9.700766137986296,0.1574014534259732,0.11335853824723795,-1.9792200469947565,0.6875198630043723,-5.085371390877908,-3.3181045605476536,6.3736560664590005,,,,,,,,,,-2.6904247704968247,-3.2163062383427983,2.224697784032235,-0.1109909028402492,-0.7336702991806188,2.636913288345553,,,,,,
71,71,71,71,3.59,-0.917,-8.97,0.584,-0.273,-1.4,0.6709999999999999,-2.83,-1.92,7.13,60.0,3590000000.0,-1.2833593229103015,-9.41058484920667,0.36988402988078894,-0.16766689009274988,-1.596181831452774,0.6761724001094672,-3.9528118398018064,-2.764546368662016,6.751596048227148,,,,,,,,,,-2.0778446864010243,-2.6699803857111197,2.0736109427132847,-0.5145057618631275,-0.4338823100462961,2.3481010438339154,,,,,,
72,72,72,72,3.64,-0.764,-9.27,0.728,-0.368,-1.7,0.79,-1.9,-2.27,7.5,60.0,3640000000.0,-1.042377138685216,-9.35475991058744,0.5482564200394524,-0.3133830898714479,-1.6648368147450725,0.7543603976482933,-2.9219698181780536,-2.568738269954411,7.12556841786891,,,,,,,,,,-2.1142777488245,-2.209750581723967,2.1308082129014787,-0.9086821328547292,-0.450327754098294,2.401013568621325,,,,,,
73,73,73,73,3.69,-0.747,-9.43,1.65,-0.448,-1.11,0.77,-1.13,-2.52,8.6,60.0,3690000000.0,-0.9053224450068624,-9.384637270132606,1.0970189884698955,-0.4112993380839065,-1.29792325518803,0.7651032005320071,-2.022112491897761,-2.5494410878386686,7.86233205199615,,,,,,,,,,-1.8005444833929412,-2.0784834716921683,2.119658609126254,-1.5036794504278963,-0.21674943130906893,1.9339452187863075,,,,,,
74,74,74,74,3.74,-1.61,-9.66,2.39,-0.204,-1.37,0.569,-1.32,-2.85,9.44,60.0,3740000000.0,-1.232292101399286,-9.493981549514386,1.7410342263589738,-0.2605161139617125,-1.345587607532457,0.6304002529385319,-1.6695390197234996,-2.6684427668029005,8.650681796409147,,,,,,,,,,-1.712308346008364,-2.3079179166882717,2.5047079609904634,-1.8597526225200127,-0.2421765411862851,1.8601549063139944,,,,,,
75,75,75,75,3.8,-1.02,-8.87,1.9,-0.262,-1.49,0.403,-0.0514,-2.1,8.92,60.0,3800000000.0,-1.1337887791565675,-9.246203416164834,1.8202127726439,-0.2615954434578637,-1.4410875246640518,0.4741994079222408,-0.8569727394980584,-2.4433764862156666,8.785258310974278,,,,,,,,,,-1.4819276492197584,-1.9430481527706216,2.559466294064655,-2.132910647467364,-0.20485942096340828,2.0784266986899413,,,,,,
76,76,76,76,3.85,-0.321,-8.72,1.81,-0.454,-1.26,0.32,1.27,-2.07,8.84,60.0,3850000000.0,-0.7566556388057095,-9.037252349832023,1.8151259094476653,-0.4015446518360661,-1.3213343437064529,0.3682800946346941,0.21110997080414395,-2.2955437353297823,8.812612437283072,,,,,,,,,,-1.1476591530195146,-1.4360172429849682,2.3236402316760434,-2.5831128265528345,-0.08975691086593486,2.099967821867108,,,,,,
77,77,77,77,3.9,-1.16,-8.84,2.63,-0.454,-0.863,0.375,0.91,-2.37,9.71,60.0,3900000000.0,-0.9438069857757316,-8.95892507828619,2.221002993272097,-0.43969907080805937,-1.0182378398226355,0.3728959860847703,0.5620652874521512,-2.3250235123032708,9.261030924100561,,,,,,,,,,-0.8598339318901138,-1.5461892115277458,2.4271441512507863,-2.841715807150577,0.0984086893564286,1.701630537549026,,,,,,
78,78,78,78,3.95,-2.98,-8.89,3.29,-0.518,-0.735,0.487,-0.486,-2.62,10.4,60.0,3950000000.0,-1.8885984272132943,-8.931555616718043,2.7534549589449804,-0.4966527854401392,-0.8309326742686858,0.4512738293420935,0.03576779262579355,-2.441814907899868,9.830165841940948,,,,,,,,,,-0.6425143042035988,-2.2534241835906057,2.960703434018727,-2.6630117343690305,0.06963179673108134,1.3027633374278125,,,,,,
79,79,79,79,4.0,-2.61,-8.25,3.24,-0.573,-0.8059999999999999,0.528,0.336,-2.2,10.4,60.0,4000000000.0,-2.2233279550872083,-8.660915326723245,2.99579602836812,-0.5521854327882808,-0.8144446937355957,0.5039769021798788,0.18653269048018645,-2.3460720024972432,10.114907908345351,,,,,,,,,,-0.5330923009283882,-2.305362800131985,3.2809066731867467,-2.660279554940838,0.10626861754862367,1.2348352843494064,,,,,,
80,80,80,80,4.05,-0.529,-8.09,0.836,-1.35,-0.21600000000000005,-0.229,2.75,-2.37,8.09,60.0,4050000000.0,-1.4371615456927596,-8.434209472497491,1.9200328025590208,-1.1324914539700988,-0.4186932393499441,0.0004963259134592721,1.4738059523471638,-2.3555458828138907,9.103075261106156,,,,,,,,,,0.7111512797079413,-1.6318892292892295,1.992092157594395,-3.2287206632157517,0.09318263277068384,1.5730519909105527,,,,,,
81,81,81,81,4.1,-1.15,-13.9,3.39,-0.5820000000000001,-0.52,-0.195,2.01,-8.59,11.0,60.0,4100000000.0,-1.3039188772573989,-10.604631069631788,2.652202305946428,-0.7320807583415503,-0.4856873845283281,-0.1337897595645803,1.7430616771524168,-4.823982954275927,10.050955664404082,,,,,,,,,,-0.34809378816801234,-2.8317537235921715,1.4864939745559147,-4.691408687123526,-0.5768615178453124,1.1130400716986724,,,,,,
82,82,82,82,4.15,-2.07,-13.1,4.57,0.424,0.22,0.16699999999999998,1.29,-7.84,12.1,60.0,4150000000.0,-1.659379687360571,-11.595522286187235,3.6074297512765297,0.10881715159341644,-0.019016339008136263,0.07282220655082962,1.5155517612215053,-6.018128959416196,11.074849387209477,,,,,,,,,,-1.2419905936977564,-3.852850472786125,1.645662235623076,-5.230332874408592,-0.07483451299395312,-0.09528530873267893,,,,,,
83,83,83,83,4.2,0.0335,-7.69,-1.01,-0.983,0.381,-0.528,3.14,-2.44,6.67,60.0,4200000000.0,-0.8738852795932524,-10.044670612895294,1.307554621032272,-0.6853373585633452,0.2455144620697644,-0.3398815329015238,2.3312863369428958,-4.601423399240535,8.87377611546126,,,,,,,,,,0.4266060012098281,-2.4256490324368625,0.3840052128925524,-4.599555219955756,0.2740058182536827,0.8807805144012638,,,,,,
84,84,84,84,4.25,-1.98,-9.21,-0.6729999999999999,-0.695,-0.3670000000000001,-0.31,1.07,-4.18,7.17,60.0,4250000000.0,-1.3871213638049429,-9.713229596404537,0.32106895231053056,-0.6923656642855239,-0.15954134238711445,-0.31935596092810203,1.6979175775461943,-4.434567164486261,8.02241080506049,,,,,,,,,,0.2452969541875098,-2.532336657745652,0.4563612278012113,-3.8168906819469086,0.09610861435561956,1.5343816331997524,,,,,,
85,85,85,85,4.3,-1.38,-10.3,0.168,-0.444,-0.265,-0.275,1.7,-5.44,8.1,60.0,4300000000.0,-1.383817056222428,-9.94623151131015,0.2448275146426446,-0.5117120528632995,-0.2292811400563175,-0.2888879316680263,1.6989633127957575,-4.832652982089408,8.061181789206856,,,,,,,,,,-0.1075445483149052,-2.6958054176626294,0.3997752807473122,-3.9380679375009655,0.09491383586417394,1.5286397529896232,,,,,,
86,86,86,86,4.34,-0.6779999999999999,-10.1,-0.496,-0.397,0.0281,-0.0971,2.44,-5.32,7.49,60.0,4340000000.0,-1.0563186666968294,-10.007291901088108,-0.12416797708778035,-0.4282740120614441,-0.05907499936627636,-0.15714912892297048,2.071083052187932,-5.025610668096445,7.7757660156858925,,,,,,,,,,-0.3606396567772594,-2.5080270268742875,0.027982301028100887,-4.065288210022461,0.3439173451130517,1.3404817933944753,,,,,,
87,87,87,87,4.39,-1.35,-9.9,-0.227,-0.4370000000000001,0.4970000000000001,0.13,1.64,-5.24,7.87,60.0,4390000000.0,-1.1925865097760355,-9.96468699291424,-0.17538712300438886,-0.4346210344572388,0.3086573869374028,0.04009311111290925,1.8546099561280207,-5.1104947632741125,7.822854040185912,,,,,,,,,,-0.3667171093438957,-2.717514176321296,-0.0465715643230084,-3.9625035289432167,0.6434873288880405,0.8602897516454822,,,,,,
88,88,88,88,4.44,-0.7659999999999999,-9.34,-0.848,-0.528,-0.129,-0.0506,2.14,-4.86,7.37,60.0,4440000000.0,-0.9946508020324818,-9.716628839661867,-0.5104058870303252,-0.5025420463108387,0.019234574522741958,-0.02220383090395712,1.9979217535344007,-5.011315235516755,7.596565896053673,,,,,,,,,,-0.4135314155700141,-2.425843182743828,-0.06931912252483098,-3.9256005668434137,0.509853045081995,1.3522180365165386,,,,,,
89,89,89,89,4.49,-0.8140000000000001,-10.0,-0.6940000000000001,-0.564,-0.151,-0.205,2.14,-5.67,7.59,60.0,4490000000.0,-0.9108290233765358,-9.829153263390305,-0.6018514685020435,-0.5472446966044218,-0.09334153995163652,-0.14776620416884134,2.0692679580010034,-5.272111451035941,7.593285038655015,,,,,,,,,,-0.3778499475006709,-2.4736815219470683,-0.18782473632932656,-4.110459401499791,0.33216629300129563,1.5691567455186697,,,,,,
90,90,90,90,4.54,-0.7659999999999999,-9.91,-0.615,-0.488,-0.0635,-0.278,2.18,-5.71,7.74,60.0,4540000000.0,-0.8436284951361136,-9.8612567959679,-0.6084005670733426,-0.5041519136872123,-0.07360733181319863,-0.2372235728076137,2.1248733024899487,-5.445486757810656,7.6665973936080185,,,,,,,,,,-0.3213209477823986,-2.529590069978977,-0.2704825193427121,-4.264177886455847,0.3477585393190236,1.600847199045893,,,,,,
91,91,91,91,4.59,-0.984,-9.98,-0.273,-0.422,0.389,-0.267,1.86,-5.89,8.17,60.0,4590000000.0,-0.9087607394408128,-9.908408591795826,-0.4413423850024461,-0.44439710855277625,0.2323148819500189,-0.25767694244562195,1.991864271948813,-5.621484942852092,7.918144293757491,,,,,,,,,,-0.14510442566874332,-2.785028816482878,-0.3400504788360948,-4.388485249930247,0.5633287228419376,1.2455720280144125,,,,,,
92,92,92,92,4.64,-0.8909999999999999,-9.86,0.101,-0.29600000000000004,0.345,-0.29100000000000004,1.73,-5.83,8.65,60.0,4640000000.0,-0.9005197622731075,-9.889185790431618,-0.17120946664808478,-0.33645757677292565,0.3068335463620478,-0.2805664993236541,1.8603662615340348,-5.704043268957799,8.283847426927595,,,,,,,,,,-0.13284425160114738,-2.9180082727711785,-0.2217946766833341,-4.502719880323125,0.6818371240101595,1.1196328479072126,,,,,,
93,93,93,93,4.69,-1.32,-9.65,-0.105,-0.34700000000000003,0.35600000000000004,-0.26,1.11,-5.68,8.53,60.0,4690000000.0,-1.0951581789319524,-9.79420687258799,-0.13823148500306892,-0.3441258162428357,0.3393473247834627,-0.2664393997224083,1.48356160985069,-5.694523635388969,8.40684806176637,,,,,,,,,,-0.06740332276453331,-3.119293570755634,-0.08989106765296764,-4.358520262784341,0.7084895229296219,1.0922183752712342,,,,,,
94,94,94,94,4.74,-1.4,-9.78,-0.333,-0.393,0.359,-0.297,0.8140000000000001,-5.88,8.39,60.0,4740000000.0,-1.2366044545560733,-9.788565330956505,-0.23524287417848105,-0.3796754129870309,0.3523436365827724,-0.2874314173242165,1.1473338995036366,-5.767960218121765,8.39842937133256,,,,,,,,,,0.002962751359466396,-3.3152125987443437,-0.08458733848423859,-4.2457757295934435,0.6708056250262011,1.1271162619867556,,,,,,
95,95,95,95,4.79,-1.2,-10.2,-0.14400000000000002,-0.287,0.241,-0.327,0.81,-6.34,8.66,60.0,4790000000.0,-1.219620047986382,-9.951942675067473,-0.1897961119906748,-0.31226614208844616,0.27871209082927856,-0.3146110033777314,0.97793797841245,-5.994450704616918,8.529134360978956,,,,,,,,,,-0.13330554475159528,-3.468497794646737,-0.0768781979538634,-4.3217839369934286,0.5940092897740018,1.1807085292967148,,,,,,
96,96,96,96,4.84,-1.76,-10.7,0.00239,0.0101,0.17800000000000002,-0.197,0.0895,-6.89,8.85,60.0,4840000000.0,-1.470355777078731,-10.2489901863283,-0.09407098261032017,-0.07778683430372674,0.21211119022197555,-0.2338242050939853,0.5317990918773818,-6.349029735084894,8.689468931281807,,,,,,,,,,-0.543124557533202,-3.874807689914768,0.06796928408689537,-4.240499694889174,0.5771274406834769,1.0666832600563445,,,,,,
97,97,97,97,4.89,-2.18,-12.2,-0.441,0.383,-0.129,0.077,-0.389,-8.27,8.38,60.0,4890000000.0,-1.7996299865417664,-11.023720519674974,-0.2668713276356626,0.2573754572111037,-0.01346562518876937,-0.020319592923182028,0.06940971625248983,-7.109608791385423,8.534829466204068,,,,,,,,,,-1.505948147370113,-4.434158800095611,0.06791586531664531,-4.116610460034422,0.3694250004513455,0.9675118383257272,,,,,,
98,98,98,98,4.94,-2.33,-11.8,0.364,1.0,-0.633,0.594,-0.324,-7.63,9.03,60.0,4940000000.0,-2.045721083620637,-11.331974974835058,0.04735657424215274,0.7975379191293399,-0.42316369946621146,0.4016554675574796,-0.1281452937285063,-7.3156497980097175,8.782262684054379,,,,,,,,,,-2.818042301513054,-4.564241681272751,0.6552660447711028,-3.8871652826200034,0.4071235924312052,0.8580198493665863,,,,,,
99,99,99,99,4.99,-0.867,-9.96,1.28,1.91,-0.6609999999999999,0.7979999999999999,1.59,-5.35,9.58,60.0,4990000000.0,-1.4987957240143532,-10.787174689102152,0.6613184647573378,1.6067089116570288,-0.5804448467339456,0.6739038308728247,0.7346402512141239,-6.537380705580647,9.180886562452288,,,,,,,,,,-3.6742911820250006,-3.675295928253543,1.2429604329295945,-3.9053631111328686,1.22623955320447,0.6341183400215221,,,,,,
100,100,100,100,5.04,0.204,-9.57,0.271,2.26,-0.305,0.5820000000000001,3.02,-4.2,7.98,60.0,5040000000.0,-0.7087002877503341,-10.303844223699976,0.4669064682323442,2.081892934194116,-0.3982931825467708,0.6107752591360447,1.88225873766066,-5.611930392701613,8.580811716195223,,,,,,,,,,-3.6532879398361686,-2.5907026043651045,0.9432520592358448,-3.902054669515081,2.0140240494683206,0.4929778557297831,,,,,,
101,101,101,101,5.09,-0.716,-10.9,-0.8809999999999999,1.34,-0.737,0.433,2.41,-4.83,6.18,60.0,5090000000.0,-0.712087356126299,-10.540572767902676,-0.2044662860909855,1.5422626463514904,-0.6222799832428755,0.4886617379216901,2.1472698513807567,-5.302336950604829,7.381142328241018,,,,,,,,,,-3.2856860870898053,-2.2358993945741803,0.4759014253887109,-3.6035037938457215,1.3669565950105156,0.9609556279781196,,,,,,
102,102,102,102,5.14,-1.56,-11.3,0.273,0.568,-0.7759999999999999,0.515,1.95,-4.93,6.9,60.0,5140000000.0,-1.1055179110181068,-10.842135329935427,0.03335278268030384,0.8336137002950663,-0.7239350408684435,0.5067534350658126,2.048208653007014,-5.154915746452391,7.140718823613298,,,,,,,,,,-2.8415892145956376,-2.3258505850033826,0.546961373644713,-3.4730217033474284,0.583242279735515,1.040617446369671,,,,,,
103,103,103,103,5.19,-1.19,-9.7,0.804,0.393,-1.36,0.501,2.82,-3.33,7.08,60.0,5190000000.0,-1.1447175386472164,-10.388602439962275,0.4172010520635356,0.51312472667927,-1.1445647888017914,0.5028014015604397,2.4357721203077576,-4.432368162615836,7.1103780018865255,,,,,,,,,,-2.64652430111386,-1.7540246599233114,1.0519735425268804,-3.3275492993346147,0.18790203048745616,1.5007573633242228,,,,,,
104,104,104,104,5.24,-0.826,-8.91,0.879,-0.0186,-1.17,0.423,3.72,-2.54,6.78,60.0,5240000000.0,-0.9968329219864596,-9.801461164006236,0.6472164488490166,0.12636436405475074,-1.1613850648274586,0.4479859613383606,3.080661268049921,-3.683113838582088,6.9452904639495445,,,,,,,,,,-2.059343578119287,-1.0938120531447213,1.2012418193106926,-3.3220786216017406,0.09826528506744814,1.6549433068178965,,,,,,
105,105,105,105,5.29,-0.342,-8.93,1.41,-0.0785,-0.927,0.262,4.62,-2.64,7.06,60.0,5290000000.0,-0.6929911334433685,-9.455411019648668,1.0271479129764884,-0.022647733294174882,-1.0063862193138942,0.3202325202675909,3.853657060085202,-3.2701088667684,7.0026100111229725,,,,,,,,,,-1.5497840049598166,-0.58048141350841,1.1874103018185742,-3.622049798950392,0.2056771087233529,1.5622453587734455,,,,,,
106,106,106,106,5.34,0.302,-8.66,1.63,-0.0877,-0.609,0.155,5.55,-2.42,7.07,60.0,5340000000.0,-0.23131629282365285,-9.139559598225695,1.327419836696578,-0.06996477109238282,-0.7435947423261525,0.2067345867977476,4.705494392641657,-2.933521258233585,7.036284416459004,,,,,,,,,,-1.1070199812401027,-0.03478485303907159,1.0304456903221246,-3.996639150504168,0.48131596667962107,1.3528944308459658,,,,,,
107,107,107,107,5.39,-0.0431,-9.0,2.06,-0.1,-0.325,0.07400000000000001,5.38,-2.81,7.4,60.0,5390000000.0,-0.14398412920677447,-9.084141596805301,1.692307417261492,-0.0918114823995433,-0.4667780438466818,0.1155594278304362,5.044204848368559,-2.8846148775001885,7.218030669929522,,,,,,,,,,-0.7480097213758274,0.03042767206816164,0.972430586622274,-4.262207541893671,0.6379060553235472,1.0395228057460029,,,,,,
108,108,108,108,5.44,-1.07,-9.36,2.99,0.0058,-0.182,0.0923,4.41,-3.19,8.28,60.0,5440000000.0,-0.57365455072871,-9.193682628365798,2.3386693732858665,-0.020811864737336053,-0.27845432951384075,0.09958256530865016,4.725731842201578,-3.005527481246649,7.748689395142231,,,,,,,,,,-0.5879990526189601,-0.4192565656974612,1.3002162132612478,-4.317667120197799,0.6726291003462179,0.6426324449691797,,,,,,
109,109,109,109,5.49,-1.47,-8.94,2.41,-0.155,-0.63,0.0386,4.14,-2.77,7.58,60.0,5490000000.0,-0.9895579165810992,-9.092947116855587,2.3741981719856007,-0.1184162259875221,-0.5109314677517577,0.0576937469906868,4.431600097997304,-2.9122739600912064,7.664396412432607,,,,,,,,,,-0.518922719261559,-0.5677227502362228,1.5900459618508096,-4.064611595497179,0.3939112097746376,0.900311333741125,,,,,,
110,110,110,110,5.54,-1.3,-8.83,2.84,-0.304,-0.86,0.185,4.49,-2.71,7.85,60.0,5540000000.0,-1.1336026970261204,-8.988532887317009,2.6062072987923943,-0.2534042006725692,-0.7417704871602323,0.14514019509781878,4.460926135209121,-2.8321866860634084,7.757141216394937,,,,,,,,,,-0.6401754129548465,-0.4890220826816965,1.9062354634117968,-4.0136549183650265,0.14115581877478442,1.0586501411459237,,,,,,
111,111,111,111,5.59,-2.38,-8.87,3.18,-0.493,-0.0354,0.462,3.66,-2.91,8.1,60.0,5590000000.0,-1.711929797328689,-8.941464379358411,2.8920051973564225,-0.42767888425667616,-0.2746477047508293,0.36279065920981335,4.058732323620888,-2.8629957147819733,7.928465611613164,,,,,,,,,,-0.3917183283460349,-0.9448304398622004,2.063929261639717,-3.8099737217903313,0.30154885621931143,0.3764306102209926,,,,,,
112,112,112,112,5.64,-1.93,-8.65,3.44,-0.449,-0.229,0.355,4.25,-2.92,8.45,60.0,5640000000.0,-1.813114119340853,-8.825726051540588,3.1649535301291287,-0.4431872148090781,-0.24446088038167485,0.35743926141396953,4.15477948784565,-2.8855657222120352,8.189072706595901,,,,,,,,,,-0.3062938154916452,-0.983322976488962,2.2366590009339458,-3.922382565289797,0.31675881360329355,0.3022544871830878,,,,,,
113,113,113,113,5.69,-0.541,-9.48,1.83,-0.978,-0.0648,-0.208,5.74,-3.92,6.9,60.0,5690000000.0,-1.2228545001782345,-9.085532827267091,2.5000324599670503,-0.8321937262886514,-0.12565114666359045,-0.030959998727776494,4.9508152622234975,-3.295134226064776,7.544931881417949,,,,,,,,,,0.32714739669368764,-0.7007160814515259,1.2784818180252766,-4.491458225250526,0.02503867655446885,0.6310990877829254,,,,,,
114,114,114,114,5.74,-0.493,-13.7,3.12,-0.355,-0.111,0.00863,5.76,-8.27,8.4,60.0,5740000000.0,-0.8842027744769003,-10.917900797753674,2.8088292892488385,-0.4850975438337676,-0.1159623447586095,-0.0037656965828878897,5.357156379824533,-5.26485662685726,7.972203419862697,,,,,,,,,,-0.7561191062926547,-1.4645515655770351,0.6320750485108103,-5.623101472281208,-0.4053072547640126,0.1566021895226754,,,,,,
115,115,115,115,5.79,-0.843,-10.9,2.71,-0.0535,0.927,0.0129,5.37,-5.52,8.07,60.0,5790000000.0,-0.8650847277061385,-10.910792382508564,2.759603865265624,-0.17116664309849727,0.5737486135305927,0.007681942067780572,5.363605887278489,-5.3658767460961085,8.021071553980457,,,,,,,,,,-0.537030261002614,-1.6952262163073262,0.2881045996803239,-5.697963704444014,0.3324800595194842,-0.6184511069903059,,,,,,
116,116,116,116,5.84,-0.335,-8.07,-0.51,-0.711,0.202,-0.339,5.59,-2.77,5.23,60.0,5840000000.0,-0.619125971389968,-9.782736303223023,1.1310613612906155,-0.5638249945793188,0.32791127115871643,-0.23045327913928346,5.477292253900188,-4.33807893688644,6.626392072029206,,,,,,,,,,0.21135059063121367,-0.8561082432199247,-0.16148318299417838,-4.956219978508842,0.3978258653537762,0.4582479631460602,,,,,,
117,117,117,117,5.89,-1.84,-10.1,0.11,-0.463,0.221,-0.313,3.96,-4.83,6.01,60.0,5890000000.0,-1.1856102614240258,-9.908719333859748,0.6224854296573489,-0.4904879656846127,0.2572108512869071,-0.2871544754546533,4.715367304623624,-4.532847548147704,6.318385256106301,,,,,,,,,,0.1914693323591,-1.4001319360222269,-0.18098158759595068,-4.512685233753809,0.3053595552068393,0.6231958299074657,,,,,,
118,118,118,118,5.94,-1.14,-10.1,-0.199,-0.491,0.243,-0.191,4.5,-4.84,5.87,60.0,5940000000.0,-1.1644471411079187,-9.984675509593373,0.21331538974496705,-0.4908604014141952,0.2478132162283759,-0.2211061312205293,4.607218247410064,-4.654459936752769,6.09433013301532,,,,,,,,,,0.029253633129424143,-1.449035592248875,-0.3643296637656139,-4.404524084958603,0.3244297890852758,0.6880600338752264,,,,,,
119,119,119,119,5.99,-1.07,-10.0,-0.184,-0.404,0.974,-0.126,4.38,-4.84,6.12,60.0,5990000000.0,-1.1206237905849061,-9.990760742296231,0.015418326731734294,-0.4276808026137094,0.7280404995081841,-0.15577789447737622,4.493118166595182,-4.727921755092658,6.107157133947327,,,,,,,,,,0.19874393482759029,-1.6232193066063703,-0.6733113524280303,-4.403775992354898,0.7602009592992629,0.20544084504516189,,,,,,
120,120,120,120,6.04,-1.54,-9.82,-0.23,-0.422,0.723,0.0215,3.55,-4.71,6.42,60.0,6040000000.0,-1.315213896177824,-9.922952894669383,-0.10682100279180096,-0.4235487533175872,0.7247072107120097,-0.03400601283738912,4.0195209978259925,-4.720825924635218,6.263482626614655,,,,,,,,,,0.06938425829409231,-1.8450798386743483,-0.5327190636196986,-4.169978076216589,0.8196075093735364,0.19886017551963714,,,,,,
121,121,121,121,6.09,-1.02,-9.5,-0.654,-0.39,0.373,-0.0616,3.9,-4.48,6.19,60.0,6090000000.0,-1.1782349477374647,-9.755001679449897,-0.3793629583098917,-0.3991464021034112,0.492123240093914,-0.05296027498136025,3.9595022640595214,-4.625474580743085,6.22676388596849,,,,,,,,,,-0.0617000155406173,-1.6973723211373175,-0.4970182643660869,-4.081802033033831,0.7853083325294395,0.5731864031008275,,,,,,
122,122,122,122,6.14,-1.15,-9.83,-0.56,-0.369,0.494,-0.195,3.57,-4.87,6.46,60.0,6140000000.0,-1.165133950405118,-9.784782883032854,-0.4693356635818016,-0.3772188190410133,0.4933643333227705,-0.15052711314760425,3.7639093910655017,-4.722290645341509,6.343310406480166,,,,,,,,,,0.034920445278217326,-1.8376008769457255,-0.5570633614044646,-4.1136791678813065,0.7893554537844509,0.6708936267253524,,,,,,
123,123,123,123,6.19,-1.29,-9.92,-0.591,-0.35,0.332,-0.234,3.22,-5.0,6.59,60.0,6190000000.0,-1.2230716493429077,-9.838476550136184,-0.5299349242902255,-0.35742067519283816,0.3866540961603359,-0.20786449391173786,3.490779331412453,-4.832245428305322,6.4665795964673265,,,,,,,,,,0.006068246273851399,-2.0014067586896056,-0.5132813822635173,-4.086561038064558,0.7009998472234159,0.8390151597576504,,,,,,
124,124,124,124,6.24,-1.04,-9.88,-0.393,-0.289,0.3670000000000001,-0.311,3.27,-4.97,6.91,60.0,6240000000.0,-1.1381265774948603,-9.85496522576205,-0.4617296176373116,-0.3076535643826223,0.3736568519435798,-0.2787080886425968,3.3799125559332115,-4.886787166671162,6.6881536830286645,,,,,,,,,,0.0435511420557089,-2.0665276497683074,-0.5010442638133035,-4.175589757620669,0.7241622238594035,0.8966198803982857,,,,,,
125,125,125,125,6.29,-0.943,-9.8,-0.247,-0.34700000000000003,0.498,-0.224,3.12,-4.9,7.21,60.0,6290000000.0,-1.0475880578999777,-9.833139049505203,-0.35477589036146884,-0.336272964700838,0.4558849693586277,-0.2411292012963224,3.2493945541039886,-4.892018624246298,6.9489167609763625,,,,,,,,,,0.06952762525242928,-2.1134913100984405,-0.4762879835936943,-4.232939360990984,0.7958815357493887,0.8077091095435412,,,,,,
126,126,126,126,6.34,-1.27,-9.48,-0.35200000000000004,-0.3670000000000001,0.369,-0.238,2.89,-4.94,7.35,60.0,6340000000.0,-1.1507869579614405,-9.692910172636584,-0.35339325847525305,-0.35862288369630235,0.3984279336761901,-0.23897976206879906,3.0689206845132766,-4.9110161407521975,7.149335282686686,,,,,,,,,,0.08600741317967922,-2.2129307242715446,-0.3350654651834451,-4.196158622038348,0.7873953200759568,0.9141088553159789,,,,,,
127,127,127,127,6.39,-1.67,-10.0,-0.429,-0.43,0.4370000000000001,-0.366,1.92,-5.02,7.2,60.0,6390000000.0,-1.3917012474383406,-9.814853089536454,-0.39105188064291857,-0.4105404281744042,0.42393564424090097,-0.3262297429797097,2.4919775236111543,-4.954166629894581,7.174652002375884,,,,,,,,,,0.27430389484856743,-2.5577227324853307,-0.3231812085598842,-4.015260513914943,0.6753660046851295,0.9436187279563792,,,,,,
128,128,128,128,6.44,-1.39,-10.1,-0.261,-0.28300000000000003,0.199,-0.392,1.94,-4.91,7.39,60.0,6440000000.0,-1.3909118637656843,-9.928082800930614,-0.3262749190727089,-0.3177714017977893,0.27518571005426123,-0.3714072124861324,2.214795976961777,-4.936679466064461,7.282259866882249,,,,,,,,,,0.16000529377598735,-2.6427678098245138,-0.22199664298726987,-3.9443975180314417,0.5917999570284107,1.0853412773184865,,,,,,
129,129,129,129,6.49,-1.72,-9.97,-0.136,-0.153,0.21600000000000005,-0.287,1.45,-4.73,7.52,60.0,6490000000.0,-1.5436084286488103,-9.944727891811516,-0.2315017310087027,-0.1979217032408556,0.23604620546851,-0.3134280435755099,1.830745301968472,-4.854847891593663,7.401056986535917,,,,,,,,,,0.014503062103969531,-2.79638006394239,-0.0327577425274738,-3.7446171355679407,0.6417373878212556,1.0407640303920875,,,,,,
130,130,130,130,6.54,-1.54,-10.6,-0.302,0.0327,0.343,-0.187,1.44,-5.29,7.4,60.0,6540000000.0,-1.5419341038232088,-10.204931362044347,-0.2666158946979485,-0.03017450531081445,0.3067747431286395,-0.2265848420790856,1.6345282860939825,-5.027139716262161,7.400528865200112,,,,,,,,,,-0.26243079026831195,-2.965363542444185,-0.1077228365459483,-3.702704015511049,0.7437497504233075,0.8445223296140679,,,,,,
131,131,131,131,6.59,-2.43,-12.0,-0.613,0.407,-0.382,0.321,0.476,-6.68,7.07,60.0,6590000000.0,-1.9539957833846824,-10.917738776171882,-0.4391448075181729,0.28781291134930226,-0.1487119734544795,0.14955025186359006,1.0527605896036911,-5.681564465894391,7.235365922828593,,,,,,,,,,-1.5554559957682754,-3.4496148750100346,0.13558912458296565,-3.387445158876212,0.4121348372687582,0.8936726625905386,,,,,,
132,132,132,132,6.64,-1.38,-11.6,0.6920000000000001,1.28,-0.836,0.8170000000000001,1.91,-6.03,8.08,60.0,6640000000.0,-1.687662336997278,-11.188659408591104,0.1242620859958099,1.0094995432267877,-0.6032155415912084,0.6080203177999115,1.4832327571075972,-5.819522283865657,7.6574237941691985,,,,,,,,,,-3.1274565746785665,-3.1372041494698166,0.710743818388285,-3.491583132530548,0.6273987039379851,0.7400684295827985,,,,,,
133,133,133,133,6.69,0.163,-10.4,0.903,2.18,-0.409,0.6629999999999999,3.95,-4.38,7.69,60.0,6690000000.0,-0.8289569437668269,-10.875488907088805,0.5121402032580138,1.8608859545785383,-0.4747808158874666,0.6457857585275126,2.7219470424875416,-5.2495654384963695,7.673701931475255,,,,,,,,,,-3.638612225143304,-2.1858561100123453,0.7137263408743426,-3.7999973834741785,1.571638259761516,0.3568708123281517,,,,,,
134,134,134,134,6.74,0.354,-10.1,-0.192,1.95,-0.304,0.262,4.41,-3.54,5.82,60.0,6740000000.0,-0.28006615600235363,-10.567548609462275,0.16141812710436734,1.9257048302684399,-0.3618434609782789,0.3821639766039045,3.5696212969355106,-4.572689064713766,6.747419757143412,,,,,,,,,,-3.1527338925612587,-1.3669576954622749,0.23359427128485144,-3.7803650618463336,1.8279709321667257,0.4746691375007518,,,,,,
135,135,135,135,6.79,-1.02,-10.9,-0.414,1.11,-0.759,0.256,3.22,-3.87,4.95,60.0,6790000000.0,-0.6233946781937361,-10.69956224898958,-0.12518934165134654,1.3323860046683502,-0.6244830705769409,0.2955021661870506,3.394055137451519,-4.294470002630002,5.849261221826876,,,,,,,,,,-2.7351103764286937,-1.2858236523564532,0.13824172809881813,-3.373309056374612,1.0636873705842231,0.8837663253162824,,,,,,
136,136,136,136,6.84,-1.89,-10.0,0.29,0.402,-1.08,0.429,2.71,-2.85,5.16,60.0,6840000000.0,-1.211098218397081,-10.421771669186793,0.08161047457173196,0.6556515844462211,-0.9257164307772744,0.3872015921583181,3.0505493569376068,-3.722554100415112,5.504841996244457,,,,,,,,,,-2.3285890323616854,-1.2028116352247058,0.6130718761940497,-2.849921160115096,0.35235069114872464,1.2054940230352158,,,,,,
137,137,137,137,6.89,-1.11,-8.95,0.747,-0.14300000000000002,-1.31,0.481,3.9,-1.83,5.26,60.0,6890000000.0,-1.164188757256208,-9.837342822582238,0.41303138594386696,0.07473675492115163,-1.1798431057851833,0.451631561609359,3.4771103740385825,-2.9732261892413137,5.382496228680061,,,,,,,,,,-1.91638388718504,-0.5506618931659824,0.9925381056401422,-2.7301853291449154,-0.05765767366088127,1.5474278570461215,,,,,,
138,138,138,138,6.94,-0.575,-9.25,0.706,-0.275,-1.03,0.505,4.86,-2.26,4.93,60.0,6940000000.0,-0.8908057835367955,-9.604113680409704,0.5589548106850664,-0.179651107176244,-1.0807518454855614,0.4882902469731186,4.171543653867042,-2.6908351549631,5.1563868519334575,,,,,,,,,,-1.6628060518616734,-0.04395776354833512,0.8981279059453555,-2.9044373458542743,-0.07998355431366852,1.4558978904332949,,,,,,
139,139,139,139,6.99,-0.14400000000000002,-9.29,1.15,-0.235,-0.92,0.513,5.22,-2.44,4.74,60.0,6990000000.0,-0.5442886768479661,-9.47938163243556,0.8533458795160241,-0.21991020469797185,-0.9744466659045196,0.5052633417348137,4.6980374170287185,-2.5915208241011967,4.948321056807922,,,,,,,,,,-1.5907522315511662,0.3648468111783152,0.8142915540264798,-3.1250012127989333,-0.022768791549357955,1.2607409465766246,,,,,,
140,140,140,140,7.04,0.0311,-9.51,1.55,-0.0492,-0.458,0.436,6.12,-2.86,5.39,60.0,7040000000.0,-0.27730893187435485,-9.49154003245192,1.2003392212735091,-0.09574080279043004,-0.6329205040069767,0.4576864640914628,5.412091486811407,-2.6978210170415573,5.169024957000374,,,,,,,,,,-1.429404166725054,0.5347811554246268,0.6405416378247601,-3.59567554868098,0.3011778108707969,0.8204137908527948,,,,,,
141,141,141,141,7.09,-0.735,-9.65,2.08,0.0834,-0.384,0.294,5.53,-3.08,5.79,60.0,7090000000.0,-0.4896771162416974,-9.554463068043956,1.6384855246789891,0.03456076070621873,-0.4683093843501609,0.34525051297013376,5.4713006469560215,-2.8491389256057778,5.479321947686943,,,,,,,,,,-1.239273666639791,0.2980747450285399,0.7633148864481624,-3.788756663779527,0.3941685982174384,0.5499073935756161,,,,,,
142,142,142,142,7.14,-1.29,-9.28,2.47,0.124,-0.454,0.0691,5.1,-2.71,5.97,60.0,7140000000.0,-0.8610260809790546,-9.445475870557821,2.052650901304361,0.09961613635125184,-0.4588465863841855,0.15556320003577526,5.284847901516535,-2.7940490054582443,5.724510331657271,,,,,,,,,,-0.9007589616121732,0.0536773452048929,1.051988833232791,-3.7801102240839173,0.3542334236641945,0.5280340398939525,,,,,,
143,143,143,143,7.19,-1.62,-8.63,2.52,0.0107,-0.585,0.0337,4.84,-2.02,5.8,60.0,7190000000.0,-1.2131891891638833,-9.121656963185352,2.2854307345629703,0.034941248699011086,-0.5422718208499526,0.0718555776420663,5.061462719005733,-2.4875761010780484,5.762232101319624,,,,,,,,,,-0.6038085872047966,0.006736575573716965,1.400345646946618,-3.5565660804822814,0.27179561113441103,0.6438624645344913,,,,,,
144,144,144,144,7.24,-1.58,-8.12,2.7,-0.241,-0.315,0.1,4.98,-1.54,5.83,60.0,7240000000.0,-1.3833890423131243,-8.723906940568687,2.4919217276775942,-0.16577000423009425,-0.39197697093420575,0.09118793402884676,5.020555329598876,-2.1123977825143765,5.796095221715075,,,,,,,,,,-0.194152637359013,0.09581734577597352,1.5885408144059752,-3.410916829844713,0.33579376416996565,0.5190139632320973,,,,,,
145,145,145,145,7.29,-2.03,-8.83,3.42,-0.174,-0.211,-0.00848,5.01,-1.58,5.85,60.0,7290000000.0,-1.683415838270771,-8.766035616524693,2.954184162037162,-0.17175624871303827,-0.27229690246584204,0.022726201169479918,5.015254969856078,-1.9016030183984016,5.823031025511527,,,,,,,,,,0.09060047989814364,0.002661432612159384,1.776759565471142,-3.3482848812190036,0.2994256503303948,0.26188577413786984,,,,,,
146,146,146,146,7.34,-2.0,-8.31,3.22,-0.31,-0.225,0.0386,4.64,-1.79,6.3,60.0,7340000000.0,-1.830310558763964,-8.584947683402907,3.0865832097648225,-0.2723105423368253,-0.2410194583363632,0.033629887333130534,4.826816498589426,-1.8574154904858644,6.061369276588483,,,,,,,,,,0.2457452846314301,-0.10552857712692287,1.9474313119346611,-3.3141910780454547,0.2919125984068642,0.25585573508497816,,,,,,
147,147,147,147,7.39,-0.225,-10.2,1.18,-1.0,0.622,-0.37,6.36,-3.72,4.45,60.0,7390000000.0,-1.0854481328550771,-9.22627197885053,2.136941596623468,-0.8016096784616915,0.3296952698070159,-0.2436227920818962,5.596721498525096,-2.594877427600184,5.256178902278175,,,,,,,,,,0.958404552131934,-0.019772657212864718,0.4487378802406341,-4.0090532908080485,0.14512282656720346,0.10054829417020038,,,,,,
148,148,148,148,7.44,-1.71,-15.6,3.85,0.183,-0.202,0.0282,4.71,-9.07,7.44,60.0,7440000000.0,-1.3752395648086797,-11.757228603548935,2.9901912224128937,-0.08543460424779759,-0.021914800884891058,-0.056908182854558974,5.151444579084991,-5.1586033216461615,6.347419495346887,,,,,,,,,,-0.9855507524598855,-1.5980090908002116,0.3960338929161809,-5.024538977152983,-0.6004132715256382,-0.4394286358689952,,,,,,
149,149,149,149,7.49,-0.596,-8.52,-0.278,-0.6779999999999999,1.25,-0.00848,5.83,-2.06,3.35,60.0,7490000000.0,-1.01367322765177,-10.471751171239703,1.3623523321349646,-0.5164485960438624,0.8192024189460685,-0.0236429474680762,5.492188597385441,-3.931758578035722,4.849629291948421,,,,,,,,,,0.21664799963111092,-0.7578706087464453,-0.5409216999943484,-4.293147312968215,0.3466859670899369,-0.6281204376133852,,,,,,
150,150,150,150,7.54,0.0886,-8.14,-0.429,-0.541,0.268,-0.45,6.2,-1.71,3.75,60.0,7540000000.0,-0.5022195998831669,-9.545831547391712,0.470105587488605,-0.5343065453528686,0.4546922801770236,-0.316506866147155,5.847623770722241,-3.0520871735492543,4.300152006234868,,,,,,,,,,0.6282725747681742,0.08945816181617472,-0.6843451803014294,-4.003372102631895,0.5313594788737503,0.3612861524521207,,,,,,
151,151,151,151,7.59,-2.35,-10.7,0.723,-0.339,0.6759999999999999,-0.132,3.56,-4.29,5.15,60.0,7590000000.0,-1.3595877319981935,-10.00414254275901,0.5960686404020115,-0.3922465062619071,0.601043068054462,-0.1897694162974029,4.6988683424846815,-3.5422198596932075,4.724815322049227,,,,,,,,,,0.4134816484376726,-0.9605063163174996,-0.4172986668273221,-3.676568295980743,0.49751875037153104,-0.01952503117852233,,,,,,
152,152,152,152,7.64,-0.943,-10.1,-0.28,-0.419,-0.0635,-0.153,4.83,-3.6,4.32,60.0,7640000000.0,-1.166291467943906,-10.04220692463861,0.15971149067091828,-0.4117061821560361,0.1615807556608947,-0.1645125654503795,4.764717506102153,-3.5650969871445297,4.522531941932363,,,,,,,,,,0.02252482976800312,-0.7424585526658818,-0.4410661146212135,-3.60263224583946,0.24031829652725245,0.5512637988615445,,,,,,
153,153,153,153,7.69,-1.64,-10.0,-0.225,-0.433,0.951,0.0544,4.0,-3.63,4.6,60.0,7690000000.0,-1.3860917255758416,-10.025446892083984,-0.031907748926117835,-0.4271946551407087,0.6836236619637893,-0.01414189985698161,4.380706212167887,-3.590794390403858,4.561242156534635,,,,,,,,,,0.21444812000282626,-1.0878963372672474,-0.6308390105180245,-3.4154407311099644,0.6467349036733192,-0.018498020700206244,,,,,,
154,154,154,154,7.74,-1.09,-9.75,-0.244,-0.361,0.334,0.0624,4.37,-3.44,4.9,60.0,7740000000.0,-1.2487054895490677,-9.91606913196699,-0.13754784030829453,-0.3790466812269386,0.4524175390749948,0.038434598486710506,4.375329912682752,-3.5310896743069042,4.7305171968656765,,,,,,,,,,-0.04229829429514882,-0.9574292499255752,-0.5006903653725708,-3.396949691367669,0.6260059544647121,0.26395853436689376,,,,,,
155,155,155,155,7.79,-1.26,-9.52,-0.522,-0.328,0.16899999999999998,-0.0451,4.14,-3.26,4.75,60.0,7790000000.0,-1.253946126180533,-9.758793425898553,-0.3290379212179261,-0.3419168874728481,0.2649935287931897,-0.018945173526607108,4.257156345554149,-3.423755849029709,4.740252621215251,,,,,,,,,,-0.07026266218504135,-0.9131974808714164,-0.4168755503340225,-3.2857350041498785,0.5986426054801032,0.5790414831010924,,,,,,
156,156,156,156,7.84,-1.38,-9.88,-0.297,-0.425,0.0464,-0.116,3.94,-3.65,5.1,60.0,7840000000.0,-1.3124349898059449,-9.806923633517377,-0.3130802904164398,-0.4023490203474171,0.12043763434178326,-0.08561196479020156,4.09789283230833,-3.513333807372047,4.920015894422277,,,,,,,,,,-0.04745023015680462,-1.0300191720049787,-0.3357767876297957,-3.3196059116596515,0.4228444022377543,0.7917831915165664,,,,,,
157,157,157,157,7.89,-1.47,-9.68,-0.294,-0.445,-0.08800000000000001,-0.227,3.78,-3.48,5.2,60.0,7890000000.0,-1.3855450032956609,-9.756523393908337,-0.30357667294755625,-0.43337203801163376,-0.017402166706725425,-0.18273116194933425,3.9382594410498655,-3.500135802349,5.05992195430789,,,,,,,,,,0.04408799020509288,-1.105455962927783,-0.2290567736761528,-3.3040303077813964,0.30079848131760106,1.0231017125893866,,,,,,
158,158,158,158,7.94,-1.33,-9.88,-0.223,-0.359,0.0428,-0.239,3.85,-3.69,5.35,60.0,7940000000.0,-1.359772199674327,-9.805555013093672,-0.2634425972140597,-0.3792760820444297,0.022409525528472654,-0.2213821250549762,3.8939389455581375,-3.5753096579890085,5.204871935139459,,,,,,,,,,0.06427553062484434,-1.186014531576269,-0.24936380135147834,-3.3778487099915564,0.3521418895489606,0.9918435125313768,,,,,,
159,159,159,159,7.99,-1.0,-9.71,-0.254,-0.359,0.174,-0.278,4.04,-3.51,5.43,60.0,7990000000.0,-1.1928382746677362,-9.76761089599498,-0.25873937982497897,-0.3645278759446468,0.12265629845724292,-0.26027284411529544,3.967285088955125,-3.5494512913269864,5.317366813731042,,,,,,,,,,0.16896169257807847,-1.131609726209278,-0.3435809044509207,-3.484429520663736,0.4738152389570742,0.9404609434566692,,,,,,
160,160,160,160,8.04,-1.82,-10.0,-0.28300000000000003,-0.363,0.331,-0.333,3.05,-3.78,5.53,60.0,8040000000.0,-1.4838406847328405,-9.8598907524833,-0.27082324088166176,-0.3634165495311444,0.2604339822215601,-0.31022900548908544,3.5066602838257146,-3.640733524545492,5.423618277005172,,,,,,,,,,0.3487792443871774,-1.513039951666041,-0.3361033895298489,-3.356232856943456,0.4987597852422778,0.8157155085019298,,,,,,
161,161,161,161,8.09,-1.35,-9.75,-0.584,-0.24,0.529,-0.335,3.27,-3.5,5.4,60.0,8090000000.0,-1.4217387578240002,-9.816254012662943,-0.426812061548674,-0.2736471084573328,0.4380366713499578,-0.3272441647919439,3.387818713685097,-3.5850122321671303,5.411816432115427,,,,,,,,,,0.4403105593940909,-1.5603793090728382,-0.4760052372652306,-3.3011353287947443,0.7388805571454896,0.6869233465314252,,,,,,
162,162,162,162,8.14,-1.63,-10.1,-0.0215,-0.205,0.398,-0.266,2.74,-3.79,6.11,60.0,8140000000.0,-1.5183717545331832,-9.928927428676488,-0.2249319722344558,-0.22371529239519167,0.4115604230435225,-0.285175655020354,3.0625094369525216,-3.6661739969754312,5.760694083868767,,,,,,,,,,0.3222484464075951,-1.7802592437888791,-0.30577899921556445,-3.2871099144747404,0.7153728154219329,0.6344345245436538,,,,,,
163,163,163,163,8.19,-2.18,-11.0,-0.443,0.0363,0.5670000000000001,-0.208,1.95,-4.66,5.8,60.0,8190000000.0,-1.825366600591388,-10.354241789233493,-0.3335485048162316,-0.03458809247412095,0.5143525920369898,-0.23216383312887065,2.503850629382257,-4.059664183227789,5.780335078402916,,,,,,,,,,0.06903204243173221,-2.3224741899105172,-0.3768183959486276,-3.149333310840425,0.7508020404441687,0.3988566323458424,,,,,,
164,164,164,164,8.24,-3.08,-13.0,-0.96,0.112,0.0299,0.0147,0.8740000000000001,-6.59,5.34,60.0,8240000000.0,-2.407515152539492,-11.404851235995915,-0.6455749449163583,0.07203562142676344,0.19398410706323727,-0.06259349016534974,1.6854032430332109,-5.061512114056981,5.560302707845559,,,,,,,,,,-0.8048942870271585,-3.2016584390713705,-0.43474355121835095,-2.9562412749999263,0.17067441662350005,0.4557926264447554,,,,,,
165,165,165,165,8.29,-0.8740000000000001,-12.0,0.967,0.496,-0.4970000000000001,0.424,3.22,-5.6,7.15,60.0,8290000000.0,-1.6959657288958012,-11.641180055140175,0.1576253713741922,0.3804143847477764,-0.2629636681304819,0.271646738782264,2.456017872088241,-5.274718140963111,6.354663691130843,,,,,,,,,,-1.9727140572929012,-2.6657599242019034,0.0057135989449525176,-3.5437373556349203,0.10903085929900364,0.484079296309329,,,,,,
166,166,166,166,8.34,0.417,-8.89,1.92,1.52,-0.166,0.514,4.78,-2.3,7.74,60.0,8340000000.0,-0.7155518388512678,-10.548708572593355,1.0354387235103992,1.2093142200356757,-0.1988415931141066,0.4381187765471895,3.6230311253052636,-4.096923848749237,7.046906717581789,,,,,,,,,,-2.4005859481256584,-1.3796054725733986,0.6117137323227351,-3.7663755257285567,1.3189990720316749,0.1683303509319631,,,,,,
167,167,167,167,8.39,0.333,-8.29,0.0287,2.18,-0.0287,0.453,4.89,-1.29,5.17,60.0,8390000000.0,-0.22902487843806235,-9.651793429603048,0.5339966912316105,1.9153615245661648,-0.0863269624553412,0.4483406695929878,4.259253392734221,-2.9855651508791063,6.1090292216438575,,,,,,,,,,-2.545803577118263,-0.3771490361941349,0.5232858052434313,-3.2531609932509498,2.345043197777549,0.11366182794807067,,,,,,
168,168,168,168,8.44,-0.366,-11.9,-0.991,1.6,-0.7070000000000001,0.284,4.38,-4.48,3.33,60.0,8440000000.0,-0.292581190276736,-10.544538144802248,-0.2255821550878131,1.6859771791663454,-0.4967780349950504,0.3354553523874128,4.319887685098276,-3.5772638417206077,4.720367163684662,,,,,,,,,,-2.856700443397689,-0.44664767051597065,-0.10637789936972143,-3.1328372281823875,1.4796003939003295,0.575584380658345,,,,,,
169,169,169,169,8.49,-1.43,-10.9,0.929,0.938,-0.376,0.246,3.53,-3.26,4.59,60.0,8490000000.0,-0.8203423060585386,-10.685689056000047,0.3494985670651418,1.1419213896567115,-0.4169075155466904,0.2740086291916089,3.923236894991395,-3.4516480591692265,4.655223654023223,,,,,,,,,,-2.224859752709647,-0.7363080954059218,0.11333233926136288,-2.9910699185897216,0.9041671537971642,0.4097393824734373,,,,,,
170,170,170,170,8.54,-0.8,-8.22,1.24,0.402,-0.629,0.401,3.71,-3.21,4.22,60.0,8540000000.0,-0.8109035028183114,-9.70658373793741,0.7930444866648623,0.6037251262353627,-0.5571642745407581,0.361238778868918,3.8161576655270646,-3.3559712112005604,4.437745246411692,,,,,,,,,,-1.8515394591287344,-0.37509850417767937,0.5580305585335181,-2.9550664909188833,0.5718017782713934,0.6220694213108,,,,,,
171,171,171,171,8.59,-1.17,-8.78,1.22,-0.0791,-1.08,0.36,4.23,-1.15,4.19,60.0,8590000000.0,-0.977523882661152,-9.338644632665034,1.0057048816382193,0.10705893915300613,-0.9029155525488946,0.3603878736183414,4.023973148240671,-2.4825505492578452,4.313948658686948,,,,,,,,,,-1.4536997803760434,0.10799986176887752,0.968862678309151,-2.645907544496473,0.0980807604550367,1.0724525221172163,,,,,,
172,172,172,172,8.64,-0.263,-9.62,1.66,-0.263,-0.768,0.439,5.42,-2.11,4.41,60.0,8640000000.0,-0.6459855524590385,-9.450368555653851,1.3315998227547203,-0.16211066445142264,-0.813695906093117,0.4143864153736258,4.7250034015447016,-2.3350448004083466,4.361944785069454,,,,,,,,,,-1.310183126122274,0.5035075688120264,0.8546579670550777,-2.9774461485660564,-0.0388016302045785,0.9061133535326924,,,,,,
173,173,173,173,8.69,0.498,-9.03,1.38,-0.127,-0.728,0.423,6.42,-1.66,3.98,60.0,8690000000.0,-0.11517745244717592,-9.283443454774414,1.3557072503075285,-0.1365722400289002,-0.7570251961783142,0.4203030772590197,5.5761645964837765,-2.067771095202545,4.171089580639517,,,,,,,,,,-1.3000371871487264,1.1289109200063367,0.6597461895566421,-3.2350699360568944,0.15039336768361206,0.8617424399547673,,,,,,
174,174,174,174,8.74,0.0431,-9.63,2.15,-0.0571,-0.315,0.207,6.14,-2.36,4.61,60.0,8740000000.0,-0.04173688003649949,-9.421058335454903,1.751333055714136,-0.07876655569683688,-0.4647139455729638,0.27378556151791344,5.8593006694407,-2.1834746310360966,4.390410201716644,,,,,,,,,,-0.9754491772143478,1.0582978281538296,0.5361019791134907,-3.5736976573927737,0.2873796028718094,0.5078343430645139,,,,,,
175,175,175,175,8.79,-2.06,-9.39,2.95,0.129,-0.379,0.123,4.1,-2.13,5.29,60.0,8790000000.0,-0.9782088338575642,-9.40872545492231,2.3483717890499705,0.07235650056204107,-0.4080313212866323,0.17021122070702122,4.975848469481164,-2.162302211858686,4.839929092559935,,,,,,,,,,-0.7085207131843491,0.3066427477637469,1.1377074708121433,-3.2378326012153447,0.2484543407804712,0.2813353439312123,,,,,,
176,176,176,176,8.84,-2.27,-8.66,2.35,0.0736,-0.5770000000000001,0.207,3.97,-1.4,4.46,60.0,8840000000.0,-1.5775985773235437,-9.111412498249958,2.349182729929857,0.0732609853471183,-0.5197703179776961,0.1954813715530152,4.470750628515803,-1.8604802693376727,4.650081125512196,,,,,,,,,,-0.6115685859662894,0.11302559858253924,1.5274877277123682,-2.7242884453855045,0.1907727286227636,0.3719243242068112,,,,,,
177,177,177,177,8.89,-1.62,-8.09,2.44,-0.201,-0.5379999999999999,0.25,4.75,-0.8859999999999999,4.35,60.0,8890000000.0,-1.5972727953861252,-8.705817816534335,2.3944175302653807,-0.12622810129328066,-0.5318255979558523,0.2329301237657421,4.610978767166069,-1.4746496619620546,4.500132578351922,,,,,,,,,,-0.37265713810388496,0.3969133824462786,1.6680066502639088,-2.5846482518994267,0.17337199246824564,0.4434155143464643,,,,,,
178,178,178,178,8.94,-2.36,-9.46,3.59,-0.266,-0.192,0.177,4.12,-2.34,5.48,60.0,8940000000.0,-1.9511773732792768,-9.005297551070226,2.9899198648310046,-0.22789392295533464,-0.3070989412824686,0.1945118185805883,4.364428329761655,-1.8172718947857864,4.989765680733871,,,,,,,,,,-0.1318709180651037,-0.1069730494600783,1.8102262586057665,-2.799502348919886,0.0342616750589455,0.04560041886443784,,,,,,
179,179,179,179,8.99,-1.36,-9.54,3.71,-0.104,-0.486,0.202,5.19,-2.47,5.54,60.0,8990000000.0,-1.6768716959703545,-9.21762360629668,3.348581409244104,-0.13777726046277425,-0.42540620701429604,0.1996554423634627,4.7789982392605665,-2.075709643047094,5.264714012421352,,,,,,,,,,-0.40805089930716654,0.022940184734913504,1.850814810777582,-3.1947507628653358,-0.06319876539702958,0.033891154268499805,,,,,,
180,180,180,180,9.04,0.00479,-9.06,0.68,-0.6,-0.185,-0.0384,6.63,-2.04,2.41,60.0,9040000000.0,-0.8965824248119982,-9.155032698223183,2.01939951737406,-0.4739840129138182,-0.2664255910737389,0.036135566750078674,5.708499158869188,-2.0615709394725275,3.8382328597664106,,,,,,,,,,-0.02086610142011128,0.7566504880217652,0.6801152537989502,-3.3237874424880216,-0.053748538948407656,0.36185011935951455,,,,,,
181,181,181,181,9.09,-1.21,-14.8,3.61,-0.838,0.22,-0.313,5.31,-7.81,5.64,60.0,9090000000.0,-1.042007870156487,-11.396604188076514,2.8116546150122224,-0.7387581486649364,0.05524763698464902,-0.2036850497850361,5.508388401130193,-4.337573720217115,4.738563590849492,,,,,,,,,,-0.11053547536393936,-0.7436151103407602,-0.03639751681711041,-4.663802392897827,-1.02324411164353,-0.31996660445873737,,,,,,
182,182,182,182,9.14,-1.82,-10.5,3.43,0.159,-0.0269,0.13699999999999998,4.67,-3.42,5.55,60.0,9140000000.0,-1.4029954304310486,-11.040569828562221,3.119643562523981,-0.08575623340044314,0.0009234065251060851,0.03033092182055436,5.087382496504357,-3.974274432028004,5.144032946475353,,,,,,,,,,-0.7172331980194497,-0.8598405127838085,0.632126248769999,-4.217818930638524,-0.4307403582082517,-0.5722226109159597,,,,,,
183,183,183,183,9.19,2.46,-6.0,-2.76,-0.613,0.878,-0.218,8.93,1.02,-0.501,60.0,9190000000.0,0.3894304335910974,-9.038999822125804,0.19107794516793766,-0.4692572644758096,0.5809341454649366,-0.14024715812202335,7.016995229347504,-1.9968676579082023,2.3232483449461543,,,,,,,,,,0.5458164414714388,1.6240739563529543,-1.1726973367267786,-3.627077311646755,0.869949019625699,0.09818525535186316,,,,,,
184,184,184,184,9.24,-2.49,-11.8,1.26,-0.317,0.556,-0.32299999999999995,3.75,-4.72,3.93,60.0,9240000000.0,-0.9466222855737348,-10.135371009020783,0.7234925926333137,-0.3585099713499546,0.5644451920298098,-0.2657797807221476,5.376437696287413,-3.0750502886489666,3.1261312631994143,,,,,,,,,,0.4489946387271163,-0.1417567836240309,-0.7748905510962948,-3.491271638559577,0.3016559655167097,-0.17917649817953146,,,,,,
185,185,185,185,9.29,-1.2,-9.56,0.74,-0.3720000000000001,0.626,-0.0543,4.87,-2.46,3.71,60.0,9290000000.0,-1.0641893026381266,-9.906895944989113,0.7317146988101727,-0.3683222135155947,0.6051513761877769,-0.1205146820164763,5.122124387852383,-2.831530523573175,3.417886522922098,,,,,,,,,,0.4023578263022964,-0.18227023191792147,-0.5525087533082806,-3.29197683850706,0.4710841839578785,-0.2367612948765392,,,,,,
186,186,186,186,9.34,-1.41,-9.86,-0.534,-0.454,0.265,-0.201,4.53,-2.75,2.68,60.0,9340000000.0,-1.2246450896614682,-9.888273803586305,0.10128048032985826,-0.4306416217117777,0.3802092718157177,-0.1757999120980898,4.82478272904893,-2.79924975638246,3.0491696743741072,,,,,,,,,,0.3738852308761313,-0.2608549772371751,-0.6583515330365338,-2.9815272576563165,0.3074264989054297,0.20344239231338127,,,,,,
187,187,187,187,9.39,-1.9,-9.9,0.338,-0.399,0.8079999999999999,-0.0922,3.87,-2.78,3.83,60.0,9390000000.0,-1.5380090518501104,-9.892930031015169,0.21918705725395607,-0.4076264623381975,0.6631072861897718,-0.1183752785578176,4.345328038618713,-2.7916280976393684,3.4393452445844366,,,,,,,,,,0.5404836679160985,-0.6699515797541755,-0.5536144490780492,-2.8504091129109215,0.5266736291415257,-0.13578570379902247,,,,,,
188,188,188,188,9.44,-0.63,-9.91,-0.168,-0.318,0.5379999999999999,-0.0885,4.96,-2.81,3.64,60.0,9440000000.0,-1.1166937976418476,-9.899708318724207,0.02633477182077304,-0.3424348967313104,0.5803738333709969,-0.09785400141312994,4.6539923336041085,-2.7989021494894284,3.5396111149291247,,,,,,,,,,0.33405716540930697,-0.40593559422206105,-0.7071419832385244,-3.0346645445256115,0.6233245241716703,0.024883482575695032,,,,,,
189,189,189,189,9.49,-0.927,-9.57,-0.136,-0.207,0.594,-0.0732,4.5,-2.46,3.88,60.0,9490000000.0,-1.0286760671812027,-9.768783658436368,-0.05452183940340138,-0.2439236816968141,0.5893848049730892,-0.0809192117886242,4.576663392117354,-2.6647190279144906,3.709701185199157,,,,,,,,,,0.2894504787741655,-0.36449349508628187,-0.6673809664014879,-2.9843360979652918,0.8069985338976435,0.0627879574732034,,,,,,
190,190,190,190,9.54,-1.85,-9.66,-0.33,-0.333,0.5710000000000001,-0.161,3.38,-2.53,3.91,60.0,9540000000.0,-1.409769525517945,-9.725586476225304,-0.1917335428999757,-0.30871508426841604,0.5772269207496094,-0.13592656656110874,3.9757457852922733,-2.6113790724078374,3.8097891849062298,,,,,,,,,,0.4854419138996958,-0.723990806807583,-0.5435841443001007,-2.703963874321728,0.7407520294505119,0.17335526272677534,,,,,,
191,191,191,191,9.59,-2.0,-9.83,-0.412,-0.37,0.298,-0.222,3.03,-2.69,4.05,60.0,9590000000.0,-1.683635849411183,-9.767048221991,-0.3014450872313792,-0.3532918678627197,0.3925741716018517,-0.19505026207424647,3.5008291385153885,-2.642507852106684,3.9298209923959777,,,,,,,,,,0.5022176834526635,-0.9978862671960264,-0.3899838294591871,-2.516635481528237,0.5437015366680322,0.44459264942559296,,,,,,
192,192,192,192,9.64,-1.08,-10.2,0.316,-0.298,0.206,-0.185,3.8,-3.08,4.93,60.0,9640000000.0,-1.403549465460211,-9.938969838157586,0.006095408951287407,-0.31307425384915044,0.2691926776524954,-0.1881467559603201,3.6510610482053214,-2.8157261646127694,4.429603560963353,,,,,,,,,,0.2876015606686254,-0.9514391421054432,-0.30400792742943755,-2.8450013081793264,0.4622779566185763,0.5100406795714644,,,,,,
193,193,193,193,9.69,-0.917,-9.67,0.225,-0.17600000000000002,0.309,-0.16699999999999998,3.82,-2.51,4.96,60.0,9690000000.0,-1.1777910195073056,-9.832164094700962,0.11512862424634145,-0.21337061806324129,0.29551724911415084,-0.1736210826752021,3.7358955646396654,-2.6946785493233767,4.694639076812959,,,,,,,,,,0.23714006559335574,-0.8161669050460171,-0.2572607198077197,-2.938008101943685,0.6449677427957937,0.4845473771321033,,,,,,
194,194,194,194,9.74,-1.03,-9.78,0.067,-0.138,0.376,-0.227,3.55,-2.58,4.89,60.0,9740000000.0,-1.1092161274911043,-9.811450043434068,0.09115645178032482,-0.15854832478994746,0.34874048135683394,-0.21028696796606214,3.6425460413773214,-2.6492732967497017,4.7922595360260525,,,,,,,,,,0.29380589508300897,-0.8399142537940744,-0.2918080748913378,-2.9390073499543057,0.7493119947582916,0.4718052882405741,,,,,,
195,195,195,195,9.79,-1.79,-9.99,-0.242,-0.105,0.5529999999999999,-0.299,2.56,-2.71,4.69,60.0,9790000000.0,-1.425099115820795,-9.88235071374416,-0.07478396913996345,-0.11959890276801967,0.4838172772753725,-0.27122379381470163,3.098933629278971,-2.67331712371638,4.741161169272819,,,,,,,,,,0.4747503283220918,-1.2179045531011388,-0.3319839652918137,-2.6926661370021803,0.8146998894182226,0.3829757598497783,,,,,,
196,196,196,196,9.84,-2.31,-9.89,-0.199,-0.13,0.409,-0.349,1.77,-2.54,4.85,60.0,9840000000.0,-1.835692175594509,-9.885388320531806,-0.13665418229416346,-0.12716434046643305,0.4343406201970674,-0.3246481409667465,2.431595003205406,-2.6205322270172284,4.795547145823156,,,,,,,,,,0.6001974520670386,-1.5952661148055105,-0.1586163273589677,-2.371445803580191,0.7245822863256558,0.478697182650469,,,,,,
197,197,197,197,9.89,-1.86,-10.1,-0.18,-0.353,0.241,-0.462,2.01,-2.68,4.97,60.0,9890000000.0,-1.846970987376136,-9.970609055250877,-0.1582441122265205,-0.2914303064144528,0.3064844716288271,-0.4189949054708533,2.219886437535772,-2.644077611075236,4.882719946888962,,,,,,,,,,0.7454247204479671,-1.68365809846659,-0.15513439791200356,-2.3774040767299005,0.4715962264872585,0.7179725326881079,,,,,,
198,198,198,198,9.94,-1.92,-11.9,-0.108,-0.0779,-0.0605,-0.215,1.77,-4.47,5.16,60.0,9940000000.0,-1.8808563530705007,-10.736754632736716,-0.13321824628567264,-0.13611486852318386,0.06379765171991372,-0.2788711578395617,1.9939710126272885,-3.3670236463661625,5.021274829191542,,,,,,,,,,-0.02076185823114646,-2.0710698299746984,-0.19355657199216292,-2.5376205622798524,0.14849416244643282,0.7193865051228951,,,,,,
199,199,199,199,9.99,-0.797,-12.6,1.19,0.11,-0.5670000000000001,0.0416,2.91,-5.14,6.39,60.0,9990000000.0,-1.3779481327089016,-11.476634632841375,0.5258576981966139,0.042901586380051315,-0.3533487979148745,-0.05874007003769693,2.45396507170831,-4.069006536798382,5.705217430473026,,,,,,,,,,-1.0814050293860291,-1.9911111902153225,-0.011954460773143615,-3.2032766806687043,-0.22484814214241225,0.7406856022997922,,,,,,
200,200,200,200,10.0,-0.63,-9.46,2.21,0.865,-0.41,0.39,3.29,-1.97,7.18,60.0,10000000000.0,-1.0309009778607108,-10.67584514753159,1.364704697519615,0.6408709270158242,-0.390812233796509,0.2494987032725313,2.873789173258013,-3.2379369268773286,6.4421561742213385,1.0539940105373191,0.21664384653014904,1.0815958518332358,2.4449354049840943,2.475089576105602,2.8431298649908525,1.7568462362883377,0.8127219538475585,0.1151677529765246,-1.6450302456609238,-1.3141408401320192,0.7941854695400087,-3.1406741114447025,0.575767545908476,0.42691476997708666,1.8771778238745602,1.4125797747514837,1.0448802719138646,0.7399955111223784,1.420654145593797,1.5103968092279332
201,201,201,201,10.1,0.723,-9.18,1.52,1.67,-0.301,0.563,4.88,-1.47,5.93,60.0,10100000000.0,-0.21709276004784106,-10.081857111937602,1.4420550374550931,1.3894280221339823,-0.3314194056390542,0.4648422214228987,3.8812300298896094,-2.537949279065725,6.186235128049527,1.0198898778064676,0.20975446400816464,1.077341247067786,2.4085129776469105,2.350235740310052,2.815487657918597,1.7105839481517802,0.8084436742730089,0.102586518374898,-2.3100556872197253,-0.2646292426280657,0.8581722969467332,-3.1451224713786674,1.5357851063426866,0.1477880775716851,1.8972744653492029,1.3504798015379929,1.0606930844900861,0.7431760009201819,1.3726982551287044,1.5062746791969923
202,202,202,202,10.1,1.39,-11.5,-4.92,1.26,-1.82,-0.158,5.83,-3.52,-1.37,60.0,10100000000.0,0.5285965959927406,-10.64499032229459,-1.7267928176812142,1.2952860160457669,-1.3158177429101234,0.03701296462692977,4.859826233759737,-2.9267772748505685,2.4104357733075945,1.0419317926759577,0.1984962091830152,1.0910813327937865,2.3193890116516536,2.1895937159135377,2.875948017364572,1.6974597016398658,0.8011720233348693,0.10349833240844207,-2.8407607687068515,0.7531056985051138,-0.969577745708114,-2.6282694692434085,0.6477142590243242,1.9599941265163885,1.9030396681279051,1.3105002227748603,1.1175600831708172,0.7559489350686149,1.2570216539515526,1.5291619742241185
203,203,203,203,10.2,-0.0575,-11.3,1.32,0.863,0.116,0.0489,4.51,-3.14,4.23,60.0,10200000000.0,0.2566483869183258,-10.905089507740033,-0.20922925072916645,0.9808543236332908,-0.3689567145017725,0.04517814931765639,4.684157263567398,-3.0111996020361445,3.3196596638182974,1.0575680829872756,0.18683810162521733,1.1498159995662345,2.4223050097275367,2.128605804409463,2.881429471173393,1.7193566719322333,0.807195751201369,0.10839235547085242,-1.9156463839518367,0.22109062131595664,-0.8338404870790613,-3.08846202187988,0.8059644985552576,0.6037485569032772,1.959251733503829,1.2720943487652447,1.1468933728277095,0.7664866272034964,1.3582322918744656,1.5898307246195411
204,204,204,204,10.2,0.534,-9.5,0.354,0.5760000000000001,-0.0379,-0.103,5.09,-1.22,2.95,60.0,10200000000.0,0.3853392362883758,-10.347139690416864,0.0713071133877764,0.6863756079900589,-0.15002891962703227,-0.05660516694822618,4.887955727317961,-2.3020014528304094,3.1349432653021765,1.0695898256003742,0.17422612383436925,1.261704001954837,2.4771444965028,1.9291620712544832,2.897487266397732,1.8278245942379632,0.8200409385192152,0.1153479953150032,-1.1664381680136355,0.6590470374065841,-0.7795073322670245,-2.9902984727857973,0.8973257165294081,0.5060387564752593,1.89137396167019,1.235372432707727,1.26078568901222,0.7630122710243196,1.3837208395299399,1.4679451981821647
205,205,205,205,10.3,0.163,-8.68,0.977,0.364,0.223,-0.0299,4.65,-0.292,3.37,60.0,10300000000.0,0.2821740639590993,-9.685131960429873,0.5224196711691282,0.4518894093348563,0.09665509701148453,-0.03826143330925677,4.768463693468716,-1.5061720352489452,3.2523994613434004,1.0846297979108561,0.16367847676393218,1.2922191573060648,2.595280606626716,2.178490668618744,2.9541347812830336,1.9599418906507275,0.8395296841017604,0.11388412037183435,-0.5204714429918244,0.919133216071218,-0.4462273395605699,-2.728877702348945,1.0964156232352278,0.2795417150647397,1.9017079917347095,1.2137543733947116,1.2928702926717512,0.7544141244216462,1.4207783411983346,1.5068307921772928
206,206,206,206,10.3,0.8140000000000001,-8.67,1.92,0.333,-0.0611,0.0856,5.26,-0.228,4.2,60.0,10300000000.0,0.5289407478640356,-9.282031199807472,1.2185342461330106,0.3654128791046258,-0.007668343038988001,0.04681877489961475,5.01529416285612,-1.0000993144148431,3.725908916693266,1.0835926949657453,0.15602577442159402,1.2961904893589635,3.043701810658201,2.278440390204889,3.0101573121250964,2.0589348143254957,0.8839504326479758,0.1028452105438748,-0.46964733785696,1.3591432587625856,0.01638906828671707,-2.827620010701285,1.1126105973002074,0.27765764805185555,2.0310008900776415,1.1639125563566641,1.2729940629896033,0.7358144628864115,1.5186806921148543,1.4709396132300046
207,207,207,207,10.4,1.16,-8.79,1.85,0.391,0.273,0.151,5.66,-0.335,3.96,60.0,10400000000.0,0.8217515664712545,-9.0866495263826,1.5330582386963978,0.3840241730176607,0.17793762508999228,0.11838067467980905,5.339040202612728,-0.7367633892053291,3.84288265954265,1.1174337386387416,0.14394127900283707,1.3029032463038397,3.3758967734097305,2.4206310412674337,2.9743193716525376,2.194756891137512,0.8868985927463292,0.08502331714291639,-0.39316565230691664,1.6761384423791577,0.04189898094501705,-2.9549941361806633,1.3551608399336137,0.0019683337756223017,2.0662168707047788,1.1250869126698704,1.220195290362886,0.7392093602364793,1.6052283348231935,1.4941089604963484
208,208,208,208,10.4,-0.0766,-9.9,2.51,0.152,0.443,-0.0244,4.4,-1.42,4.58,60.0,10400000000.0,0.40491737748612,-9.40962434957624,2.0196588291234168,0.21525685664110308,0.3532233582898133,0.020304874874685616,4.8674909000768585,-1.0072804865731722,4.2112151480738005,1.1239432827354343,0.13122338958783078,1.4560731141955654,3.3279876093172382,1.95840855019322,2.9842564634583297,2.2782815178878426,0.8676926112976713,0.08809264409646671,-0.03798512855297311,1.1136642825366492,0.15774690986182274,-3.0394071701191856,1.1095604378193489,-0.272790313379846,1.7435354806808565,1.0881407226335087,1.3461915522266512,0.7148929934655118,1.4794850931759318,1.335775641850657
209,209,209,209,10.5,-0.7040000000000001,-8.91,2.99,0.107,0.11,-0.132,3.67,-0.373,5.05,60.0,10500000000.0,-0.10961912606401968,-9.211227451601372,2.502971770197774,0.13651411866932536,0.1923797583240821,-0.08431308151307235,4.266157731886174,-0.7561468012468038,4.630350334734639,1.0626139462797264,0.12134175883689767,1.4938354175067392,3.2904958901949457,2.0178577985347688,2.9932854480654565,2.2331984987872646,0.8567057312739235,0.08913360031494978,0.2558401207057667,0.8073593640132941,0.7168687703234506,-2.7991775108878216,0.8921022583974372,-0.11989947447142732,1.72529143434048,0.9787959112749403,1.3616161695408935,0.7104376687692501,1.507191874687655,1.21036601549819
210,210,210,210,10.5,-0.388,-8.93,3.49,0.132,-0.14400000000000002,0.295,3.94,-0.349,5.46,60.0,10500000000.0,-0.2387875662196849,-9.09955439866765,2.9945962945482303,0.13323068579083333,-0.03006816170808716,0.17623641347973898,4.1023740736391225,-0.5949432384056713,5.0449206544433,1.0206382603154238,0.11182665681187973,1.5493224952102689,2.881185993475889,2.4100014093306226,3.006935393863128,2.168631264882162,0.8406841981248403,0.08706828092435301,-0.16100883166800248,0.8560547538058754,1.2686687394823142,-2.6798756705682383,0.7842392726370778,-0.14461988663344424,1.857675026612297,0.8604187853679363,1.3709723089851416,0.7193368123083965,1.5356566029025605,1.227657386406747
211,211,211,211,10.6,-3.1,-9.65,3.22,-0.048,-0.0947,0.315,1.35,-1.1,5.06,60.0,10600000000.0,-1.5663871038185098,-9.318131797599863,3.1068666421719837,0.0014090074099341598,-0.07280919522031587,0.27155288101550945,2.720239217538995,-0.7949127687635102,5.052455672368121,0.9623285931720656,0.10385564159866416,1.5434023917244657,2.7924671884571586,2.550653801051024,3.0377023274350865,2.073695016785331,0.8233096042013681,0.07956163255576383,-0.09960986576537956,-0.20220704423552088,1.7893387589526408,-1.9669393698459567,0.3940002408869743,-0.2823905506628436,1.9363708291597048,0.7496227999767358,1.3434890293018464,0.716865611966876,1.4937781873080664,1.227280978247084
212,212,212,212,10.6,-1.24,-7.98,3.36,-0.179,-0.429,0.484,3.37,0.488,5.16,60.0,10600000000.0,-1.414943832856294,-8.78677035957733,3.2329486630362614,-0.1298150105812807,-0.3083581573167927,0.4174824402427947,3.046523672756706,-0.2869630245882856,5.106194765924612,0.9110189552386524,0.09633804690652903,1.5434447211934599,2.7107083259263867,2.500492258502524,3.1243909428147827,1.9438451299512278,0.8028149644299717,0.07452000440864452,-0.18851370019316072,0.32459696077775346,2.139317277339969,-1.8603952098018703,0.3792555570720133,-0.03101650287644862,1.9666640214348843,0.6675453920254503,1.2995107991713408,0.6952701056691251,1.5299709760056535,1.2570098436109474
213,213,213,213,10.7,0.7759999999999999,-7.96,1.43,-0.778,-0.116,0.0551,5.56,0.397,3.29,60.0,10700000000.0,-0.3983481713805673,-8.458466470558731,2.334925922294977,-0.6012850172182322,-0.18115171142193026,0.1685625656010352,4.3086933851310025,-0.016158291914780243,4.198654562534755,0.8958114529705843,0.09078149232801673,1.5512701590017153,2.2902803455506167,2.510334527450643,3.113251721306688,1.8654392599280625,0.7898541885073231,0.07626109253752658,0.4871245719803579,1.3244299838850926,1.1670216416353243,-2.271564636323665,0.3760120526665071,0.3994129618718279,1.8669343915272085,0.642314606774395,1.2270691002257148,0.6645796591441662,1.6404213651327935,1.378214022269935
214,214,214,214,10.7,0.259,-14.5,2.44,-0.986,-0.37,-0.128,5.02,-6.19,4.65,60.0,10700000000.0,-0.09333930465601648,-10.857511165245342,2.3872618328043576,-0.8811149730509917,-0.306037082170718,-0.035145755367449134,4.665883803887971,-2.4605967667796538,4.424188858606844,0.9209645078182084,0.08651581821490112,1.4884635837003362,1.8195425300267607,2.50443547578058,3.0255649845089807,1.8434944655294159,0.7870119986836336,0.07595815095928939,-0.1372185036293681,0.3014058300969956,0.09381441085690884,-3.6705337808339387,-0.8674766927975085,0.31517678926382664,1.9012100647857355,0.5918725489156711,1.2245492654720664,0.7007589791041733,1.6537927437368651,1.3526439093068148
215,215,215,215,10.8,-0.5870000000000001,-11.5,4.01,-0.007640000000000002,-0.383,0.249,4.23,-3.33,6.34,60.0,10800000000.0,-0.32239735761135824,-11.112638348253148,3.1955244136714445,-0.2457758956309508,-0.356932648445238,0.16003347441653393,4.4469999744007245,-2.8048236854063338,5.381506745156428,0.9060972019543598,0.08140037176250962,1.4173939174400494,1.9225088316059944,2.529528723522353,3.17759877512586,1.7097835563512502,0.7624429124542842,0.06984743682943922,-0.9337409504480662,-0.10713908302299556,0.6932889493742084,-3.8320242917089455,-0.5502383092178523,-0.1133967697245176,2.207259567853615,0.4724251410567092,1.2505041716089886,0.7267677033374388,1.529148404914137,1.3552197505235308
216,216,216,216,10.8,2.22,-6.74,-2.67,-0.62,0.614,-0.115,7.08,1.42,-0.264,60.0,10800000000.0,0.8572723750490688,-9.376298505208721,0.2739912978850008,-0.5179751086298809,0.2851450977888411,-0.02888654806293748,5.769189814954126,-1.1320692071074543,2.560485383927004,0.8910416228147304,0.07400796227450858,1.3801194543122008,1.966432741714596,2.3984717788193164,3.280650305391428,1.522442126104398,0.7124822985165228,0.06392011154951796,0.3017898538722515,1.7519262634211272,-1.0005632059070335,-3.0117426637494464,0.6809068320153768,0.38824374301822057,2.3022655285562115,0.4076096144956453,1.2550631398235934,0.6828097118203776,1.5714572828713615,1.291909678961629
217,217,217,217,10.9,-1.63,-10.4,-0.182,-0.5529999999999999,0.274,-0.0952,3.09,-2.27,2.57,60.0,10900000000.0,-0.2968194077714489,-9.782802038275427,0.046868613670815296,-0.5434511278521362,0.277774837701358,-0.07443714577319538,4.423805183000162,-1.5826155396823296,2.5652397395731388,0.8753815399846667,0.06955311894898439,1.4220278737155567,1.6735560134549752,2.2876852893975346,3.3034074219760465,1.2985622807233101,0.6732742340687199,0.06832728945011914,0.3835350817217921,0.5924890631543204,-0.7964292933478477,-2.4595585328634133,0.3664946015813667,0.36520495614270704,2.3005261486534554,0.3703352060532954,1.3015165140856517,0.6424814996278502,1.562805861166665,1.2928808870188597
218,218,218,218,10.9,-2.16,-10.3,1.04,-0.511,0.701,0.1,2.45,-2.2,4.11,60.0,10900000000.0,-1.1613332970225332,-9.988177292374909,0.5415330084753608,-0.5198471500566106,0.557653608489723,0.0453834309845455,3.4326372576699438,-1.8270595184096319,3.3371460124923047,0.9082654105079366,0.0714798869825999,1.3780677437214652,1.4482861305392436,2.1446402186886835,3.106642144554616,1.1786848381415769,0.6786225353119094,0.07401380916838493,0.4768334403769863,-0.3577808499973662,-0.3481700605882011,-2.236327177665667,0.4211071329093978,-0.15735461654682026,2.2633292065773265,0.3713770030824203,1.3844709195961058,0.6449279181534198,1.5835660841589172,1.17452107502694
219,219,219,219,11.0,-0.606,-9.99,0.00479,-0.48,0.0947,0.0868,3.96,-1.98,3.35,60.0,11000000000.0,-0.9036592299102438,-9.988900984122852,0.27418906060391485,-0.4908635395911035,0.2515024018051142,0.07383240215686357,3.697458269465513,-1.8876139767841107,3.3435690150585358,0.9918652844685484,0.07145076098384379,1.3660160755284652,1.2374670455961356,1.8872288556834984,3.0644138978420083,1.2117425510196786,0.6830714912823332,0.08807497480193366,0.1376415802079053,-0.12106470281489345,-0.3714124425255096,-2.3317567170672,0.3119393520214974,0.23800246251115434,2.2634738215798005,0.3919403014492441,1.5373913621795177,0.6654333611418554,1.545028823122289,1.1408005899061624
220,220,220,220,11.0,-1.78,-10.0,0.0407,-0.349,0.5820000000000001,0.0166,2.75,-2.09,3.57,60.0,11000000000.0,-1.3102804189592838,-9.993308314650204,0.15789152838160253,-0.3876763290264904,0.4700604649708434,0.034519563267209244,3.2216816943212123,-1.9677456016171424,3.4567150063817205,1.0139404530100675,0.07063125125730346,1.4540919722999144,1.6200100578158838,1.8437454947328933,3.0286960983724462,1.1979795002001312,0.6921319929441487,0.10343325097438792,0.3186196440065305,-0.5739244469593108,-0.3579077272068452,-2.13792965171589,0.5094719589429941,0.037859676048338335,2.403576813006703,0.39661777361481504,1.7330000507261987,0.6850611083378666,1.6012010708322766,1.094336050998719
221,221,221,221,11.1,-1.93,-9.82,-0.599,-0.302,0.456,0.133,2.49,-1.92,3.17,60.0,11100000000.0,-1.5978296331681108,-9.92448884639585,-0.21910520944457074,-0.3253579681078182,0.4607622800633005,0.10216560696216948,2.8542597008660824,-1.94884144194815,3.313445503912363,1.0065858213246501,0.0651957884039294,1.4323547047958736,1.9089275539959931,1.7147804639559994,3.0234720556421664,1.1685482074365559,0.6834409162816965,0.09932064994494053,0.2190697368180767,-0.7818768536155181,-0.33297869974688515,-1.8169038611274129,0.6001844031957552,0.09204199048181363,2.486188701175509,0.44214002064097374,1.7677476901342115,0.6700057346779839,1.5564014129500034,1.0467896688702163
222,222,222,222,11.1,-1.01,-9.31,-1.03,-0.422,0.14,0.0856,3.38,-1.47,2.91,60.0,11100000000.0,-1.3250772927127583,-9.68048040168112,-0.6230001901054809,-0.3956524304774519,0.2486421942333103,0.09078672247385296,3.1182660233046335,-1.759251488298936,3.111846569722197,1.0007582232559,0.060949729050004765,1.3766774247967666,2.2344710025802406,1.7058342680828664,2.9594421197033185,1.1726560911498136,0.6813144078285198,0.09129224194430603,0.16055133670333974,-0.4147965111505515,-0.4227519508453823,-1.7852553204514483,0.5716576407810531,0.5030376664598822,2.4233218159576455,0.5107156201483823,1.7860396577228634,0.6534069533031951,1.4933485169387708,0.9416093830138861
223,223,223,223,11.2,-1.22,-10.3,-0.591,-0.377,-0.0055,0.0373,3.15,-2.49,3.49,60.0,11200000000.0,-1.2763215518815665,-9.92648676015617,-0.6070613673520417,-0.3820852239045576,0.08057796879818219,0.05404678595810014,3.1342016360994203,-2.048580218880009,3.300807274219588,1.0080314347336352,0.05974641813299024,1.2951635466520959,2.522176042458297,1.820408447215586,2.928630006823311,1.1991061332229052,0.6877900448402846,0.08221449634886165,-0.02615642466420329,-0.5249390504476412,-0.4300273161711856,-1.964819316956439,0.3797397787418817,0.6736664369647261,2.437802047822478,0.5690523946295066,1.7246781904616302,0.6533105195222674,1.5005530749616593,0.9187346441135076
224,224,224,224,11.2,-0.917,-9.8,-0.484,-0.336,0.29100000000000004,-0.0201,3.41,-2.08,3.74,60.0,11200000000.0,-1.1095967249890224,-9.876259954024821,-0.5457662745994587,-0.3485642331280301,0.2197300574222701,0.003115486497537165,3.2726968564928987,-2.0610203717484037,3.5202688999458163,0.9964495774407643,0.058270909661917,1.132736570337323,2.7744292433143705,1.8694248556292377,3.0087522253313623,1.2180747744293194,0.6777058858302729,0.06593521468734698,0.10692026612929116,-0.4915379127152121,-0.5155475743955192,-2.144610365294229,0.5459892079031424,0.5792251262382416,2.4021933640575863,0.5921203182883449,1.6366467062941108,0.6241471924651277,1.5296470074489565,0.8882549975230017
225,225,225,225,11.3,-1.35,-9.99,-0.462,-0.207,0.17800000000000002,-0.0543,2.89,-2.28,3.88,60.0,11300000000.0,-1.2211436046488853,-9.921425126649073,-0.5040435080460897,-0.2455947255820267,0.19213397374512994,-0.03632311186571277,3.0805214798481337,-2.1477220040419165,3.700024143621592,0.9743002219801709,0.05666156260554725,1.1410015526425978,2.5281766180110568,1.8506078639585908,3.1864552389175462,1.2344782720667855,0.6606519676140018,0.05714628905478631,0.06757527899948741,-0.6708140814210527,-0.4325776354970803,-2.133435378804945,0.571466781160474,0.6026421074812939,2.490567846014773,0.5869356886041367,1.6347594641836467,0.6014688012841025,1.6154504882178533,0.7125524501430379
226,226,226,226,11.3,-1.07,-9.68,-0.575,-0.305,0.24,-0.0647,3.07,-1.98,3.87,60.0,11300000000.0,-1.1510131542402946,-9.825557258946494,-0.5393859069314139,-0.28880431709859145,0.2237877719301479,-0.05581514756312842,3.075237969671024,-2.0813150424250053,3.784959866961109,1.00200607987471,0.05789345060490566,1.1434583097507145,2.4659544294723084,1.8198654212307648,3.207299677265824,1.2449125976238784,0.6605602683251897,0.055540559970991686,0.17065531500481815,-0.6319742578911247,-0.4517653587908355,-2.153885069192917,0.6182533769752818,0.6377512749018144,2.499214266035772,0.5935319017744477,1.6755025868584321,0.6001892702000241,1.6328634179593327,0.5950442420394961
227,227,227,227,11.4,-1.67,-9.55,-0.773,-0.315,0.157,-0.1,2.37,-1.87,3.8,60.0,11400000000.0,-1.3918224888799806,-9.716135748769485,-0.6557457168604829,-0.30785825682790224,0.17962102381645975,-0.08616564781234748,2.7210949207012862,-1.9976480765386808,3.7924752954226575,1.0873347832439042,0.05476837640078706,1.1845296370435456,2.5672567999756946,2.2298590901905744,3.2852036301348835,1.2977923143914296,0.6328594535143668,0.05982152960283702,0.2707090558978196,-0.8021672494956766,-0.3403634204635743,-1.9378375114960242,0.5949305580270915,0.7536763471241095,2.4872629969948035,0.5967258465459143,1.780583816240735,0.6148525867671689,1.6106708133611685,0.569346140760123
228,228,228,228,11.4,-1.78,-10.1,-0.857,-0.42,0.249,-0.209,2.08,-2.31,3.76,60.0,11400000000.0,-1.5719364354639431,-9.868565327463307,-0.7559875681030293,-0.3894267339011144,0.22550133735400635,-0.1705403576303694,2.399162027356436,-2.121319033547279,3.77624760618914,1.1435069457012348,0.0524486738000131,1.2363551437751463,2.533780040091985,2.7292751236457256,3.3145577863936326,1.3247992979819283,0.6109134410072687,0.06375296854719126,0.4511650443596334,-1.0783793835756774,-0.4238684129835223,-1.873957972771964,0.4795305980595505,0.7746712161758106,2.4471157624083393,0.6425481739192782,1.8273816201387063,0.6201843394213427,1.5525783529460513,0.6393054600767555
229,229,229,229,11.5,-1.67,-10.1,-0.29,-0.243,0.295,-0.202,1.96,-2.28,4.34,60.0,11500000000.0,-1.6174378071067017,-9.960466338319726,-0.5238858799307247,-0.2829203903438668,0.2714607922141199,-0.1921499367549992,2.178632011530507,-2.184146330461427,4.057950923186465,1.1703132228353221,0.04839972474907269,1.2463448121883416,2.1565215619197087,2.9845905208529317,3.164125406758008,1.351958041995881,0.5749689045944589,0.06488655271822896,0.4322558125549793,-1.2558991256748864,-0.32212319528569483,-1.911701013982715,0.5360925810660169,0.6599228404829585,2.4391016333949183,0.6952881259296645,1.7851466758559853,0.6008815467823175,1.7040331344226747,0.747651567756458
230,230,230,230,11.5,-1.04,-9.93,-0.735,-0.0956,0.4320000000000001,-0.208,2.37,-1.97,3.88,60.0,11500000000.0,-1.3495072498185008,-9.948368519971792,-0.6290387841323077,-0.14666924785151866,0.3776253729376596,-0.20303732091412,2.274729491105332,-2.099358368703684,3.969030113149857,1.0811654292613242,0.04561142768715396,1.2126754031236169,1.78302113967358,3.0645151319995385,3.0956787049749366,1.2830699623484279,0.5487048046010725,0.06050748283087076,0.399978110562632,-1.1064890810642871,-0.4952722675775697,-1.941121301461904,0.7617200590971841,0.5716343833715539,2.442617433363549,0.6801849311996178,1.5917739062330245,0.5724170228413654,1.8174644391835597,0.868805861095774
231,231,231,231,11.6,-0.939,-9.94,-0.5579999999999999,-0.0822,0.508,-0.228,2.23,-1.88,4.05,60.0,11600000000.0,-1.1590323193856062,-9.945045280926262,-0.5936554047754978,-0.09977628027056766,0.463842120640779,-0.220184142372151,2.2522680954986107,-2.012506766689501,4.009490310764811,1.0867473198743345,0.05101826954201389,1.117373840804794,1.4939265744627042,3.014378776804189,2.927572988791284,1.2678593711842343,0.5632865356478521,0.05361775483054447,0.4457869017114004,-1.0321741701852374,-0.5742400968873147,-1.973198382566278,0.8819948473732164,0.4947406089155007,2.526138955331699,0.6654499336606283,1.5633555379759614,0.5936526147521838,1.8099038350161463,0.8756853928010865
232,232,232,232,11.6,-2.03,-10.2,-0.589,-0.0748,0.628,-0.28,0.8859999999999999,-2.14,4.12,60.0,11600000000.0,-1.5631604005281827,-10.046285687127279,-0.5913366081787143,-0.08160929482624345,0.5723997352319874,-0.26127155302698274,1.56618155552387,-2.0629858092480977,4.064711194427996,1.0313191794800929,0.04677149464787866,0.9733662428744077,1.562922001032128,2.6869644219629243,3.036810306558024,1.2019709505201854,0.5096388423831496,0.045021359977861684,0.606892154190574,-1.4982271557402504,-0.4945980830338458,-1.708896499661701,0.8737047178531723,0.3750123806547301,2.704435066222958,0.5602511629088367,1.66478355812292,0.5632597062565585,1.5818459608614064,0.8074518483949392
233,233,233,233,11.7,-1.7,-10.2,-0.747,-0.126,0.285,-0.218,0.981,-2.07,4.04,60.0,11700000000.0,-1.6266538539324986,-10.107324336903233,-0.6688702871537732,-0.11389774249532306,0.3823422965431911,-0.23154839399392585,1.2723262139767009,-2.0657629446545265,4.052363159411694,1.0829602257857638,0.04368270622609824,0.8234255647428042,1.7860011229165689,2.5122877858848844,3.102589099333643,1.217554926550034,0.4635665209488905,0.03547930920272515,0.4532110343296701,-1.5688995192251034,-0.3948894310983114,-1.5623382195323214,0.7001817353964548,0.5777005471136758,2.782437005262272,0.5428748748564179,1.686166814519923,0.5524816502679858,1.745080319727883,0.8368459218515933
234,234,234,234,11.7,-1.63,-11.4,0.00958,-0.0773,0.0538,0.0508,0.958,-3.23,4.85,60.0,11700000000.0,-1.6282064600015502,-10.620635363189416,-0.3309439882161833,-0.08727765784330703,0.1650772868042491,-0.03760376767906748,1.1144838558045962,-2.52672485569128,4.450936821425345,1.125243231661712,0.0369255145523799,0.8599331580948189,1.6390687752317925,2.2628029756529533,3.143813343163532,1.2334387481868962,0.3973089093736111,0.040098599632810435,-0.16404346100575184,-1.8033025478057323,-0.21182909119427115,-1.742334205574284,0.3946818378654442,0.5277842148227124,2.75256810757718,0.5175195021618015,1.92805909507233,0.5229026161256833,1.6197666096461873,0.8708324308222563
235,235,235,235,11.8,-1.91,-12.1,0.0958,0.328,-0.0153,0.354,0.738,-3.95,4.92,60.0,11800000000.0,-1.7589583528493145,-11.208079392311364,-0.11838896637351515,0.214782662021272,0.04579379237161592,0.23138818900598784,0.9254283407969064,-3.090248958167972,4.6853245428150485,1.1662469860818885,0.02916850027479258,0.8964892052172158,1.4797205666608912,2.0470638109485693,3.1186093191020494,1.254435380318732,0.3356873913358366,0.052064349084013854,-1.0393507363695975,-2.152511831111616,-0.06778964294371065,-1.8072424283322128,0.3358886891873386,0.25903255182027884,2.6103486857647673,0.5273492667256174,2.1265745343712026,0.4948409965199818,1.349389019494242,0.8507479843022604
236,236,236,236,11.8,-0.328,-9.72,1.32,1.15,-0.0409,0.527,2.49,-1.53,5.92,60.0,11800000000.0,-1.094995175411115,-10.617175060921657,0.5980518496305393,0.8950312368065726,-0.01153680956352978,0.43444344097057663,1.7110951866209152,-2.4724921709626013,5.302283517844554,1.0785444081165794,0.024618450960328414,0.9760800948849692,1.5321253576584746,1.7521535015381084,3.0130559274023097,1.2310402181800744,0.30785218438400114,0.062446154010849714,-1.6706314472589274,-1.343031765695869,0.4507635607834228,-2.019006644369948,1.1259314136084582,0.016085315072928347,2.5167208012823914,0.5707064251485378,1.9707091989962666,0.4328851948861326,1.4761405608544633,0.8903340078589954
237,237,237,237,11.9,-0.51,-9.42,0.57,1.83,-0.3670000000000001,0.601,2.58,-0.986,4.51,60.0,11900000000.0,-0.8235580203955183,-10.141786439558123,0.5840796245223974,1.5750990544251895,-0.24660461576786186,0.5488508627433497,2.147425242793457,-1.8839382705032344,4.906384941548842,0.9430066064941872,0.017206023457027358,1.1125507935366812,1.8182722995524296,1.6556030828359365,3.539608564627012,1.1927845898596765,0.2721618732031756,0.06855054077043009,-2.3162340315455783,-0.6835912391363403,0.7410948316743322,-1.7195571455391945,1.6805060783312769,0.0798332101398674,2.7607764692114465,0.6261398097861096,1.7152798736562136,0.3753509058900362,1.4363243445097458,0.9466956171337516
238,238,238,238,11.9,0.103,-11.0,-1.48,1.63,-0.7170000000000001,0.478,3.5,-2.35,1.55,60.0,11900000000.0,-0.3936360663065844,-10.482576187567119,-0.44400866369505376,1.6150323257338155,-0.5576770743543976,0.5001835166988801,2.8266355113083885,-2.068468265509955,3.229222167514873,0.8732173017921001,0.012745102309455202,1.1740439590343517,1.9779651288631728,1.3980006809848682,3.107260478261575,1.1917908144889522,0.25738007827760706,0.06694034338640224,-2.744666837838135,-0.10872212219983833,-0.014387322672982303,-1.5968333827023256,1.3841111164994744,0.5095211455658265,2.3999823553785213,0.7423160049333842,1.6218446728960803,0.35521751763354054,1.2429093639794537,0.8001898117351464
239,239,239,239,12.0,-2.22,-11.1,-0.23,1.34,-0.967,0.253,1.44,-2.31,1.97,60.0,12000000000.0,-1.2410670378878301,-10.727750401950763,-0.3374140382816993,1.4149822175220812,-0.8283623179019936,0.33039357770065425,2.130321289794666,-2.164099048944391,2.5999974205369667,0.7484623952624926,0.015828268681829627,1.1759338407818245,2.34615640501356,1.3181200114766871,2.73825529343422,1.1694157842613842,0.28937549581714,0.06156624495691147,-2.495532705140225,-0.595766173082083,0.2271136977954379,-1.1322366077433232,0.7027238526411022,0.7322071284011024,2.250360427547519,0.8019992475450892,1.4744020147835417,0.3382027479936651,1.438278470084737,0.7385155791299227
240,240,240,240,12.0,-1.16,-10.1,1.67,0.79,-0.7509999999999999,0.28,2.68,-1.18,3.25,60.0,12000000000.0,-1.2034520014632686,-10.478475884332765,0.6624499081717214,0.9603892136154176,-0.7772026108703721,0.2957783165772505,2.4063485243031333,-1.7744600206084589,2.9247992930273816,0.6327923434430844,0.01672828400895239,1.1478700804370363,2.7507610128533044,1.394017956854386,2.614117190648674,1.1683457609881422,0.2963704849741116,0.058562843506527774,-1.9221438645845448,-0.3051669244623821,0.6039675100748628,-1.3582312167335822,0.3695049055568809,0.5677227802098737,2.2577167279316486,0.7695404944058636,1.4127527605832184,0.3399994026813396,1.1994544222450523,0.696172920490994
241,241,241,241,12.1,-0.261,-8.57,0.539,0.537,-0.852,0.235,3.73,0.32299999999999995,1.62,60.0,12100000000.0,-0.7661552602387053,-9.7206352375724,0.6009612775615248,0.6524288022079373,-0.8266661208061425,0.2540297949330821,3.0710346589460222,-0.9440027133802896,2.2727999541927737,0.5453680814982257,0.01926340684275121,1.071234563981667,2.9272215009733498,1.6304210793723235,2.559472026490484,1.1859713395194664,0.30595398956126113,0.05492870416641378,-1.4468740164494285,0.6297829496414612,0.5728414269220954,-1.2356180658793925,0.3880321656438889,0.8169968129255681,1.9867719780525221,0.7921554734293493,1.4523895221862402,0.3188484472447479,1.432060091919412,0.7036164275828125
242,242,242,242,12.1,-0.742,-8.58,1.51,0.246,-0.418,0.224,3.36,0.3,2.27,60.0,12100000000.0,-0.7549472371861653,-9.267698067734939,1.053740344091339,0.3568048818076109,-0.5564152356808885,0.23340238513652625,3.216141725739239,-0.4514588095744724,2.2714008265761483,0.4659703102338836,0.02024626033859618,1.1337664428788623,2.5729645416274503,1.887710092717524,2.7933663479332798,1.175817049319211,0.31388158646663344,0.057591258797977614,-0.8143477651342873,0.8941731956468666,0.7064369609240434,-1.2162459349355252,0.4563999807960615,0.552625263097134,1.7564708538408362,0.8079294851715912,1.465304689947679,0.3048697994926762,1.4567145113510376,0.7120249517001164
243,243,243,243,12.2,-0.16,-8.58,1.66,0.213,-0.627,0.163,4.04,0.267,2.21,60.0,12200000000.0,-0.478892338663657,-8.994618629221769,1.355709514455541,0.25220559269859083,-0.6030929211886826,0.1850431094629372,3.629851186741426,-0.16699600692567124,2.2407192697880842,0.44182690125420254,0.02109689016491987,1.201272896431959,2.7827259549651586,2.175128196355632,2.8708204736277447,1.1741419935223645,0.3126576098505787,0.06391545330829926,-0.6270317486548318,1.3195418846434683,0.7920577704147489,-1.3630666723917841,0.4200482917413009,0.6164128432991014,1.8321377524339972,0.7786277889275082,1.555487407901497,0.30025531510599646,1.548321735022762,0.7604307203289902
244,244,244,244,12.2,-0.306,-8.28,1.66,-0.0235,-0.369,0.0832,3.96,0.545,2.01,60.0,12200000000.0,-0.39867047138757866,-8.710849175089269,1.5072721981236523,0.05166574692031384,-0.4482872713583771,0.11508725270330092,3.7956390582201007,0.11490795826107893,2.1254304135403905,0.5064950635398433,0.022991919877567255,1.228604728030545,2.70710177248832,2.4130875545169954,2.9500346524267864,1.2031290675787396,0.3136532662264732,0.06669807022984248,-0.17443730620448644,1.5338746852006102,0.764881307799232,-1.3848250843653531,0.4441526957731965,0.5376590913619289,2.0014139955150774,0.8048340053509666,1.7318536628874517,0.30025052878484804,1.536666823110608,0.7805988642552765
245,245,245,245,12.3,-1.38,-9.35,3.28,-0.116,-0.194,-0.0592,2.91,-0.534,3.61,60.0,12300000000.0,-0.8540063458337608,-8.964651012536224,2.3902423235969312,-0.070289205568504,-0.2801271101890565,-0.004630361750982637,3.3509057220115763,-0.14201724163835405,2.8672596965098016,0.5182228316102963,0.01898085251219717,1.2614475505468703,2.651644670408983,2.7060287303051265,2.86498252787266,1.2119101620228034,0.2709651399421768,0.06805471608821184,0.21727498001022905,0.936478535004592,1.1106437252189476,-1.597941531963334,0.2167928556462768,0.19681098396705607,2.021596791439655,0.8069315995760276,1.8575436229530258,0.2912670093546227,1.4765481356191852,0.7678708743344123
246,246,246,246,12.3,-1.72,-9.3,2.78,-0.0473,-0.435,0.0239,2.53,-0.462,3.06,60.0,12300000000.0,-1.255826510448065,-9.097815491869897,2.584374984215066,-0.05356755781735882,-0.3825445491713836,0.014967094978232976,2.9386788840238367,-0.2687095388937967,2.9635706879898525,0.5101076365483774,0.01411286572481052,1.3181903713559804,2.336562422873933,2.7738136110627383,3.116779020869662,1.2053296956673616,0.2235519872081189,0.07125962902108372,0.12730246502891454,0.5999300741491209,1.3647894154629752,-1.4406049956368672,0.029830563140602687,0.18696419268363,1.9351420728322235,0.8645400767310902,1.8969235240082973,0.2681007459664909,1.4883785761234247,0.8899695242255722
247,247,247,247,12.4,-1.2,-8.48,2.89,-0.244,-0.619,0.0819,3.05,0.359,3.07,60.0,12400000000.0,-1.2299230900144598,-8.852485714415485,2.7366024470169013,-0.19208231507706253,-0.5389125434083273,0.0609431928344715,2.9945799810119533,-0.02017752271490139,3.0167526587051916,0.4679584749344438,0.01390469808033388,1.2319862750835473,1.7690400987452446,2.9167600027928344,3.390144384197884,1.20289680261392,0.2049774624069393,0.06986337697149685,0.1533587907882456,0.8147590990038622,1.5914659178695094,-1.3781475293721346,-0.09483230827213446,0.35621155936649945,1.5048963421577854,0.8671137103624624,1.9116475490054172,0.27258012818866323,1.613389058223625,0.9239434655486433
248,248,248,248,12.4,-2.53,-9.26,3.46,-0.442,-0.102,0.205,1.75,-0.444,3.67,60.0,12400000000.0,-1.8331574055473605,-9.014306472203897,3.0969163493767424,-0.3738648243911242,-0.2499822902423781,0.15989556494670915,2.3696004753783497,-0.18798357012566352,3.343175954759853,0.4502550274779923,0.014773292436478834,1.26785872191958,1.6110469418032412,2.904169135661793,3.3514027479645137,1.161497367690896,0.19393857298442932,0.0712509926809483,0.3946732702703819,0.1982922312278617,1.795449444707807,-1.2305690572705823,-0.17126207854123188,-0.10344258941747696,1.3549660463452007,0.860543827521259,1.7888875607937644,0.27804556613827813,1.4031668212437924,0.8769753680433529
249,249,249,249,12.5,-0.35200000000000004,-8.84,3.13,-0.444,-0.0177,0.198,4.01,-0.0669,3.47,60.0,12500000000.0,-1.1459019149818817,-8.945090825334221,3.1133948953951323,-0.4248790180138118,-0.0963740184683497,0.18606943518128585,3.1933452267220948,-0.14004237746168274,3.4065490827518903,0.4411114773679514,0.01434161658594272,1.2197265083071744,1.4983620512615752,2.6802578754513067,2.693448630688135,1.1364681221715005,0.18491626027261987,0.07077744328805563,0.4149184835688395,0.7318585926416417,1.4768381884625021,-1.6840675137215346,0.03300431950192117,-0.21348372045622271,1.2726739133307798,0.839282992273261,1.811705488106246,0.2737858026334629,1.3529201377380444,0.8636254163471402
250,250,250,250,12.5,1.36,-11.8,-0.472,-0.8540000000000001,0.37,-0.277,5.7,-3.05,0.0786,60.0,12500000000.0,0.016833963766221816,-10.078752524553316,1.327561429633073,-0.7370085232963881,0.21203910916672325,-0.13201217113151065,4.452089353811595,-1.2921956924643845,1.7435955364108218,0.4075444268038913,0.016194785947183512,1.1894125417926331,1.719765090434942,2.214754761342317,2.359831361883274,1.111048441927263,0.1876325367984112,0.0736621406217603,0.5479937837853579,1.0684873792748204,-0.6392192898172829,-2.4744810806471333,-0.23634349387691064,-0.02214268964613192,1.4376390098594543,0.8365608756044445,1.812643938542227,0.2687689560830562,1.4165772381902086,0.8305652305152904
251,251,251,251,12.6,-2.32,-14.8,6.07,-0.0748,0.0226,-0.0372,1.88,-6.0,6.98,60.0,12600000000.0,-1.0674545245307798,-11.95352225158682,3.689701739187224,-0.2553382230897423,0.08676303241254278,-0.06688585377058498,3.1604864353203954,-3.1561789979880666,4.3601912774478215,0.387663211752513,0.013511763057979432,1.1439382910331115,1.8230800240526697,1.985192126611227,2.219298801838993,1.0557361017762648,0.1464159634102006,0.06525917602961494,-0.4068474953218456,-1.0121387060397002,0.4419848910233845,-3.36103248409573,-0.9385833054310264,-0.8944533950531579,1.514994133550289,0.6831523764004125,1.9183798262298795,0.2552496067496239,1.380093458975148,0.8191921942107295
252,252,252,252,12.6,0.117,-5.54,-2.48,-0.338,1.27,0.000687,4.33,3.26,-1.51,60.0,12600000000.0,-0.5178688624595503,-9.406763792255198,0.6166623149854717,-0.31546388025847394,0.8692375911195683,-0.020470176616488645,3.747770477289958,-0.6157907960864488,1.4268965861106215,0.4166895698454365,0.012267574826861348,1.0833889996500674,1.7260238038051674,1.7371041467295667,2.034475974754644,1.0239627500780697,0.1286783405941742,0.07292049905918271,0.8783636707108535,0.7903833693003736,-0.6979607779964975,-1.617695934436557,0.8628325395935225,-0.5875284545831845,1.5308512024149836,0.6191569130417294,1.9482866599996225,0.2541888606234674,1.2851973695656096,0.7652164781699112
253,253,253,253,12.7,-1.43,-9.99,-0.196,-0.7509999999999999,0.489,-0.28600000000000003,2.62,-1.19,1.3,60.0,12700000000.0,-0.9410967335739802,-9.638362139599133,0.21188694421211365,-0.6322595720033369,0.6177864785828774,-0.20286216526753434,3.181448089302496,-0.843140194386133,1.3634872004075986,0.5166805203071742,0.00977062030862684,1.1465781010758014,1.7187205904262368,1.4525637897847334,1.7269604120795117,1.0108856477758077,0.11593123344580225,0.08701775926032082,1.1452598193480612,0.33538167900765464,-0.7463990839214373,-1.4446378890306315,0.3259371005546821,-0.07655132735821528,1.4787531691993998,0.6794447419668722,1.8142573267176918,0.2643442840948119,1.2695465965225912,0.7804977358034803
254,254,254,254,12.7,-3.05,-10.7,1.65,-0.48,0.825,0.0752,0.897,-1.87,3.5,60.0,12700000000.0,-1.9196256251402721,-10.059929976089684,0.9281902951336204,-0.5215105914345202,0.7548167662228967,-0.011861742424183695,2.0342874005224827,-1.249709673198571,2.4310881297463967,0.543903725923219,0.006601743337849146,1.2221201078069177,1.8061460944195595,1.4159107340801165,1.7537859378546865,0.986907892928772,0.11255392061511801,0.092041886880303,0.9343876789038033,-0.7911461742473778,-0.09268582612104216,-1.251408610452161,0.2627711538986324,-0.595606077423757,1.426994861578367,0.7677447415887756,1.7830450363342836,0.26142498671477105,1.3773534664775526,0.8093054505275145
255,255,255,255,12.8,-0.129,-10.2,-0.333,-0.35100000000000003,0.069,-0.0958,3.74,-1.4,1.78,60.0,12800000000.0,-1.088777201535182,-10.11555058773202,0.30000960449244074,-0.3974863912883534,0.3012861580631072,-0.06951878558782032,2.8908297195367707,-1.3092148262165777,2.105743800858861,0.471354751931126,0.007019479510227983,1.3439346643294154,1.9142274200947649,1.4718818899659687,1.8211192098850728,0.961298952206296,0.1390761055369864,0.09328790191201558,0.4241004801334241,-0.08549217881611111,-0.4728874227654135,-1.5689442720328384,0.184544487354788,0.08512965812782157,1.4189118405785115,0.8593367720082399,1.755680170175651,0.25053466946824643,1.31049871731951,0.7632151359659877
256,256,256,256,12.8,-1.79,-9.48,-0.278,-0.342,0.625,-0.0463,2.0,-0.72,1.98,60.0,12800000000.0,-1.4141438301679028,-9.863178345408311,0.01211136192305684,-0.3571272866894054,0.5153581120661014,-0.05356984265014243,2.4434897926426182,-1.075924214636194,2.04291048747162,0.460466098685235,0.011827036849404823,1.3304449668647869,2.1378892120335697,1.608546521766084,1.798930952679995,0.9573957035263456,0.19455689876824392,0.08628513940230342,0.6621454718467323,-0.3102806895348681,-0.4536425208379288,-1.198628593071969,0.4716073099210131,-0.041216339256458685,1.5259492663909981,0.9483734322351872,1.5987957126690653,0.25415350578433926,1.3695987443423256,0.7367730572388199
