,Unnamed: 0,Unnamed: 0.1,Unnamed: 0.1.1,Time (s),Acceleration x (m/s^2),Acceleration y (m/s^2),Acceleration z (m/s^2),Gyroscope x (rad/s),Gyroscope y (rad/s),Gyroscope z (rad/s),Linear Acceleration x (m/s^2),Linear Acceleration y (m/s^2),Linear Acceleration z (m/s^2),SPM/RPM,Timestamps,Acceleration x (m/s^2)_kalman,Acceleration y (m/s^2)_kalman,Acceleration z (m/s^2)_kalman,Gyroscope x (rad/s)_kalman,Gyroscope y (rad/s)_kalman,Gyroscope z (rad/s)_kalman,Linear Acceleration x (m/s^2)_kalman,Linear Acceleration y (m/s^2)_kalman,Linear Acceleration z (m/s^2)_kalman,Acceleration x (m/s^2)_kalman_max_freq,Acceleration y (m/s^2)_kalman_max_freq,Acceleration z (m/s^2)_kalman_max_freq,Gyroscope x (rad/s)_kalman_max_freq,Gyroscope y (rad/s)_kalman_max_freq,Gyroscope z (rad/s)_kalman_max_freq,Linear Acceleration x (m/s^2)_kalman_max_freq,Linear Acceleration y (m/s^2)_kalman_max_freq,Linear Acceleration z (m/s^2)_kalman_max_freq,0,1,2,3,4,5,0_max_freq,1_max_freq,2_max_freq,3_max_freq,4_max_freq,5_max_freq
0,0,0,0,0.0475,0.7609999999999999,5.1,8.1,-1.69,0.293,-0.159,-0.895,-1.29,0.841,60.0,47500000.0,0.15569595618919446,3.61645991567984,6.968846578206014,-1.4722217519091978,0.3481324942154178,-0.2061690619560364,-0.972997531268708,-0.9284585301235893,0.6013225656211468,,,,,,,,,,-2.713466133565135,1.493509808579072,5.0515107208368475,0.8135416741855526,-2.6108846235995835,2.418203946322864,,,,,,
1,1,1,1,0.0975,-0.637,4.29,8.83,-1.29,0.8959999999999999,-0.516,-1.92,-1.5,1.02,60.0,97500000.0,-0.005734442947441049,3.738209557265821,7.640378146326755,-1.3475886171394338,0.6654276994528026,-0.4039042260830517,-1.1975436935354924,-1.0303702897136515,0.7537500053307553,,,,,,,,,,-2.7608019935637116,1.9639269560361228,5.156845127070231,1.00805311536612,-2.6934258304544443,2.596722646093856,,,,,,
2,2,2,2,0.147,-0.7709999999999999,4.47,8.72,-0.373,-0.29600000000000004,-0.0799,-1.79,-0.944,0.612,60.0,147000000.0,-0.2326631351075054,3.937693801946255,8.141432220061567,-0.6423804516056203,0.05051410580031978,-0.1830164987193895,-1.397634942493093,-1.007128907577685,0.6873816050360027,,,,,,,,,,-1.982059847711032,1.3937846892065844,5.752621728445102,0.7359573253693251,-2.674054664242312,2.5208213652736102,,,,,,
3,3,3,3,0.197,-0.397,4.74,7.22,0.231,0.26,-0.0977,-1.42,-0.6579999999999999,-0.906,60.0,197000000.0,-0.2884856516239351,4.192944978433979,7.687895622183231,-0.0077902781096403926,0.18610747358396545,-0.12448143689523446,-1.4061136558680476,-0.8973035809132477,-0.10311518814235844,,,,,,,,,,-1.8695042758781624,0.944937488321214,5.581270493488733,0.37180008062987097,-2.911344612702793,2.8567953916365334,,,,,,
4,4,4,4,0.247,1.4,4.2,6.13,-0.591,-0.0953,-0.0531,0.499,-1.16,-2.02,60.0,247000000.0,0.31595066557990303,4.195334350797976,6.909954827111522,-0.4316755559607067,0.0036933195109139227,-0.07547657237599015,-0.6542475299058244,-0.9853832027143038,-1.0674992353747401,,,,,,,,,,-2.474601313884841,0.2098062656635859,5.213026483828863,0.4860657315483081,-2.6672844182968376,2.9494931920505882,,,,,,
5,5,5,5,0.297,-0.244,4.93,8.97,-0.162,0.343,-0.117,-1.05,-0.213,0.66,60.0,297000000.0,0.1113291554063908,4.450665938202409,7.9423223719298175,-0.2356669589661,0.22367895704364524,-0.10398502856876077,-0.8126680587182225,-0.7194350340073286,-0.19542508729266828,,,,,,,,,,-2.341011919612748,0.7059366360703286,5.6907800930711865,0.600102112560401,-2.9281087411744213,2.7599559464405816,,,,,,
6,6,6,6,0.34700000000000003,-0.512,5.48,7.22,0.0473,-0.245,-0.0555,-1.15,0.331,-1.1,60.0,347000000.0,-0.11831438109570658,4.812269917998833,7.580018392158671,-0.02999740343940155,-0.08019057192044822,-0.07069679266235535,-0.948385294630129,-0.35369328571944986,-0.6524525453055439,,,,,,,,,,-2.2755049970511747,0.41140374529282253,5.834741516099365,0.05966978513315301,-2.8205716000630767,2.7581928700364786,,,,,,
7,7,7,7,0.397,-0.6679999999999999,5.05,7.44,-0.906,-0.464,0.203,-1.31,0.442,-1.16,60.0,397000000.0,-0.321480233942685,4.8961586372464385,7.5097722897323385,-0.6667045732979131,-0.3290353462447455,0.11721458939103685,-1.094133148118859,-0.07534628165453787,-0.9089381327258994,,,,,,,,,,-2.426924667512154,0.3996377446069799,5.973925470879222,-0.2836249429522768,-2.4425576319798936,2.7521223950925595,,,,,,
8,8,8,8,0.447,0.227,3.98,9.12,-0.921,-0.207,0.315,-0.76,-0.618,0.515,60.0,447000000.0,-0.11850088131823365,4.572267025970767,8.31765493002787,-0.8515347583956516,-0.2499130868309529,0.25300767633135546,-0.9593757177220584,-0.2655505842242433,-0.1893249159016676,,,,,,,,,,-2.2870516537955705,0.5635911245190283,6.1838671086147246,0.20823312870494665,-2.532294478988504,2.564903820664623,,,,,,
9,9,9,9,0.4970000000000001,-0.0215,3.9,10.5,-0.564,-0.583,0.161,-1.14,-0.353,1.71,60.0,497000000.0,-0.08258501566145074,4.334413999145847,9.41259490993466,-0.6425451567846439,-0.4658717570989761,0.18983816961643465,-1.0322388455733134,-0.2962277438979222,0.7705454680088568,,,,,,,,,,-1.9279378429200882,0.8011540407268533,6.6962226800639435,0.5957677603199149,-2.5680285434959447,2.1288660355466837,,,,,,
10,10,10,10,0.547,0.7809999999999999,2.74,11.1,-0.263,-0.8420000000000001,-0.0861,-1.51,-0.151,1.67,60.0,547000000.0,0.2372329708705113,3.770115331595292,10.25921350844065,-0.3666794073397393,-0.7097365053192353,0.00038791621947839583,-1.2249814010096407,-0.2452641747915912,1.2251081814191722,,,,,,,,,,-1.7310473328696618,0.8790104782965431,6.968899881162268,0.95790198493278,-2.5582613465906974,1.670173142485336,,,,,,
11,11,11,11,0.597,-0.151,3.5,7.42,-0.34700000000000003,0.013999999999999999,-0.363,-1.85,-0.487,-1.38,60.0,597000000.0,0.0934442838989346,3.6745025398187567,8.834699398662119,-0.35237577644939844,-0.2404980989545072,-0.2491025209149821,-1.4771390959670994,-0.3301070157348259,-0.09145193509266723,,,,,,,,,,-2.1663565971517897,0.9317215751607204,6.054496688987039,0.5415052915307085,-2.5025486476628798,2.282438304617844,,,,,,
12,12,12,12,0.647,1.52,1.29,12.3,-0.918,0.4920000000000001,0.307,0.0922,-2.37,3.35,60.0,647000000.0,0.6218101241125931,2.8304118453430003,10.57333969952834,-0.763489836304093,0.23442094173460445,0.1326995576485095,-0.8439979973054335,-1.046099581316162,1.6477768177849788,,,,,,,,,,-1.8627259978231407,1.2935648308548953,6.3156804286656865,1.915104494142373,-2.8539563180393905,2.014672346201873,,,,,,
13,13,13,13,0.6970000000000001,0.584,1.68,9.97,-0.154,0.65,0.293,-0.6990000000000001,-1.66,0.84,60.0,697000000.0,0.6078058814505615,2.423167627697912,10.270627072441195,-0.3204928100843589,0.5038638153487561,0.2427566844801517,-0.7854991522112087,-1.2615812890556468,1.2395453968913732,,,,,,,,,,-1.6078766303257246,1.032168400482522,5.960032431686897,1.9112131865333204,-3.0336036668849538,2.2914247853859657,,,,,,
14,14,14,14,0.747,0.156,1.57,10.1,0.6829999999999999,0.539,0.403,-0.892,-1.86,0.98,60.0,747000000.0,0.44046368919596735,2.1211445149154904,10.18501878670236,0.40887840511148216,0.5266445308484027,0.3527745792301804,-0.8284665446454104,-1.4716311787796772,1.108377265132658,,,,,,,,,,-1.032263681561846,0.7253075754823998,5.8758820312054745,1.8448507441989497,-3.219681978440873,2.430823053205849,,,,,,
15,15,15,15,0.797,-0.479,2.39,7.96,1.02,1.24,0.334,-1.25,-1.36,-1.07,60.0,797000000.0,0.09990731457567904,2.2163203492309784,9.06866330726258,0.8530614320439429,0.9891523432385756,0.3398845522347264,-0.9985327816875208,-1.432447541125312,0.007476581932047477,,,,,,,,,,-1.0753749476033574,0.5621342171919572,5.244988325463343,1.2854385158010522,-3.381733982034893,3.046487038208633,,,,,,
16,16,16,16,0.847,-0.773,2.45,8.18,0.78,2.15,0.985,-0.927,-1.7,-0.7040000000000001,60.0,847000000.0,-0.22340548751377287,2.299043934763046,8.622795687863768,0.7999579874434208,1.7417941472132037,0.7828000401264928,-0.9696731142049804,-1.5263612881597188,-0.3520869542421119,,,,,,,,,,-0.9944073628975356,0.5680719029288561,4.826792846638242,1.0311002294804692,-3.7306744596632235,3.7021487603521015,,,,,,
17,17,17,17,0.897,-1.8,1.67,9.66,-0.0596,0.223,1.31,-1.32,-2.71,0.904,60.0,897000000.0,-0.807354461050815,2.0763595900537246,9.143190650242992,0.1752033011381282,0.7570759005269055,1.1447585046634798,-1.1110113558516552,-1.9418312943960208,0.2827098546949367,,,,,,,,,,-0.2436234708481829,0.4906372245934972,5.482222261233837,1.010215743986788,-2.965817499162198,3.458450082191203,,,,,,
18,18,18,18,0.947,-1.49,2.8,9.69,-0.303,0.542,0.961,-1.1,-1.48,0.877,60.0,947000000.0,-1.0601970435826678,2.3325315489422125,9.417540314215334,-0.17237040525910485,0.6176302956255162,1.018595854193815,-1.1065688703705892,-1.779723464362203,0.5830501097571392,,,,,,,,,,-0.4357133170035588,0.8252771257933391,5.7386103217028985,0.9684868251701464,-2.702912151662173,3.314132905698598,,,,,,
19,19,19,19,0.997,-0.6559999999999999,3.0,6.98,-0.471,0.198,0.703,-0.431,-1.11,-1.92,60.0,997000000.0,-0.9104879816080141,2.5688184268240835,8.194556701406253,-0.3894240919965296,0.34556076460364354,0.8019179167661609,-0.8340128396357778,-1.544643172375637,-0.6819325490116339,,,,,,,,,,-1.0646174649282,0.3450856501242727,5.331628893422391,0.5461537103008071,-2.317344757522237,3.435457991180174,,,,,,
20,20,20,20,1.05,-0.227,2.82,10.6,-0.441,1.3,0.466,0.251,-1.06,1.63,60.0,1050000000.0,-0.6573333555129266,2.657737831067524,9.40143652535206,-0.4269111490738536,0.964376479848604,0.5712874934355103,-0.3962679988032655,-1.3745280615577085,0.4864638068821348,,,,,,,,,,-1.4873876064307308,1.042735119439963,5.577678212042035,1.2447762040622676,-2.7028638461234915,3.1284167725125034,,,,,,
21,21,21,21,1.1,-0.079,2.89,8.48,0.223,-0.0745,0.476,0.484,-1.04,-0.487,60.0,1100000000.0,-0.4431265690010735,2.7399597420687414,8.939125263118994,0.045465404181947784,0.2908153966259647,0.5058661785410291,-0.04112678320201835,-1.25710501146515,-0.005501909858642295,,,,,,,,,,-1.3649661002302336,0.2429217751284691,5.702615292252624,1.0542966606293902,-2.5253124268910585,2.865396664479951,,,,,,
22,22,22,22,1.15,-0.433,3.31,7.48,0.0699,0.6970000000000001,0.302,0.194,-0.682,-1.46,60.0,1150000000.0,-0.4393758253147234,2.941756591381118,8.20704043725282,0.0632252617002086,0.5541673582998531,0.3658982202966241,0.05373434321521545,-1.0552368050298464,-0.7405710696311367,,,,,,,,,,-1.8022769693820155,0.1720906031121021,5.3074138049325885,0.7744832248674757,-2.546225981572736,3.113810729311445,,,,,,
23,23,23,23,1.2,-0.417,2.2,8.51,-0.193,1.66,-0.109,0.687,-1.78,-0.391,60.0,1200000000.0,-0.4310881231440757,2.679171366946166,8.359044021046806,-0.12300759026259102,1.2711398016670112,0.039848407283355036,0.3092232715059311,-1.3096366685460583,-0.5639060705436941,,,,,,,,,,-2.2897709861603555,0.8173068718243262,4.882723320311292,1.263937044118978,-2.613601301068757,3.3163189802081785,,,,,,
24,24,24,24,1.25,-1.28,1.21,9.14,-0.4970000000000001,1.76,-0.31,0.61,-2.6,0.3,60.0,1250000000.0,-0.7455134961709643,2.1590779656915164,8.750872121845997,-0.3948374373821801,1.5880949008281482,-0.2003462371896844,0.4305706550056477,-1.7625683944093848,-0.12730824631207727,,,,,,,,,,-2.3592471905901067,1.4717712948612252,4.694156406729146,1.74111774730267,-2.3520919154566693,3.4088637202921865,,,,,,
25,25,25,25,1.3,1.06,-0.29,6.44,-0.6679999999999999,2.34,-0.7759999999999999,3.9,-3.82,-2.26,60.0,1300000000.0,-0.0767759378166335,1.2920931146778478,7.591441579516398,-0.5933808550670899,2.0755965087012225,-0.5955715764353494,1.830300504172214,-2.4847495542777738,-1.2051205156698046,,,,,,,,,,-3.2799078563122253,1.0473134066717669,3.4971922640129267,2.538101572372929,-2.0784025332779272,3.7291541779554396,,,,,,
26,26,26,26,1.35,-2.29,-1.99,7.42,-1.3,2.13,-1.94,1.73,-4.85,-1.05,60.0,1350000000.0,-0.8965239375301992,0.13021706636527974,7.505424478828818,-1.1069745849003638,2.110869375355405,-1.5186128481349446,1.7898346047231433,-3.314978511958121,-1.12672622973016,,,,,,,,,,-3.569695490211461,2.2455667632385117,2.9206988535627985,3.085186171507836,-0.9647144211486598,3.810137626682317,,,,,,
27,27,27,27,1.4,-7.51,-2.19,8.67,-1.41,1.47,-1.96,-2.42,-4.01,0.49,60.0,1400000000.0,-3.346065376747716,-0.6911504576695536,8.089725330971236,-1.3272232827322217,1.6953583314982166,-1.8216550694234224,0.09139070655167036,-3.5589387995461146,-0.30967079654191043,,,,,,,,,,-2.371897284044249,3.9347207813501317,3.298505213104664,2.3208350185340656,0.23133982823362356,3.9272584589541264,,,,,,
28,28,28,28,1.45,-7.59,-4.49,6.17,-1.54,0.852,-1.57,-1.94,-5.25,-1.81,60.0,1450000000.0,-4.917960948895299,-2.035960571860848,7.1265443192543465,-1.4818762898142732,1.1485624779615642,-1.6488768441665798,-0.7281671879876546,-4.152519930568552,-1.0679018753298697,,,,,,,,,,-1.2887885655418108,4.062458726242782,2.867178528867377,1.5518555010447252,1.3694716729128371,4.379533659375112,,,,,,
29,29,29,29,1.5,-14.5,-3.89,8.16,-2.45,1.13,-2.61,-8.49,-3.23,0.442,60.0,1500000000.0,-8.467017556077689,-2.6922990866237493,7.645058486190559,-2.1855401076759966,1.1365273937203395,-2.3087529594594143,-3.8596529085323,-3.8287052677266495,-0.30483296346362265,,,,,,,,,,-0.30316566792634003,7.154700696566121,3.160380365790035,-0.03460154770000493,2.872496429055736,4.755231081372951,,,,,,
30,30,30,30,1.55,-11.6,-2.41,5.96,-1.98,0.405,-0.586,-5.44,-0.341,-1.34,60.0,1550000000.0,-9.627431674342542,-2.5923639430634733,6.799616516390801,-2.0361468898213184,0.66223772450263,-1.1259663092780658,-4.497238746234673,-2.6044822517121107,-0.8279820645230034,,,,,,,,,,0.7604929524981264,6.315876443258339,3.559394507441385,-1.9069821052002909,2.9362559346413866,4.795880432176483,,,,,,
31,31,31,31,1.6,-8.67,-3.33,6.5,-2.14,0.831,-1.27,-5.38,0.581,-0.965,60.0,1600000000.0,-9.272812065628198,-2.8534904699513057,6.649290349309722,-2.1116307824831826,0.7716556227491823,-1.2248551868539908,-4.853385904728487,-1.4863428609883618,-0.8972276946603291,,,,,,,,,,0.2832521905019704,6.430307071139282,3.500354871868096,-2.3538903476124453,2.7586519159981946,4.2658434351945935,,,,,,
32,32,32,32,1.65,-10.6,-2.2,7.92,-1.38,1.18,-0.983,-4.23,1.84,1.67,60.0,1650000000.0,-9.764384520739734,-2.622151857411293,7.286841726754565,-1.5798577433052368,1.0364078339635292,-1.0588051957408608,-4.601882928026736,-0.31875982084674725,0.4001888067508702,,,,,,,,,,0.4693084079457253,6.737746340600848,4.075968197861567,-2.783524214573652,2.3062664338230445,3.607361623370189,,,,,,
33,33,33,33,1.7,-8.5,-3.87,4.37,-0.546,0.8959999999999999,-1.1,-2.01,0.727,-1.37,60.0,1700000000.0,-9.296073734963244,-3.063895793750836,5.823378833418253,-0.8284163307974051,0.9453736872055216,-1.0870882372423212,-3.5561963171167545,0.04831340865221079,-0.4944230026527328,,,,,,,,,,0.24441683338498785,5.613984090056863,3.45910196576782,-3.0179662336741986,2.1803724256978816,3.3721379350197362,,,,,,
34,34,34,34,1.75,-10.3,-3.99,4.96,-0.787,1.08,-1.22,-3.8,1.2,-0.289,60.0,1750000000.0,-9.667914404990725,-3.391740941969127,5.390197022897094,-0.7983135956064739,1.0326593997704574,-1.1783411902119445,-3.6545580885241433,0.4525681202063343,-0.3906070487568252,,,,,,,,,,0.2156653249751168,5.862422195148728,3.2773079311822744,-3.372890000601359,2.2903461850055766,3.1854220988230657,,,,,,
35,35,35,35,1.8,-8.49,-4.38,4.63,-0.265,1.45,-0.517,-1.98,1.25,-0.0682,60.0,1800000000.0,-9.231630886236646,-3.7415892304818685,5.0087845131606645,-0.4106839275835823,1.3032444248448818,-0.724285653662824,-2.9789631659919085,0.7324755044069409,-0.2276701056993888,,,,,,,,,,0.3637253801107516,5.186846065878272,3.0653512267342333,-3.3564559032100987,1.7531795276634778,2.990351663191787,,,,,,
36,36,36,36,1.85,-7.0,-4.88,3.01,-0.0516,1.22,-0.4,-0.29,0.907,-1.2,60.0,1850000000.0,-8.405065235713494,-4.144591914870045,4.005937207753216,-0.14969005760643744,1.249272478534154,-0.501641577814094,-1.894109854184156,0.7937355289261501,-0.7190627995608728,,,,,,,,,,0.1384786663248179,4.091536649565997,2.5856787860074903,-3.1890228393640787,1.5161021538582735,2.7731751965655,,,,,,
37,37,37,37,1.9,-8.25,-4.79,3.53,-0.449,0.71,-0.0903,-0.138,1.01,-0.79,60.0,1900000000.0,-8.34763118682058,-4.373069329417701,3.767145897529325,-0.3672382540510653,0.8996322897295299,-0.2192277064898573,-1.1856131320487289,0.8696467399753904,-0.7549128038215458,,,,,,,,,,0.16316534030891813,3.5206396778682114,2.6477765586018958,-3.1978663087448513,1.7829601444450671,2.551843985970469,,,,,,
38,38,38,38,1.95,-8.78,-5.44,3.83,-0.2,-0.00672,0.467,-1.79,0.45,0.29100000000000004,60.0,1950000000.0,-8.507774600688366,-4.7507677100458165,3.7986815583619777,-0.24568405678604,0.311993970158835,0.25191412884692643,-1.4294510024159768,0.7223461020300098,-0.2263330571330199,,,,,,,,,,1.0687131343175915,3.1212687960753285,2.970750756058551,-3.3630583287272486,1.8270461423068776,2.2792551443067377,,,,,,
39,39,39,39,2.0,-9.9,-4.42,3.95,-0.402,0.493,0.524,-2.73,1.31,0.509,60.0,2000000000.0,-9.023435763403194,-4.633674447684204,3.8746023680097537,-0.359299572929193,0.4293501911778593,0.4387195126861128,-1.954153207844032,0.92861908101126,0.14528698444749505,,,,,,,,,,1.3604308859692138,3.514860319190495,3.1151618650164776,-3.7431479238890697,1.7662276135755277,2.3389088044634745,,,,,,
40,40,40,40,2.05,0.0,-4.67,12.0,0.483,0.235,0.893,7.46,0.7559999999999999,8.65,60.0,2050000000.0,-5.68127819705539,-4.64653388714327,7.951346523307116,0.2529111446230401,0.3033422123785078,0.7506138610084693,1.843955826988276,0.86802787367217,4.443368809687737,,,,,,,,,,0.939179399182347,2.312681129874246,4.839313278375008,-0.2966051698445661,0.1661491699387887,-0.02697292743559911,,,,,,
41,41,41,41,2.1,-9.82,-3.83,2.49,0.972,1.12,0.482,-2.14,1.33,-0.755,60.0,2100000000.0,-7.214204205668937,-4.357477111776775,5.211232932753703,0.7755683020954667,0.8328266283728102,0.5661922353385267,0.23664196413627736,1.030185199887682,1.8162354258059872,,,,,,,,,,1.102004647958134,2.544698545977812,3.5925989420011164,-2.2105522393813537,0.3993220366143985,1.412478769844167,,,,,,
42,42,42,42,2.15,-9.81,-4.76,1.58,0.58,-0.211,0.632,-1.88,-0.0402,-1.73,60.0,2150000000.0,-8.175651727945143,-4.499972144991403,3.3893396383394987,0.6334228906950308,0.1560560942824537,0.6113737459190854,-0.6173102437060892,0.6544681905303376,0.024051401553762952,,,,,,,,,,1.559405954032108,2.152054875757809,3.0653445320946524,-3.314740977235925,1.2762528625596756,2.114583637953157,,,,,,
43,43,43,43,2.2,-7.15,-5.87,0.953,0.852,0.833,0.0606,0.9,-1.44,-2.47,60.0,2200000000.0,-7.795764348665596,-4.984968260993859,2.1669584338947283,0.7922918376022537,0.5949562727808992,0.2332302411823244,-0.005156446744705168,-0.08071326305151294,-1.236383557793736,,,,,,,,,,1.033252935754942,1.840074647837211,1.9878153520752333,-2.9173527599700715,1.3729247316396538,2.683747283048629,,,,,,
44,44,44,44,2.25,-6.09,-7.13,2.8,0.8340000000000001,0.959,-0.036000000000000004,2.11,-2.74,-0.313,60.0,2250000000.0,-7.163972549642893,-5.744319394418572,2.4845734512970843,0.8226066795949628,0.8309859507618252,0.04838543439472809,0.8481963936128127,-1.0141522387301634,-0.7697272125526242,,,,,,,,,,0.9504861666514322,1.7897040250295115,1.6284683150115176,-1.74527234869011,1.3090780767097934,2.627778220491895,,,,,,
45,45,45,45,2.3,-7.19,-3.72,2.6,0.292,-0.0342,0.607,1.12,0.515,-0.42,60.0,2300000000.0,-7.173612783547628,-5.027701036341541,2.5424862009635745,0.4369444934007136,0.27003804463400594,0.4319121896172383,0.957854662843728,-0.4774029438635615,-0.5929832945510586,,,,,,,,,,0.9609865448191952,1.381784700380536,2.226947352912092,-2.18715431481576,1.4077089698695822,2.332119965217877,,,,,,
46,46,46,46,2.35,-7.83,-5.13,4.04,0.12,-0.457,-0.0158,0.524,-1.04,0.934,60.0,2350000000.0,-7.416729629996648,-5.0639153800951,3.2938316425882057,0.20657893078423945,-0.20134092384614755,0.12452742794203885,0.7828174275929165,-0.6748807017195126,0.17871817188499295,,,,,,,,,,1.0891617589463156,1.8784467022492501,2.6938860591279417,-1.8909876585393648,1.8327274805418463,1.967119662791624,,,,,,
47,47,47,47,2.4,-10.1,-2.5,4.19,0.518,-1.41,0.219,-1.94,1.5,0.625,60.0,2400000000.0,-8.410576528200005,-4.156277553294723,3.7434649420257937,0.4329298920566481,-0.9849814319802735,0.1893892493988716,-0.31569429396557713,0.08852641002559214,0.404258516031256,,,,,,,,,,1.7037134176798556,2.1095959385474083,3.673239050951563,-2.9757961561712443,2.1156061361203493,1.7478260807921664,,,,,,
48,48,48,48,2.45,-2.17,-2.31,0.716,-0.7090000000000001,-2.47,-1.09,5.7,1.61,-3.62,60.0,2450000000.0,-6.099152104733666,-3.5026867947666336,2.2244992885063057,-0.3970618677817395,-1.9478011242730304,-0.6889982047884431,2.111317623861222,0.6225804245382651,-1.6295070725471752,,,,,,,,,,-0.8828740818449979,0.41401690161663796,3.201205793625125,-2.3257265221702785,2.8299578226550697,0.9849769681503768,,,,,,
49,49,49,49,2.5,-8.86,-10.6,1.52,-1.61,0.16699999999999998,-2.59,-1.66,-5.64,-2.96,60.0,2500000000.0,-7.1217323920211575,-6.015168419537357,1.8710318565520287,-1.2786647414588264,-0.576658588939283,-1.9941647200837176,0.5897919975672332,-1.5756543238148055,-2.3019069383741786,,,,,,,,,,-1.1509781141446556,2.9787590994458086,1.2365648275881176,-1.2247362036281202,3.879368267644118,2.2924834234532114,,,,,,
50,50,50,50,2.55,-3.7,-13.8,2.2,-1.36,-1.73,-2.99,2.66,-7.68,-2.07,60.0,2550000000.0,-5.854369389225056,-8.771034641048205,2.0360845975027946,-1.3377818617160513,-1.3244336291915308,-2.677873139770921,1.4250106134703402,-3.7183469170307712,-2.1847065899571647,,,,,,,,,,-0.8639278139587684,2.5675252293347395,0.4038379065497987,0.9002634158281794,4.743048025194552,1.8219057053868777,,,,,,
51,51,51,51,2.6,-4.38,-8.4,6.14,-1.5,-1.5,-0.8809999999999999,0.335,-1.17,1.49,60.0,2600000000.0,-5.3082831138292095,-8.639686538018177,4.095136147274546,-1.4556872778195755,-1.4382630179294071,-1.4441979327910606,0.9852494348264812,-2.8238490299150403,-0.327596264432507,,,,,,,,,,0.05023916745316622,2.2595976365988117,1.7056386534692338,0.8754336172170696,3.7971568009167886,1.0709515816676554,,,,,,
52,52,52,52,2.65,-5.61,-6.33,4.56,-0.295,-0.21,-0.00176,-1.13,1.16,0.0744,60.0,2650000000.0,-5.420034983812761,-7.822046862590817,4.328371595823313,-0.612062024495967,-0.6419121641597372,-0.4538665296352835,0.13185903833502488,-1.4254740966738773,-0.1244368029092518,,,,,,,,,,0.6609175661925722,1.9570545667958448,2.0994478794557803,-0.30155191425904915,2.3750877852422203,1.2283299787046391,,,,,,
53,53,53,53,2.7,-3.98,-9.17,4.48,-0.318,-0.396,0.204,0.498,-1.66,0.045,60.0,2700000000.0,-4.886665668686879,-8.299228494641683,4.4044479081785886,-0.3983281779210428,-0.4824737053884964,-0.0021965722661729248,0.279577398424389,-1.507795263469184,-0.038807425159538035,,,,,,,,,,0.9919502220857408,1.4342556432250853,1.9825766644247067,-0.09688008158644656,1.9268139999558875,1.1909561148413053,,,,,,
54,54,54,54,2.75,-4.17,-9.03,4.68,-0.0486,-0.456,0.386,0.319,-1.53,0.239,60.0,2750000000.0,-4.6212225054661085,-8.557924871205019,4.542700179743816,-0.14413436921322836,-0.4653093380840789,0.26432668998048664,0.2954823191370022,-1.5155893608315802,0.1015899127167411,,,,,,,,,,1.306715359411497,1.112984616620438,2.0132014834206724,-0.019625481590703483,1.641590398676321,1.1105601835493246,,,,,,
55,55,55,55,2.8,-3.43,-4.8,5.43,-0.254,-0.388,0.276,1.1,2.65,0.944,60.0,2800000000.0,-4.180009957261219,-7.227602265107576,4.987883765857159,-0.2239882869451943,-0.4151854256591487,0.27234120372912984,0.6200623300076881,-0.05342152194343664,0.5273241692317508,,,,,,,,,,0.4788624939103275,1.0599476627162483,2.697177851982918,-0.4511054433646602,1.1528127952622809,0.5090257909342117,,,,,,
56,56,56,56,2.85,-5.57,-9.07,3.0,-0.597,0.243,-0.713,-1.12,-1.54,-1.43,60.0,2850000000.0,-4.69484337925422,-7.879819421801955,3.99050568161888,-0.4951053275042598,0.011552590370756231,-0.4041623145367701,-0.08196007202817812,-0.5752269489246377,-0.4618614240263784,,,,,,,,,,0.08781965116456512,1.9037174038366644,1.7184425200165852,-0.5431044428758044,1.6805074583518047,1.1063372572747896,,,,,,
57,57,57,57,2.9,-6.28,-9.75,4.06,0.132,-0.0727,-0.7759999999999999,-2.13,-1.95,-0.194,60.0,2900000000.0,-5.281963854646877,-8.541871940733753,4.025372938071416,-0.039304790782711374,-0.04307302480389531,-0.6594541028973677,-0.908235063047546,-1.0577874681286412,-0.32649056045562,,,,,,,,,,0.7747504401092301,2.398391086450316,1.561437300166573,-0.5800993686844461,1.856881373064387,1.2461411221893803,,,,,,
58,58,58,58,2.95,-1.13,-7.08,-0.565,-0.691,-0.0892,-0.779,2.7,0.893,-4.81,60.0,2950000000.0,-3.7441330558477097,-8.024362528802191,1.7222516775781829,-0.512978042301879,-0.07297969246698058,-0.7415304527668759,0.5474954754056679,-0.3730395504191819,-2.592350798017761,,,,,,,,,,-0.9804944039471616,0.8485271737363093,0.5940577930875733,-0.8455060895558596,1.8335947505627643,1.2729903154911908,,,,,,
59,59,59,59,3.0,-2.98,-8.72,-0.00958,-0.918,0.112,-1.41,2.3,1.27,-4.4,60.0,3000000000.0,-3.461108598477593,-8.270621484876209,0.853342241938122,-0.8073611546631534,0.04695287559255725,-1.2004800800466873,1.2545376185928747,0.20368544517067366,-3.5058942562894506,,,,,,,,,,-2.0762918445105414,0.7194385802326702,0.04367737096363239,-0.9636236675699488,2.217153691652608,1.088029120033458,,,,,,
60,60,60,60,3.05,-1.24,-8.27,0.67,-0.865,0.542,-1.63,1.6,0.446,-2.82,60.0,3050000000.0,-2.6384402633944317,-8.270401638424495,0.7613542089759411,-0.8492549480421994,0.3679193045262321,-1.4953746128529886,1.3939132850267963,0.28874052968736996,-3.159259390331958,,,,,,,,,,-2.6307939392622672,0.9073402837325696,-0.21104269592236785,-0.5051083212323892,1.7830223634919125,0.7981254694439605,,,,,,
61,61,61,61,3.1,-2.88,-11.7,0.915,-1.21,0.87,-2.18,-0.8540000000000001,-2.5,-1.95,60.0,3100000000.0,-2.727910738396337,-9.48449515131761,0.8384427031506423,-1.111456206212571,0.6934459924817282,-1.9654163879577704,0.4870001055570393,-0.6901381515625737,-2.5481281474244293,,,,,,,,,,-2.363752632051493,2.021361113998891,-0.8080147495488108,0.1685398111824815,1.9413176148673692,0.8956832108882595,,,,,,
62,62,62,62,3.15,-5.02,-12.4,-0.306,-0.578,0.52,-0.2,-3.52,-2.99,-2.67,60.0,3150000000.0,-3.5768693397015965,-10.516597130654203,0.2642431022048387,-0.7237229011478048,0.5809913499244063,-0.753338387261627,-1.1296108453564702,-1.4974150274945126,-2.6097193551487017,,,,,,,,,,-0.2078366366428113,1.6305538924946328,-1.0234702007370984,-0.5856958715350264,1.64414882172135,1.60697390762767,,,,,,
63,63,63,63,3.2,-2.67,-7.7,1.49,-1.14,0.0415,0.287,-1.02,1.79,-0.345,60.0,3200000000.0,-3.2409773302877634,-9.519508735458217,0.8792403656134377,-1.0262866180483954,0.2312092675798499,-0.03907557437087061,-1.0853887041156227,-0.3434961113253674,-1.4651834344699497,,,,,,,,,,-0.1113815416140063,1.2735721666877864,-0.02687111228992674,-1.0629382928448865,1.0902509286911708,0.8811576127152873,,,,,,
64,64,64,64,3.25,-1.84,-9.75,0.0718,-0.7509999999999999,0.363,-0.195,-0.217,-0.195,-1.41,60.0,3250000000.0,-2.7220744427494448,-9.60110370230826,0.4741244640396483,-0.8261993459956303,0.31665649228364234,-0.1461282555485163,-0.7350401465465843,-0.291372336065895,-1.4372950071451898,,,,,,,,,,-0.3422421292497294,1.0346577295473651,-0.2681194541190789,-0.8680335391455918,0.8230221256002929,0.6798577073129217,,,,,,
65,65,65,65,3.3,-0.182,-8.72,0.103,-0.62,0.479,-0.00848,1.42,0.892,-0.96,60.0,3300000000.0,-1.7812655033537388,-9.289189037186306,0.28792071651856543,-0.6763269619030667,0.42191276891606666,-0.05162339911411487,0.13440366578070714,0.12400441145213335,-1.1960813205716718,,,,,,,,,,-0.8270426039949986,0.4500613494345743,-0.2693068917565821,-0.5954781772276052,0.28253105081933605,0.25406263524537404,,,,,,
66,66,66,66,3.35,-1.87,-9.94,0.721,-0.375,0.6809999999999999,-0.361,-0.297,-0.29100000000000004,-0.0532,60.0,3350000000.0,-1.8141315527250668,-9.51957896022042,0.5052089751155755,-0.4573127308051662,0.5898933471835837,-0.2640314048337372,-0.03964471472008077,-0.02166671681253085,-0.6184959690313784,,,,,,,,,,-0.6954632232893995,0.8666922950117447,-0.3114533930527534,-0.3495585790437009,0.12893098947840775,0.11423069961717558,,,,,,
67,67,67,67,3.4,-2.31,-9.92,0.146,-0.32299999999999995,0.674,-0.35,-0.888,-0.237,-0.413,60.0,3400000000.0,-1.9977944429131635,-9.661329875410328,0.3249835677071963,-0.3596898820246243,0.6444243582038324,-0.32305466790861675,-0.3819108573078331,-0.09725107520511747,-0.5146431310882221,,,,,,,,,,-0.5131875299800217,1.0871028241346359,-0.4240879892113368,-0.4495841429078431,0.09715945567434747,0.15133285623850753,,,,,,
68,68,68,68,3.45,-4.37,-9.54,-0.0359,-0.174,0.5920000000000001,-0.185,-3.06,0.175,-0.408,60.0,3450000000.0,-2.876426992304787,-9.61837852845014,0.1439179701825802,-0.2247244359391065,0.6104347521455148,-0.2282707832684184,-1.4623770538770753,-0.001687946362057005,-0.4607481958881928,,,,,,,,,,0.10391325961582634,1.5654575947821097,-0.3420453145192199,-1.1409918969861834,0.16919085318599567,0.3826349702595837,,,,,,
69,69,69,69,3.5,-4.17,-11.4,1.33,-0.112,0.139,0.0013,-2.87,-1.73,1.05,60.0,3500000000.0,-3.3555488239038502,-10.249080581620893,0.7390092354616062,-0.14279265409629058,0.3047775264351704,-0.07065488122156946,-2.030277836342496,-0.6083445443904796,0.3027484015501414,,,,,,,,,,1.054453073436949,1.8671626650362243,-0.08981153498407929,-0.9488360904640776,0.3634564838749806,0.3382166093576961,,,,,,
70,70,70,70,3.55,-3.65,-12.2,2.53,0.62,0.161,0.326,-2.32,-2.54,2.2,60.0,3550000000.0,-3.4646095598193223,-10.939714953483982,1.6376004608486208,0.4116298463439758,0.2115586027347009,0.20167558175424768,-2.1471652594674797,-1.2863768989770934,1.2615747804067745,,,,,,,,,,2.114074410038374,1.8398321499433463,0.18394539755373973,-0.4298824267488873,0.1499196915132964,0.2465646558364087,,,,,,
71,71,71,71,3.6,-2.71,-10.5,1.58,1.69,0.185,0.9,-1.11,-0.899,0.757,60.0,3600000000.0,-3.1851124825836155,-10.784053839279414,1.6087006853806909,1.3407908713824208,0.1943391931763025,0.6811226079679455,-1.7287243667676748,-1.150403331441389,1.0065745632999394,,,,,,,,,,2.647969994558071,0.8416117489333911,0.3307335139088213,-0.5875166990332927,-0.41769695325890455,0.3049111709489732,,,,,,
72,72,72,72,3.65,-1.02,-10.7,-0.105,1.92,-0.933,0.762,1.0,-1.29,-1.83,60.0,3650000000.0,-2.383184334687277,-10.754298326391487,0.7488880883719501,1.7617788631267532,-0.536577176917767,0.7366504358198057,-0.6278295331934651,-1.199403288242533,-0.4269635567363504,,,,,,,,,,2.4068453732998303,-0.7794202866280854,0.1760319506737266,-0.5758675932951245,-0.17686601652542744,0.2338320799817009,,,,,,
73,73,73,73,3.7,-1.87,-11.7,1.72,1.59,-0.305,0.516,0.387,-2.52,-0.8959999999999999,60.0,3700000000.0,-2.1931078564875,-11.08908099721641,1.2361226959336935,1.6369244256791966,-0.3864328892695453,0.5851589382213263,-0.2183999119313787,-1.6629472914354189,-0.6640035624101427,,,,,,,,,,2.187712471092723,-0.7673125127762499,0.04994600544605719,-0.004411883054039301,0.029678637255645682,0.4240680457520278,,,,,,
74,74,74,74,3.75,-2.55,-11.1,0.778,1.06,-0.858,0.345,-0.174,-2.22,-2.5,60.0,3750000000.0,-2.3252958223265825,-11.09294650942115,1.006269448214794,1.2175969575169925,-0.6921759167681987,0.4202735493632032,-0.20048691208293493,-1.8584789455809119,-1.5918729989371845,,,,,,,,,,1.8829681957112288,-0.8942694365780514,-0.06316463060358649,-0.09393788555184623,0.6499870081706791,0.6913367348698345,,,,,,
75,75,75,75,3.8,-2.22,-9.31,1.6,0.804,-0.813,0.335,0.174,-0.596,-2.2,60.0,3800000000.0,-2.286295696110692,-10.46177540025907,1.304161042403286,0.9169812586207164,-0.7705128678333897,0.3617274839762756,-0.0494014062464952,-1.4153349180900026,-1.899206112719264,,,,,,,,,,1.3805710617557347,-0.9170509061088348,0.2344421151756577,-0.2680411722834901,0.7928123174710758,0.6803842935732759,,,,,,
76,76,76,76,3.85,-1.34,-8.05,1.31,0.421,-1.09,0.339,1.0,0.515,-2.86,60.0,3850000000.0,-1.9358006859916896,-9.607995892987507,1.3070905855543244,0.5564859598453742,-0.9776540680310172,0.3461235166877566,0.37397612523015256,-0.7377660783673926,-2.3847687027222704,,,,,,,,,,0.6344175662654071,-1.2710342154005678,0.5369060723536078,-0.5204433041011615,0.8772636462032799,0.5287069911417586,,,,,,
77,77,77,77,3.9,-0.369,-7.49,0.831,0.104,-0.996,0.263,1.89,0.979,-3.56,60.0,3900000000.0,-1.3554790717433312,-8.858215532781621,1.0682223208267363,0.2276044569015515,-0.9895487451808158,0.2890535965805641,0.9856109447402868,-0.135162261395259,-2.9787029425579323,,,,,,,,,,-0.2787302936908603,-1.68781189837358,0.5938293152202336,-0.6312563465574469,0.8305057586325592,0.42235027589778457,,,,,,
78,78,78,78,3.95,-0.67,-8.1,1.54,-0.204,-1.14,0.222,1.44,0.355,-2.97,60.0,3950000000.0,-1.1015869767041653,-8.589803884906441,1.3049266432197326,-0.08609968969803372,-1.0870946058357287,0.24301675988489305,1.1689327314527893,0.03689009429114154,-2.974304694448367,,,,,,,,,,-0.6387696489047542,-1.7110786112219196,0.7646132475386165,-0.5289610805042022,0.9041554204208656,0.290745804678928,,,,,,
79,79,79,79,4.0,-1.42,-8.48,3.5,-0.418,-0.574,0.335,0.579,0.0176,-0.974,60.0,4000000000.0,-1.2195228028689709,-8.55093264300506,2.406257665159024,-0.3273356334395294,-0.7544269943251942,0.3061694941856216,0.9309263177886667,0.03011905842271326,-1.963397716113552,,,,,,,,,,-0.5472220930981194,-1.0290609277202276,1.1206431203701577,-0.1932151119745016,0.7013387976472711,0.1948592779789117,,,,,,
80,80,80,80,4.05,-3.02,-8.28,3.66,-0.273,-0.6970000000000001,0.32,-1.0,0.264,-0.701,60.0,4050000000.0,-1.88639499894388,-8.455021147804809,3.0352960602276515,-0.2878427301623657,-0.7171939149409366,0.31566506888929924,0.15190047217565586,0.1122138477454179,-1.3254115759726923,,,,,,,,,,-0.08947076927541743,-0.35122241875710525,1.485888826898512,-0.4313644073049773,0.7125700639358075,0.2082487318374064,,,,,,
81,81,81,81,4.1,-0.931,-7.49,2.64,-0.457,-0.726,0.224,1.06,1.1,-1.66,60.0,4100000000.0,-1.532529716648032,-8.11339914578722,2.8369647848285253,-0.4107917234639447,-0.7229033940583034,0.2527307911755721,0.5182702043972793,0.4589376892505307,-1.4945046826604391,,,,,,,,,,-0.5700130245842511,-0.5545389710018004,1.489568527135025,-0.4596712096742423,0.639248019239121,0.05267454090797562,,,,,,
82,82,82,82,4.15,-2.29,-9.0,6.12,-0.762,-0.504,0.0752,-0.366,-0.289,2.04,60.0,4150000000.0,-1.813086366872404,-8.427259922474475,4.484157299548702,-0.6660613331965362,-0.5809762214407233,0.13084387000728498,0.16151431227209068,0.1964033101819121,0.2917508708699648,,,,,,,,,,-0.21459344725911675,0.5369469473373142,2.0564455917021833,0.2133859741858677,0.6153777205417593,-0.3319354149944397,,,,,,
83,83,83,83,4.2,-2.44,-11.8,4.96,-0.0467,0.199,0.227,-0.498,-2.96,1.07,60.0,4200000000.0,-2.045286649401324,-9.62122547656871,4.722901197543763,-0.21588938330526825,-0.07527449612517645,0.1968615689910157,-0.1045645571912226,-0.9115290751416728,0.6850597111312049,,,,,,,,,,0.6174567910928294,0.8729457242161401,1.5497854410176195,0.8437582874164294,0.43596033482892027,0.07824624523024379,,,,,,
84,84,84,84,4.25,2.97,-12.0,2.3,-0.103,0.485,-0.209,5.03,-3.19,-1.52,60.0,4250000000.0,-0.1876928505623432,-10.463322589311641,3.507262414346835,-0.13383770992874344,0.28798245766392755,-0.08178991002893793,1.966958640051976,-1.7112975177273215,-0.4293256177771201,,,,,,,,,,-0.4918397355216037,-0.3966568723465965,0.3152634211055115,2.160378014930356,0.2277254745981777,0.10281749262832733,,,,,,
85,85,85,85,4.3,-5.69,-7.75,-1.42,0.378,1.08,-0.214,-3.78,1.05,-5.31,60.0,4300000000.0,-2.225672412370276,-9.502793923860974,1.0351140981505522,0.23818256946126964,0.8014912645251808,-0.17256109849528012,-0.3516328311692363,-0.7420516530652171,-2.8959036802905733,,,,,,,,,,-0.3461155899741312,0.24619868640044776,-0.4763695463902705,-0.4897272775415923,0.4135181289586749,1.4703226747122031,,,,,,
86,86,86,86,4.35,-2.22,-8.75,0.393,-0.73,1.0,-0.0738,-0.0313,0.121,-3.17,60.0,4350000000.0,-2.223571438772197,-9.23630141541619,0.7129471116208228,-0.4655240084404024,0.9301954572140996,-0.10475490910169262,-0.2223956087434452,-0.4391110049956855,-3.0344255550103303,,,,,,,,,,-0.8817832447423629,0.4005526531628355,-0.5764593777004638,-0.6692009812782362,0.5559569041156701,1.4974189357101175,,,,,,
87,87,87,87,4.4,-2.81,-9.68,0.402,-0.7340000000000001,0.187,-0.202,-0.581,-0.6579999999999999,-2.73,60.0,4400000000.0,-2.4407765603223703,-9.39337286137015,0.5569360661929474,-0.6606611061665993,0.4483407404757605,-0.17152025969064238,-0.3670733541004313,-0.5159434535583051,-2.880576045985704,,,,,,,,,,-0.7033694998267516,0.4359188060983149,-0.4526453042561488,-0.7711057957137337,0.9401791577595556,1.2836483096468692,,,,,,
88,88,88,88,4.45,-0.953,-9.54,1.91,-0.334,0.899,-0.294,1.22,-0.388,-0.861,60.0,4450000000.0,-1.8897244125358883,-9.44527952875298,1.2358068855234745,-0.4232331892465849,0.7405280571930093,-0.2556109024048573,0.2732261605035179,-0.4710338943655107,-1.8599297919304183,,,,,,,,,,-0.8680316527755284,0.5323940798997063,-0.2951546140522128,-0.0979710017520179,0.4690425444546186,0.8451002534257643,,,,,,
89,89,89,89,4.5,-3.4,-10.1,0.32299999999999995,-0.604,1.65,-0.094,-1.18,-0.8079999999999999,-2.06,60.0,4500000000.0,-2.449109931865262,-9.677053719326569,0.7778255967742655,-0.5546203633579263,1.3301890049778349,-0.1446540623949425,-0.3130731131985328,-0.5893127235133675,-1.961040542656028,,,,,,,,,,-0.7033058721399886,1.0804921390032036,-0.7445717718568642,-0.4098933011234324,0.357860588478552,1.3160324238455137,,,,,,
90,90,90,90,4.55,-2.9,-9.0,-0.227,-0.59,0.965,-0.00298,-0.53,0.32,-2.15,60.0,4550000000.0,-2.6161135002457643,-9.437373591344386,0.27367588540026155,-0.5803354142875631,1.0934167575121525,-0.04738521656902235,-0.400591537688254,-0.2701339318117032,-2.0565362582854605,,,,,,,,,,-0.6580010078812457,0.915744638659876,-0.6854119929395782,-0.8543747897904089,0.41258775028385,1.206402787395099,,,,,,
91,91,91,91,4.6,-2.47,-9.15,-0.512,-0.716,0.227,-0.159,-0.0651,0.241,-2.01,60.0,4600000000.0,-2.5619950627042005,-9.335641884366476,-0.12052016726973525,-0.6789408601130517,0.5316708510334861,-0.12401632632265633,-0.2652385845618285,-0.09072028593096984,-2.033017922564209,,,,,,,,,,-0.6969844011679529,0.6562513514699228,-0.5392202990203925,-1.0307556505986226,0.6802479403405756,0.8480328871807471,,,,,,
92,92,92,92,4.65,-2.47,-9.69,0.105,-0.735,0.22,-0.248,-0.135,-0.224,-0.973,60.0,4650000000.0,-2.52792135648793,-9.461086137175933,-0.007370257309110771,-0.7196864756856898,0.3295973990797869,-0.2091395186051485,-0.2126942599255095,-0.13750293785735418,-1.4973097797419683,,,,,,,,,,-0.6063682629966486,0.7769707928666172,-0.4112245667909318,-0.8680375188070304,0.7405830465490136,0.5423485111004605,,,,,,
93,93,93,93,4.7,-1.57,-9.57,0.297,-0.5920000000000001,0.26,-0.302,0.657,-0.0414,-0.383,60.0,4700000000.0,-2.1731203673532,-9.49964203708606,0.14534099287156746,-0.6268798000190356,0.2844735496541904,-0.27289452327688435,0.13818101900554114,-0.10376974696735383,-0.9341638068594564,,,,,,,,,,-0.6756677809102736,0.7267387097960909,-0.3194303322893732,-0.5519035771411396,0.5591504483234012,0.1842732448130722,,,,,,
94,94,94,94,4.75,-2.17,-9.46,0.34,-0.341,0.359,-0.25,-0.081,0.112,-0.0653,60.0,4750000000.0,-2.1719646540920508,-9.48560858729032,0.24300698044638336,-0.4190930615585141,0.3327931677568646,-0.2571758813539533,0.04975316068395028,-0.02803218497453311,-0.4950604666329772,,,,,,,,,,-0.5022043099665752,0.8274750616113474,-0.23174828418485666,-0.5401465043071737,0.3416004780692713,0.03128851218000351,,,,,,
95,95,95,95,4.8,-2.55,-9.38,-0.124,-0.393,0.304,-0.18600000000000005,-0.5529999999999999,0.224,-0.317,60.0,4800000000.0,-2.3119837737970883,-9.44822270258722,0.05886909304801749,-0.4001277810669901,0.3141249582176514,-0.20830881783442112,-0.19342560049904733,0.06043389388873534,-0.4050728937208988,,,,,,,,,,-0.37157436316114667,0.907703084670741,-0.23357803642389804,-0.7399209104053759,0.2936490879173783,0.016093559620384883,,,,,,
96,96,96,96,4.85,-3.0,-9.74,-0.376,-0.401,0.319,-0.353,-1.09,-0.122,-0.34,60.0,4850000000.0,-2.5668156024338207,-9.551513125682924,-0.15931714979340042,-0.4007617331151605,0.3172857211527053,-0.30764911079480906,-0.5551455943147013,-0.003602415300297951,-0.3721865848613155,,,,,,,,,,-0.2504217602446092,1.1733378949241655,-0.33939064818282605,-0.8844388187072563,0.3708339860510513,0.06645239440489725,,,,,,
97,97,97,97,4.9,-2.46,-10.4,0.0862,-0.281,0.338,-0.513,-0.7290000000000001,-0.747,0.331,60.0,4900000000.0,-2.5272525739216802,-9.851881243295637,-0.036134181265263986,-0.31371500392057017,0.33071593352308964,-0.4486364219006261,-0.6252865689389796,-0.26454315864694544,-0.016812616191547003,,,,,,,,,,-0.1174892451478003,1.3815549549903892,-0.4030481158526766,-0.6131098336013251,0.35906267943722225,-0.03274489356242154,,,,,,
98,98,98,98,4.95,-3.42,-10.1,-0.16,-0.153,0.192,-0.4370000000000001,-1.9,-0.378,0.207,60.0,4950000000.0,-2.8579140756074035,-9.939716558418851,-0.09828119989242456,-0.19690211265501006,0.2407787225500976,-0.4406472340183377,-1.1395654830667814,-0.30436775811219097,0.09629701949353443,,,,,,,,,,0.2358169788649156,1.5838142768834158,-0.3642406602838237,-0.8439385305150046,0.3932200777798272,0.003391514556521532,,,,,,
99,99,99,99,5.0,-3.6,-11.2,0.172,0.018000000000000002,0.274,-0.173,-2.25,-1.49,0.601,60.0,5000000000.0,-3.1327725478552884,-10.38586262073882,0.03732660364735246,-0.04070427195236912,0.2623179070727605,-0.2568892630454481,-1.5875666214750332,-0.7205377539819662,0.3513620461593682,,,,,,,,,,0.871463285277992,1.7138363627260993,-0.40681899106334257,-0.8028346811485586,0.3497918835142514,0.16104840974873585,,,,,,
100,100,100,100,5.05,-4.2,-11.7,1.1,0.479,0.025,0.237,-2.87,-1.98,1.47,60.0,5050000000.0,-3.528058973143513,-10.851073224478538,0.570500221848073,0.3370336884048301,0.1084515821504906,0.08219919212104942,-2.1049600863584885,-1.1626228988753362,0.9166953840698496,,,,,,,,,,1.9070938074710373,1.7400610416327993,-0.1568714037654584,-0.7667317244926974,0.2583632621424015,0.22601283441819306,,,,,,
101,101,101,101,5.1,-3.16,-10.2,1.54,1.4,-0.698,0.754,-1.61,-0.48,1.5,60.0,5100000000.0,-3.391734980005209,-10.620590243542607,1.056925942488086,1.1096321400169094,-0.4144155922077064,0.543435984095039,-1.9052700800004845,-0.9230147293697852,1.2114838238650885,,,,,,,,,,2.6656424125851377,0.8741555663389464,0.4881863124091972,-0.9439574881921058,-0.06468822180669175,-0.08216042079130004,,,,,,
102,102,102,102,5.15,-0.218,-11.1,1.13,2.05,-1.08,0.892,1.73,-1.49,0.195,60.0,5150000000.0,-2.216226817409619,-10.79030363545576,1.0935892826615266,1.7931220343802798,-0.8459508049514821,0.7827488186219465,-0.4386323647892594,-1.1220328156455208,0.6977767925141461,,,,,,,,,,2.6518598005157887,-0.7317062102398711,0.5526290239333004,-0.3305727519684901,-0.3053389490795702,-0.3615038905498975,,,,,,
103,103,103,103,5.2,-0.965,-11.6,-0.012,1.99,-0.8,0.6920000000000001,1.28,-2.28,-2.06,60.0,5200000000.0,-1.7527894558189554,-11.076940004434595,0.5388835499931527,1.936219346604452,-0.8161583643001077,0.7204435847537951,0.2547441750898075,-1.5284920578299308,-0.6959387360428645,,,,,,,,,,2.2928479801443986,-1.5267163788128728,0.025455920469244088,-0.09002552426533547,-0.10622923189027393,0.06197167820100283,,,,,,
104,104,104,104,5.25,-2.25,-10.6,1.06,1.27,-0.7979999999999999,0.529,0.191,-1.54,-1.86,60.0,5250000000.0,-1.9369494615943887,-10.908101186171114,0.8003425338781278,1.4519894549446986,-0.8043852781672991,0.5890045777853391,0.22902679803436804,-1.532531459055739,-1.2842279397855485,,,,,,,,,,1.8771284098344088,-1.340961651086504,0.05431807041595655,-0.12085426012324965,0.3216978800436962,0.33851025032029336,,,,,,
105,105,105,105,5.3,-3.08,-9.29,1.56,0.7829999999999999,-1.3,0.6509999999999999,-0.565,-0.491,-1.95,60.0,5300000000.0,-2.3603197665238977,-10.335285916921233,1.1814843612730548,0.9657461668137284,-1.1257196837719237,0.6315686526358619,-0.09132069022668987,-1.1669424293361237,-1.6206935112666256,,,,,,,,,,1.7038227182554149,-1.2033559401259812,0.5083604891714446,-0.5635348829421271,0.7568575467520721,0.43032045712821454,,,,,,
106,106,106,106,5.35,-1.79,-7.93,1.98,0.397,-1.36,0.6779999999999999,0.767,0.68,-1.96,60.0,5350000000.0,-2.1490810875553605,-9.483803588283175,1.582122482419868,0.5523629753779757,-1.2776165800573382,0.6634469011871204,0.25496596534437965,-0.5186452653194787,-1.7921710530856612,,,,,,,,,,1.0713149399476185,-1.3605197777355156,0.970020515856391,-0.7399206423273775,0.8338968967324872,0.2688310831456201,,,,,,
107,107,107,107,5.4,-0.615,-8.26,1.92,-0.0211,-1.08,0.439,1.94,0.24,-2.25,60.0,5400000000.0,-1.5808783744507444,-9.050571575174835,1.7516452654801369,0.13555144373444455,-1.149490848894911,0.5093488986688154,0.934787404524838,-0.2523524124363237,-2.023547039608176,,,,,,,,,,0.202530534301262,-1.4838516595863984,0.9939203108728794,-0.4466364782318537,0.8430176883631786,0.16781580674440316,,,,,,
108,108,108,108,5.45,0.0551,-7.91,2.14,-0.132,-0.6890000000000001,0.2,2.56,0.564,-2.11,60.0,5450000000.0,-0.9749342916669976,-8.646803942150179,1.9464939847071363,-0.058913642303331015,-0.8509291686961484,0.2969599154270244,1.5904740354702795,0.03419629106722827,-2.067238280323643,,,,,,,,,,-0.627961554324269,-1.5062135494758582,0.9639728218265726,-0.0947046041715845,0.6533554045408745,0.034643562493166594,,,,,,
109,109,109,109,5.5,-1.04,-7.25,2.59,-0.228,-0.451,0.0184,1.38,1.24,-1.68,60.0,5500000000.0,-0.9990337286911622,-8.152328927739852,2.269359296123476,-0.1818111036267619,-0.5916329718699761,0.10570965416115943,1.5055589790717123,0.457446694328674,-1.8715371306493247,,,,,,,,,,-1.0605535426188035,-1.083142220322828,1.1253365585512742,-0.16888514067662355,0.5233810619709443,-0.0306349579881588,,,,,,
110,110,110,110,5.55,-2.3,-8.74,4.47,-0.319,-0.123,-0.153,0.0465,-0.185,0.294,60.0,5550000000.0,-1.4808938784011183,-8.360367106885239,3.3734835099074165,-0.28152445724703745,-0.2877922984084443,-0.07191205569549601,0.9169064532657132,0.23194081862708385,-0.777125575248683,,,,,,,,,,-0.7674123373832886,-0.03186821746451226,1.4047780338841822,0.1597851147585423,0.5049796874721474,-0.07350610272350704,,,,,,
111,111,111,111,5.6,-3.44,-8.41,4.32,-0.235,-0.305,-0.158,-1.23,0.228,0.231,60.0,5600000000.0,-2.2065200933485767,-8.377937325114626,3.8483779635037596,-0.24770896892366745,-0.29894900774236705,-0.1310172691275783,0.050744127620131474,0.2305575478699202,-0.2676426067336811,,,,,,,,,,-0.29115661026323875,0.6748010146871508,1.6761132805752956,-0.1046521157270872,0.6166148083708236,-0.023760162628313496,,,,,,
112,112,112,112,5.65,-1.94,-7.76,3.93,-0.54,-0.397,-0.0158,0.181,0.95,-0.0522,60.0,5650000000.0,-2.1078047061407967,-8.159184753372863,3.889330104857617,-0.4601556073632912,-0.3625208987887742,-0.05191280441154275,0.10329542682525822,0.4830897786781138,-0.15876297857053634,,,,,,,,,,-0.4474256472840758,0.6440810400669225,1.8164933631285292,-0.1928252334341351,0.5944808712255124,-0.15647715487098374,,,,,,
113,113,113,113,5.7,-3.22,-10.7,6.19,-0.309,-0.621,0.168,-1.16,-1.87,2.38,60.0,5700000000.0,-2.5197466880767254,-9.05864495924994,5.043641955964663,-0.350290787770089,-0.5301071912784672,0.09907223901586827,-0.4063769273564689,-0.3428706861131484,1.124268204039205,,,,,,,,,,0.6400197040033229,1.1620304409578506,2.1511736041446325,0.3862292828686559,0.6973041577746095,-0.2824619936168235,,,,,,
114,114,114,114,5.75,-0.989,-7.88,4.36,0.00519,0.0354,0.484,1.13,0.899,0.542,60.0,5750000000.0,-1.9527789958408672,-8.641399267829247,4.700639320251404,-0.09191579570744474,-0.1634576014208436,0.3633512338962882,0.21346926784697856,0.09303961670231953,0.8300035402794687,,,,,,,,,,0.2884135944744872,0.5628688107404969,2.0197683354834326,0.3097994054920821,0.11913599972785238,-0.26211754558371864,,,,,,
115,115,115,115,5.8,1.41,-8.73,1.7,-0.639,0.374,-0.209,3.66,0.0503,-2.04,60.0,5800000000.0,-0.7072515218236191,-8.67276417212409,3.1951328612893795,-0.4895543783251621,0.1850058966058334,-0.02960668404205191,1.6039607434543448,0.07803753931930005,-0.6204287578627122,,,,,,,,,,-1.2422756055833228,-0.18050233619430373,0.9771033770392076,0.7537334341817842,0.14918490656630248,-0.14576489781658045,,,,,,
116,116,116,116,5.85,-5.16,-18.3,6.16,-0.54,0.706,-0.217,-2.99,-9.27,2.89,60.0,5850000000.0,-2.3564887855014858,-12.080849626220159,4.682691342036534,-0.5262199115822221,0.522795170753624,-0.1582648911760431,-0.24945754979797985,-3.2032268915041615,1.1536594615782685,,,,,,,,,,1.293476098841402,1.8473342960236,0.3096545708116795,2.326655671093925,0.9719407737553224,0.6688484221151483,,,,,,
117,117,117,117,5.9,-0.733,-5.48,-2.78,0.24,1.18,0.486,1.6,3.49,-5.99,60.0,5900000000.0,-1.7551706694362967,-9.744118531668787,0.93844588197194,0.03069362364328243,0.9488973774211972,0.2840666231308233,0.4967000000562089,-0.8538304336945632,-2.4565779720435645,,,,,,,,,,-0.3421776377181031,-0.2409279102812944,-0.5725061698494486,-0.11539547728191728,0.13820212517738767,1.3130503172267518,,,,,,
118,118,118,118,5.95,-1.04,-6.68,0.156,-0.284,0.335,-0.271,1.58,2.33,-2.7,60.0,5950000000.0,-1.4902811911652991,-8.659406429802997,0.545870428127639,-0.19803593847364,0.5508737585015614,-0.09702423222865647,0.9337538245166992,0.2637291342890657,-2.5795977663842145,,,,,,,,,,-1.3272738886386335,-0.35705602613830084,-0.2127631732407389,-0.5852751438991081,0.2652761136937711,0.7183926213344198,,,,,,
119,119,119,119,6.0,-4.71,-12.5,1.21,-0.444,1.34,-0.109,-2.09,-3.45,-1.41,60.0,6000000000.0,-2.6828211491262763,-10.018994202761329,0.8790832293506432,-0.3768106180638824,1.0625079689292765,-0.10524640666965952,-0.2861696347601055,-1.0398307650524772,-1.9885105348350096,,,,,,,,,,-0.2561211462083018,0.9260359314020892,-0.7062873507042089,-0.28390202587982993,0.6034784310519687,1.3998518445923864,,,,,,
120,120,120,120,6.05,-1.36,-8.93,-0.0144,-0.429,1.64,-0.0775,1.41,0.213,-2.24,60.0,6050000000.0,-2.192866238315239,-9.633485358640755,0.4307971642155359,-0.4147435502619341,1.436927984372584,-0.08619661836680759,0.3981443889529053,-0.6000733499749823,-2.1156074030023038,,,,,,,,,,-0.9044239947906448,0.6687686080158388,-0.9223646209396648,-0.26789214167886666,0.2347828636067925,1.3081459131567963,,,,,,
121,121,121,121,6.1,-3.76,-8.76,-0.79,-0.6829999999999999,1.05,-0.0555,-0.89,0.464,-2.51,60.0,6100000000.0,-2.7733112112226714,-9.32426760868232,-0.18171166512500134,-0.6097210785487928,1.1860611402742536,-0.06512130986291585,-0.12155320462532238,-0.2265718737999837,-2.3149241448028586,,,,,,,,,,-0.8275584344503291,0.8406366369941799,-0.8687613641518954,-0.99573115736062,0.4888155443546388,1.3260830564889146,,,,,,
122,122,122,122,6.15,-3.25,-9.46,0.079,-0.7879999999999999,0.139,-0.181,-0.374,-0.16,-1.14,60.0,6150000000.0,-2.9498702386240536,-9.3723175124592,-0.05090517171054662,-0.7392999849324586,0.5071934893534513,-0.14467988047789626,-0.22340203565369807,-0.20320441066001416,-1.7211450964597064,,,,,,,,,,-0.5503399927444529,0.8888066321721674,-0.4704584256260972,-1.035380811282893,0.8436205436253364,0.8473659911855681,,,,,,
123,123,123,123,6.2,-2.99,-9.47,0.488,-0.614,0.345,-0.2,-0.177,-0.116,-0.332,60.0,6200000000.0,-2.9647337585745817,-9.406897656469317,0.2194789535827416,-0.6482278990665246,0.4020344785415063,-0.18266089393821386,-0.20468128805475244,-0.17259469962211318,-1.0191038161818866,,,,,,,,,,-0.3779706043635435,1.0587681579746462,-0.2595845107638664,-0.8978245360729629,0.7611921670756382,0.5372175908153151,,,,,,
124,124,124,124,6.25,-2.3,-9.36,0.46,-0.459,0.445,-0.289,0.429,0.0488,-0.0289,60.0,6250000000.0,-2.7185254208143923,-9.390295549027305,0.3401552390565876,-0.510690904585851,0.4298913978805104,-0.2556699005717856,0.05097533079864525,-0.0948827187573124,-0.5186780861677452,,,,,,,,,,-0.43812589356130494,1.0776867162757842,-0.18813718770360555,-0.6754849350206406,0.5588328899259215,0.25112323438491824,,,,,,
125,125,125,125,6.3,-2.46,-8.9,-0.532,-0.436,0.585,-0.404,0.113,0.556,-0.747,60.0,6300000000.0,-2.6227711442361543,-9.216728536519703,-0.09742996670870724,-0.4564031195429386,0.5304568697498104,-0.35750857666985,0.07599897794458133,0.1335842917091554,-0.6340666031220249,,,,,,,,,,-0.6724647131562024,1.0812973369134165,-0.3444087796868863,-0.8329836165275646,0.433659706030584,0.20239459218709852,,,,,,
126,126,126,126,6.35,-2.98,-9.55,0.0144,-0.49,0.472,-0.361,-0.59,-0.0362,0.0914,60.0,6350000000.0,-2.7550838484278017,-9.334708233632329,-0.04132167726777178,-0.4808224313190979,0.4925560497075642,-0.3599056764019551,-0.19269609952170288,0.07398813222676233,-0.2674328384091077,,,,,,,,,,-0.4697796874325824,1.3113356160350491,-0.29808382988775783,-0.8395687499052971,0.42259366158584216,0.11371825248884522,,,,,,
127,127,127,127,6.4,-2.85,-9.68,-0.7759999999999999,-0.399,0.575,-0.381,-0.617,-0.132,-0.431,60.0,6400000000.0,-2.7902394614038744,-9.456943213717931,-0.4099307948990927,-0.4213512204764964,0.5460090149124418,-0.3743883675837064,-0.36388010027405737,0.0016840263479238893,-0.3500958336323374,,,,,,,,,,-0.3919581095841269,1.3434038972391045,-0.4965042454761313,-0.9302210293577684,0.3738751773537017,0.1751661552744352,,,,,,
128,128,128,128,6.45,-2.14,-10.0,0.00479,-0.302,0.6,-0.464,-0.104,-0.467,0.581,60.0,6450000000.0,-2.549399670193018,-9.649187811631288,-0.2018535223915008,-0.3346028636525417,0.581014372233869,-0.4359128175658864,-0.25903233299403144,-0.1628292384103622,0.12045809631306698,,,,,,,,,,-0.3278118789100328,1.42289017247677,-0.4895377663302161,-0.5909217456277965,0.2242888872185518,-0.012152536357347454,,,,,,
129,129,129,129,6.5,-2.84,-9.83,0.0551,-0.119,0.638,-0.365,-1.02,-0.218,0.785,60.0,6500000000.0,-2.6570340380384634,-9.713196130211848,-0.07293259769060467,-0.17789569577534112,0.6179613139987773,-0.38722636868555216,-0.5660422172933179,-0.18219478233210198,0.4563019647610786,,,,,,,,,,-0.04441905196767167,1.5856037650829096,-0.4181356980466621,-0.630773806387538,0.07204957568723584,-0.05482937880812002,,,,,,
130,130,130,130,6.55,-4.1,-10.7,0.35700000000000004,0.0412,0.611,-0.172,-2.43,-1.07,1.14,60.0,6550000000.0,-3.1914889192466225,-10.062529167365877,0.14277686749189694,-0.018649821401331985,0.6134479100318898,-0.2394588834660597,-1.3180498555384434,-0.49382422321064295,0.8018268712643117,,,,,,,,,,0.6862387357597116,1.9361407648748328,-0.3566458358945942,-0.774207107413418,0.07685967439818715,0.11092366967065004,,,,,,
131,131,131,131,6.6,-5.38,-11.9,0.12,0.242,0.15,0.0844,-3.75,-2.27,0.884,60.0,6600000000.0,-4.002083624172728,-10.713002151011263,0.1313490609322924,0.17079894074159194,0.3129690006065129,-0.017107811433861003,-2.2992121092838502,-1.117281502535207,0.8433552403796869,,,,,,,,,,1.8014253777457647,2.131925505722412,-0.3551780252293641,-1.0511039629331858,0.3745901265695011,0.4237034709530906,,,,,,
132,132,132,132,6.65,-4.54,-12.0,1.08,0.833,-0.578,0.638,-2.77,-2.34,1.62,60.0,6650000000.0,-4.201320500810311,-11.168605303838241,0.6073143639705415,0.6521081997924216,-0.26469548768754525,0.4326681093919871,-2.489149921220036,-1.5464691496393264,1.2358532459101237,,,,,,,,,,2.9412061820583943,1.6132781844293091,0.0614699308972922,-1.0175030262289086,0.4061032185417177,0.32059276233559025,,,,,,
133,133,133,133,6.7,-0.364,-9.78,0.948,1.82,-0.971,0.97,1.84,-0.228,0.779,60.0,6700000000.0,-2.7800293089340133,-10.67703255053703,0.7782460887618381,1.500969962776785,-0.7226317787909022,0.8015828900059414,-0.7425686699846161,-1.0836719375603412,1.0049703477846543,,,,,,,,,,2.7240485950826945,-0.24107895601032986,0.4891561189428503,-0.6241616834817766,-0.1944007792142151,-0.2693897462524453,,,,,,
134,134,134,134,6.75,-0.594,-10.1,-0.491,2.22,-0.716,0.794,2.01,-0.758,-1.72,60.0,6750000000.0,-1.9703538541252497,-10.472760510986827,0.14142906210774253,2.0235843880184383,-0.7183320430922062,0.7963767423784742,0.3679460651239692,-0.9693575015289316,-0.3721656182401458,,,,,,,,,,2.174143018946211,-1.4706791660012257,0.1485930349211677,-0.5307803103311163,-0.3536728731531286,-0.09815150882887567,,,,,,
135,135,135,135,6.8,-2.06,-11.7,0.539,1.49,-1.14,0.596,0.759,-2.59,-1.71,60.0,6800000000.0,-2.0035575429800625,-10.907208862247169,0.3409017485838095,1.6357579165969631,-0.9917226926556324,0.658804538856419,0.5257154849567546,-1.538220861448969,-1.0482756824813109,,,,,,,,,,2.0639440726736837,-1.5812648556373874,0.0329327717139069,-0.20594283969230684,0.29504136979979745,0.16174886991662868,,,,,,
136,136,136,136,6.85,-3.27,-10.3,2.06,1.11,-0.787,0.401,-0.35,-1.47,-0.919,60.0,6850000000.0,-2.4726305532289152,-10.692254202157983,1.2034224316304396,1.2536199824842629,-0.8589896481427566,0.4818042452900201,0.17241096719412868,-1.5142745967563394,-0.9829428066797644,,,,,,,,,,1.8841780366593528,-0.914223753382978,0.3220956713043881,-0.1829392152093278,0.6126553028805014,0.3572536340545877,,,,,,
137,137,137,137,6.9,-2.31,-7.91,1.63,0.598,-1.31,0.436,0.639,0.7559999999999999,-1.9,60.0,6900000000.0,-2.4123943926926383,-9.707323374973758,1.4174485836978026,0.7770940598039098,-1.1514045674498317,0.4503565192792332,0.36065477089204256,-0.7173831820047154,-1.4464019407421311,,,,,,,,,,1.1775911836297883,-1.0730105879051297,0.8040603169170133,-0.6116393446739912,0.8573268893119654,0.2264598979207196,,,,,,
138,138,138,138,6.95,-1.15,-8.0,1.25,0.098,-1.25,0.298,1.71,0.546,-2.61,60.0,6950000000.0,-1.9448207143773684,-9.10292305437925,1.3334348448236313,0.2835064200749317,-1.2153294396668222,0.3457534481193704,0.9050436624635302,-0.273921750694396,-2.0344569914738617,,,,,,,,,,0.2842823977715562,-1.350598143747099,0.8706734290137556,-0.6312526648384928,1.0019652683876143,0.16443286574664012,,,,,,
139,139,139,139,7.0,-0.56,-8.34,1.87,-0.0699,-0.7390000000000001,0.14400000000000002,2.19,0.184,-2.13,60.0,7000000000.0,-1.4319020055863827,-8.832844841200288,1.602644916602619,0.02663914685295571,-0.9064987327701688,0.2072360277394068,1.423455076083778,-0.1131861659335861,-2.0827422396674,,,,,,,,,,-0.4073933769456648,-1.3251796896290604,0.8274970408347929,-0.2717275385668407,0.8576485655551211,0.11970239313956635,,,,,,
140,140,140,140,7.05,-0.601,-8.38,2.3,-0.0626,-0.368,0.0941,2.09,0.132,-1.75,60.0,7050000000.0,-1.1241472366686889,-8.67253572691952,1.9525278632315968,-0.0382227671926289,-0.5573602205160035,0.12956047577022498,1.6923703896019195,-0.027123117932287846,-1.914582134283848,,,,,,,,,,-0.7777366089674793,-1.1821639261499146,0.8180733509582243,0.023378766320990396,0.6244641302600804,0.10733968195867437,,,,,,
141,141,141,141,7.1,-2.38,-8.58,3.99,-0.16,-0.066,-0.0488,0.284,-0.0432,-0.0456,60.0,7100000000.0,-1.5892980182245515,-8.63977762734184,2.974785854807098,-0.12673441599045604,-0.23878421228279625,0.007103921286587253,1.1241680111140595,-0.03276628123357806,-0.9700425025076024,,,,,,,,,,-0.5849681887056554,-0.2333903437113898,1.1483992936026302,0.17712825480336206,0.5394594324680463,0.08018184166634583,,,,,,
142,142,142,142,7.15,-4.08,-8.08,4.42,-0.0272,-0.37,-0.039,-1.49,0.494,0.415,60.0,7150000000.0,-2.5118200416741185,-8.44161374784577,3.699891123182252,-0.05438956716155295,-0.323858668071846,-0.024549545956679547,0.06949055703376805,0.15213448859750456,-0.2700745873671958,,,,,,,,,,-0.003039700938867273,0.5941549405389096,1.665058770223797,-0.2522430272426658,0.6454268720902371,0.06881963500514382,,,,,,
143,143,143,143,7.2,-2.59,-6.85,3.17,-0.369,-0.472,0.108,-0.055999999999999994,1.75,-0.8220000000000001,60.0,7200000000.0,-2.540776800412917,-7.878175133227434,3.4340296446201037,-0.2830586479011173,-0.4199068890848625,0.06645470291004622,0.018861805560636137,0.7130029049904008,-0.5490047290147488,,,,,,,,,,-0.30939972907240426,0.4780604459783554,1.8159459828333424,-0.7226636148144315,0.6532437505225599,0.020664172977101918,,,,,,
144,144,144,144,7.25,-2.65,-8.53,4.21,-0.575,-0.498,0.135,-0.166,0.146,0.371,60.0,7250000000.0,-2.5812316195333893,-8.108924036939111,3.823356162505186,-0.4952511040323203,-0.4705389695784734,0.11351569875384795,-0.05572007679797749,0.5139786314540753,-0.08405597175452427,,,,,,,,,,-0.15055160121329364,0.6944041625998065,1.936389490822474,-0.4884731103353295,0.7343256265258394,-0.07752465324243682,,,,,,
145,145,145,145,7.3,-3.23,-9.44,5.31,-0.292,-0.321,0.334,-0.73,-0.713,1.6,60.0,7300000000.0,-2.8215265883438634,-8.580130896158467,4.5692478242721615,-0.3475215914516803,-0.3735845909664183,0.26489310915404285,-0.32775609255472204,0.08329560037713796,0.7670263374057429,,,,,,,,,,0.4961895634618954,1.0402381739286015,2.1173720733944226,-0.14359125811170462,0.6205611721240504,-0.10246148881207838,,,,,,
146,146,146,146,7.35,-0.639,-7.64,3.08,-0.471,-0.29100000000000004,0.201,1.96,1.09,-0.5660000000000001,60.0,7350000000.0,-2.0131484996613067,-8.247320191365146,3.822049600948458,-0.4372697024530968,-0.32004043846966945,0.22102616275428014,0.5952315625709645,0.4366599586939072,0.09334617273730096,,,,,,,,,,-0.3234820967825393,0.33816503787095004,1.8164471249149896,-0.0769001543936998,0.4604540271953432,-0.2250398247258633,,,,,,
147,147,147,147,7.4,-1.23,-13.5,1.21,-1.06,0.312,-0.502,1.26,-4.65,-2.13,60.0,7400000000.0,-1.7230809811905805,-10.106792981848084,2.5115097023749406,-0.8898902841134296,0.08974634000092112,-0.2753802839341116,0.8634301892636191,-1.3488138179734843,-1.0302807714394775,,,,,,,,,,-0.5585846087221766,0.5002026055645461,0.19024310108541667,0.9355711099205606,1.102772132432407,0.4967422932385751,,,,,,
148,148,148,148,7.45,-3.32,-13.5,6.49,-0.04,0.188,-0.179,-0.983,-4.47,3.53,60.0,7450000000.0,-2.314557986001951,-11.308003859457061,4.507631845468727,-0.27216239772412143,0.15344961799600645,-0.2092086902872339,0.1184940355249422,-2.444384515891103,1.2743779068794452,,,,,,,,,,1.0627838237946752,1.5054185378267158,0.7342300505291206,1.9065141147389888,0.8932135397228373,0.2295304386295245,,,,,,
149,149,149,149,7.5,-0.311,-5.39,-1.92,-0.234,1.27,-0.0592,2.09,3.66,-4.82,60.0,7500000000.0,-1.5724674239178542,-9.213003250280428,1.2827053162984177,-0.2444247246131533,0.8773709744731332,-0.10621755746672527,0.9138915709424724,-0.3016781991274686,-1.8055774993203384,,,,,,,,,,-1.0349668872392253,0.14095081648843932,-0.2405424744704731,0.033274689229978886,0.1925237065720089,0.7662368307304565,,,,,,
150,150,150,150,7.55,-3.46,-8.36,-0.62,-0.883,0.47,-0.159,-0.985,0.8079999999999999,-3.09,60.0,7550000000.0,-2.271583766493209,-8.911036058242217,0.3280636915768161,-0.7085620046111206,0.6132498393377934,-0.14245627778840714,0.14779003237157629,0.08783109660993699,-2.454694391885273,,,,,,,,,,-1.1229824530592332,0.4030749697412139,-0.3626006739334665,-0.9020342393991776,0.653827281010062,0.952769698328744,,,,,,
151,151,151,151,7.6,-3.97,-11.1,1.89,-0.5,0.318,-0.0213,-1.51,-1.88,-0.184,60.0,7600000000.0,-2.9006539909707323,-9.685939487856997,1.1117317588382791,-0.5569723599684502,0.4218230310171032,-0.059274281085520325,-0.52103987713358,-0.6028993186433069,-1.3071388288921109,,,,,,,,,,-0.05030562886874567,0.9978630519548812,-0.10086607770107564,-0.6010520791629008,0.8069996736772428,0.8585560059143743,,,,,,
152,152,152,152,7.65,-0.965,-9.07,0.326,-0.321,0.828,0.12,1.58,0.223,-1.49,60.0,7650000000.0,-2.183714136902791,-9.467893970626466,0.7175076875814159,-0.3854599851329954,0.6851700314540433,0.06380966148596208,0.3266177394746289,-0.3129995477407169,-1.3995525706475878,,,,,,,,,,-0.5004114405522525,0.4267934286929072,-0.2967467766665056,-0.4262640196048946,0.3376960077195125,0.7009684113000793,,,,,,
153,153,153,153,7.7,-2.71,-10.7,0.208,-0.359,0.8740000000000001,0.0996,-0.0522,-1.33,-1.27,60.0,7700000000.0,-2.3786432584730024,-9.904065099538133,0.4618731249412676,-0.36622800590168864,0.8075989525595307,0.08838215608225565,0.173784973314743,-0.6699779374292985,-1.3340797374960645,,,,,,,,,,-0.2366091407317225,0.576172776536303,-0.5725846236809681,-0.35523684434095043,0.3772698351505451,0.8484991713259376,,,,,,
154,154,154,154,7.75,-1.59,-8.55,-0.706,-0.387,0.588,-0.00603,1.13,0.8,-1.89,60.0,7750000000.0,-2.086540561561454,-9.42471989933606,-0.12408217612164305,-0.38132576245851096,0.6652208053295177,0.02356181220472535,0.5595667658016555,-0.1539994657111865,-1.6150287616277996,,,,,,,,,,-0.7060631498200015,0.2227074254326052,-0.583381999742886,-0.6252004196750989,0.31141299484318696,0.6221414075873625,,,,,,
155,155,155,155,7.8,-3.4,-9.95,-0.204,-0.397,0.5429999999999999,-0.0305,-0.674,-0.573,-1.1,60.0,7800000000.0,-2.5730280630079867,-9.610671401328393,-0.1641792299034686,-0.3927183185675697,0.585978286095021,-0.013555286188671002,0.061888318254451735,-0.30107327900346914,-1.3547453455270608,,,,,,,,,,-0.3434822477211677,0.6000279361649667,-0.568421667921677,-0.7948629341368783,0.4692544902998802,0.6619650592233676,,,,,,
156,156,156,156,7.85,-2.65,-9.42,0.213,-0.35,0.517,-0.158,0.0601,-0.0122,-0.376,60.0,7850000000.0,-2.6015374542301903,-9.543172876052962,0.025062366472159453,-0.3616692516629371,0.5412558607192244,-0.11272637706066276,0.061166827302877314,-0.19967557218223667,-0.8601104510303429,,,,,,,,,,-0.33311766374338564,0.8097641773576391,-0.4125396633036582,-0.7254900849625296,0.42236823221377146,0.4271390172206441,,,,,,
157,157,157,157,7.9,-2.76,-9.44,0.156,-0.256,0.574,-0.307,-0.14400000000000002,0.00129,-0.201,60.0,7900000000.0,-2.6602298169111505,-9.506649055262132,0.09075752005001067,-0.28486541341887245,0.5624856979054181,-0.24610839394131745,-0.021607049064043364,-0.12913444000335822,-0.5270115268495441,,,,,,,,,,-0.33400727235195066,1.040546903741192,-0.35985849882396864,-0.7015482573415044,0.3686820659279513,0.2837701258559663,,,,,,
158,158,158,158,7.95,-3.03,-9.33,0.364,-0.247,0.564,-0.301,-0.5489999999999999,0.155,0.205,60.0,7950000000.0,-2.797187640073425,-9.444114450915796,0.22785107576700114,-0.2573435956422696,0.5634675105106157,-0.2837952011652841,-0.2343820032943537,-0.02940011759715257,-0.1570701111779335,,,,,,,,,,-0.2343929117638832,1.2865551305068712,-0.2371902938599781,-0.7605918662786537,0.31018614189078464,0.16678974965020965,,,,,,
159,159,159,159,8.0,-3.14,-9.15,-0.113,-0.339,0.363,-0.251,-0.76,0.362,-0.0923,60.0,8000000000.0,-2.9241607025757634,-9.339996448672585,0.05683635305726298,-0.3166941150167196,0.4334933391818523,-0.26127906400686834,-0.44644084425136976,0.10798563617720344,-0.12433681858146695,,,,,,,,,,-0.17221852331138088,1.3300596000930052,-0.17697819322553848,-0.9850445377125944,0.3549713121913368,0.10697070390393616,,,,,,
160,160,160,160,8.05,-2.37,-9.26,0.196,-0.39,0.443,-0.332,-0.0934,0.275,0.4370000000000001,60.0,8050000000.0,-2.7189070922960283,-9.311677419251096,0.1266587284167956,-0.3699752047676769,0.43965702593661055,-0.3098337710546134,-0.3040076822469683,0.16660952187142275,0.15934961613502294,,,,,,,,,,-0.2965933800588259,1.368046236833547,-0.13920395114011927,-0.833157164835323,0.2663338342158896,-0.0754074453895192,,,,,,
161,161,161,161,8.1,-2.23,-9.88,0.318,-0.32,0.5770000000000001,-0.404,-0.0838,-0.32299999999999995,0.725,60.0,8100000000.0,-2.537822578940396,-9.512866265025053,0.22266010585587911,-0.3336515962079301,0.5287040866571663,-0.3744852790695935,-0.21516562131071568,-0.005248824766099669,0.4452160341326586,,,,,,,,,,-0.28840040704062136,1.4558227058067263,-0.21653392912019645,-0.5528613984175875,0.16574887985708395,-0.16358020051234576,,,,,,
162,162,162,162,8.15,-3.07,-9.42,0.373,-0.21,0.5820000000000001,-0.35,-1.04,0.165,0.804,60.0,8150000000.0,-2.734933814389577,-9.47999120745587,0.2980899243085212,-0.24377759179610825,0.5632587861939632,-0.3576744713880473,-0.5479423118099703,0.05451039259934799,0.6265370258355983,,,,,,,,,,-0.09944083325730632,1.6512589040851886,-0.1451084746804643,-0.6970327068130606,0.09319897590307506,-0.15514474003650924,,,,,,
163,163,163,163,8.2,-3.32,-9.81,0.445,-0.14300000000000002,0.637,-0.261,-1.27,-0.228,0.856,60.0,8200000000.0,-2.9516343270556704,-9.596815985088996,0.3717989032897362,-0.17052916696997136,0.6110693094841528,-0.29130089967032896,-0.8392540936645272,-0.04465387088082124,0.7425022215921812,,,,,,,,,,0.16934227569716145,1.7969723756457512,-0.1379176777009337,-0.7697990348635345,0.06595709459269589,-0.06578733796232862,,,,,,
164,164,164,164,8.25,-4.67,-11.3,0.388,0.0663,0.469,-0.182,-2.66,-1.7,0.8140000000000001,60.0,8250000000.0,-3.5880935695386715,-10.199751020720242,0.3799274621577447,0.0016059681670060333,0.5189579258933716,-0.21625842155964387,-1.5738280507993243,-0.6256986347486903,0.7786355232368305,,,,,,,,,,0.9690347092378352,2.079910216933857,-0.2485771834198349,-0.8712321224891765,0.28884740182076746,0.2332963055950912,,,,,,
165,165,165,165,8.3,-5.89,-11.8,0.737,0.423,-0.245,0.208,-3.91,-2.2,1.1,60.0,8300000000.0,-4.440688273937972,-10.76624658070916,0.5590809511242184,0.30788885440935776,0.02364174507678912,0.07502374221767483,-2.516348942622895,-1.1782957927053397,0.9410455867811868,,,,,,,,,,2.2460411584189246,2.1361753626880127,-0.026184137283669542,-1.1964259119774971,0.6051634816050068,0.4361227746141183,,,,,,
166,166,166,166,8.35,-2.97,-11.5,0.979,1.18,-1.21,0.88,-0.7559999999999999,-1.98,0.947,60.0,8350000000.0,-3.8959654016595415,-11.025998663037159,0.7697663222270175,0.9417675464765284,-0.7761964554807528,0.6276944977762506,-1.8061419685341016,-1.4597028176707398,0.9440548207327674,,,,,,,,,,3.047723943903513,0.7296141891082291,0.3924871625996387,-0.9708164044716984,0.499385588045364,0.12411240506613615,,,,,,
167,167,167,167,8.4,0.244,-10.1,0.67,1.94,-1.01,0.94,2.89,-0.703,-0.245,60.0,8400000000.0,-2.3625786669907813,-10.69819101601896,0.7197107161610192,1.6673153846677833,-0.9277842188391854,0.842113390153736,0.08850104097688716,-1.1940917866315277,0.3431344657968912,,,,,,,,,,2.506931261160194,-1.0182569242416641,0.451745377188706,-0.391240233008274,-0.06331042206431994,-0.2356193260491333,,,,,,
168,168,168,168,8.45,-1.68,-10.6,-1.63,1.63,-1.38,0.431,1.22,-1.44,-3.64,60.0,8450000000.0,-2.1097608167140267,-10.66343108016214,-0.459206284970807,1.6401933466202647,-1.2209807186434216,0.5598561803687142,0.5450005705191656,-1.2804083015815697,-1.6698481054434708,,,,,,,,,,1.8560272666716695,-1.8311768715997199,-0.11740109056941801,-0.6542058281857815,0.4910113642142522,0.18525038930720386,,,,,,
169,169,169,169,8.5,-3.11,-11.3,1.78,1.17,-0.7809999999999999,0.517,-0.116,-2.4,-0.983,60.0,8500000000.0,-2.4802357324361157,-10.888779470602016,0.6642674736773937,1.298441506605417,-0.9357168952446808,0.530432521358702,0.2783220747861894,-1.6733973684999692,-1.32273121040513,,,,,,,,,,1.958875321564296,-1.1690528038224142,0.07351252829051076,-0.26274213570151633,0.7005355261574129,0.4564358026808623,,,,,,
170,170,170,170,8.55,-1.98,-9.68,0.888,0.851,-1.27,0.481,1.08,-0.997,-2.5,60.0,8550000000.0,-2.294955245245973,-10.460866091203222,0.7765204804840059,0.9732264826673636,-1.1524511088264229,0.4964937493759907,0.6017564033142486,-1.4359744252152098,-1.9176951798756872,,,,,,,,,,1.470875784158422,-1.4637208902745176,0.2483397650497857,-0.33314904394857164,0.9694127551806154,0.4902975780790367,,,,,,
171,171,171,171,8.6,-1.55,-8.08,1.51,0.324,-1.07,0.4,1.47,0.428,-2.31,60.0,8600000000.0,-2.0190339626948592,-9.618028526849006,1.1445281080203655,0.5013475714577533,-1.098993528626616,0.43024425458597504,0.952046426378886,-0.7816988442321308,-2.115956784228424,,,,,,,,,,0.6455456777547264,-1.457662470185453,0.5752601453504407,-0.4332360936317479,0.986587789843132,0.3814840240562299,,,,,,
172,172,172,172,8.65,-0.373,-8.28,2.05,0.037000000000000005,-0.946,0.102,2.57,0.16,-1.98,60.0,8650000000.0,-1.4093654261553563,-9.144360185023098,1.5988292039429215,0.16384466239753315,-0.9997993489901488,0.20488232550459187,1.604804425084223,-0.4511521657359638,-2.047247431370446,,,,,,,,,,-0.20252930629026375,-1.4667391082011405,0.7500360040381179,-0.048045134874261125,0.9362543056183998,0.12920838929617784,,,,,,
173,173,173,173,8.7,-0.838,-8.79,2.53,0.0547,-0.715,-0.057999999999999996,1.93,-0.36,-1.64,60.0,8700000000.0,-1.1977394630700802,-9.018915037589778,2.0660241838940587,0.08451477261910527,-0.8151481618379431,0.02439579314631246,1.7360034845941508,-0.4191567553218844,-1.8414341464372248,,,,,,,,,,-0.5134239392796063,-1.2280962614306743,0.8308598312985618,0.2524248097655495,0.8563652540247443,0.06397682259796628,,,,,,
174,174,174,174,8.75,-1.39,-7.96,3.37,-0.018000000000000002,-0.467,-0.155,1.2,0.485,-0.898,60.0,8750000000.0,-1.268950139053009,-8.644054261636658,2.7202660513299737,0.010003704011621678,-0.589424457456015,-0.09877157835044492,1.5197546682390917,-0.10178775778560044,-1.3646447092886227,,,,,,,,,,-0.7113520479231654,-0.7283719130767474,1.1257858551826598,0.2769444495615129,0.6926089297481565,-0.04098128307238732,,,,,,
175,175,175,175,8.8,-2.63,-8.28,4.25,0.0058,-0.343,-0.158,-0.194,0.192,-0.0504,60.0,8800000000.0,-1.7730644911348588,-8.515177285508647,3.4877772817770367,0.006948315233237804,-0.4296538485964128,-0.1394359090557718,0.8283460050723065,0.00133498579014045,-0.7004563302489377,,,,,,,,,,-0.4218584072692855,0.00033011452377883417,1.472477862741818,0.1749999768284062,0.627996516701881,-0.03664261216593315,,,,,,
176,176,176,176,8.85,-2.51,-7.46,3.89,-0.0254,-0.264,-0.0763,-0.312,0.205,-0.0885,60.0,8850000000.0,-2.046015351491158,-8.141639690968756,3.689583964671536,-0.016563491596612655,-0.3222512953408609,-0.09608883021455164,0.3682771729663449,0.07282365124819093,-0.3911879878904577,,,,,,,,,,-0.2718055275954259,0.3597639205399312,1.6590774046598176,-0.010209251945856795,0.4802407588893588,0.05772577570202836,,,,,,
177,177,177,177,8.9,-2.42,-7.9,3.81,-0.319,-0.486,-0.0189,-0.205,0.622,-0.514,60.0,8900000000.0,-2.184534194033096,-8.056098163692464,3.750000101479844,-0.2363841813177636,-0.4284186384087276,-0.04309346643903375,0.13699039162546567,0.2655905988287902,-0.4532542908605735,,,,,,,,,,-0.2968389453867921,0.4449431077961171,1.7802617767528035,-0.22316515715341856,0.6111032064400198,0.038608075098256936,,,,,,
178,178,178,178,8.95,-2.5,-8.6,4.74,-0.35200000000000004,-0.611,0.197,-0.378,-0.004379999999999999,0.512,60.0,8950000000.0,-2.3013784269817497,-8.248642048240225,4.246711222552175,-0.32041751525438433,-0.5467962345963873,0.12174696865671752,-0.0707807774504671,0.17082794135954268,0.03456254755682081,,,,,,,,,,0.054641330324539696,0.5717684746791919,2.0312256923117693,-0.13092855368813974,0.6331151298832807,-0.07387988708572407,,,,,,
179,179,179,179,9.0,-1.64,-7.69,4.13,-0.498,-0.115,0.28800000000000003,0.525,0.943,0.0171,60.0,9000000000.0,-2.0564128706543947,-8.050880216229293,4.188153924878819,-0.4494902348666342,-0.26683885449210104,0.2358909340848753,0.16958499989904488,0.4418688562877681,0.02573738693530485,,,,,,,,,,-0.25675080903779696,0.506004102196853,1.9665790798097984,-0.1381466364375,0.390578139632054,-0.07782278300348998,,,,,,
180,180,180,180,9.05,-0.206,-8.32,2.74,-0.83,-0.0446,0.0703,2.03,0.401,-1.14,60.0,9050000000.0,-1.371045175035573,-8.146149748366692,3.4615737281019467,-0.7260570892045513,-0.12274911232047694,0.12220153336273418,0.9201632757270148,0.4275234345859679,-0.5633988754970942,,,,,,,,,,-0.980267038704846,0.08981157985323936,1.4672213726070469,0.13124020077210724,0.3898705698013992,-0.08849581318142799,,,,,,
181,181,181,181,9.1,-2.61,-17.0,4.75,-0.94,0.735,-0.319,-0.407,-8.06,1.36,60.0,9100000000.0,-1.8299371093922927,-11.280453424531837,4.108014002336918,-0.8815577496453335,0.4333770884127683,-0.18071322598155826,0.3847236332605121,-2.551691041997388,0.4086417056057039,,,,,,,,,,0.3745160034770364,1.3185498906396211,0.2983111863641464,2.0574262349576515,0.97430333411212,0.5764351035717538,,,,,,
182,182,182,182,9.15,-3.38,-9.88,5.39,0.378,0.201,0.276,-1.17,-0.882,2.19,60.0,9150000000.0,-2.4040593103448518,-10.784686517100136,4.7512229399851575,0.03392976062493746,0.2827141725081643,0.13285135298646847,-0.2425244644557154,-1.9656110824553048,1.308898337985268,,,,,,,,,,1.3193384207871055,1.3610480927141837,1.052490991863782,1.4522509284434058,0.452009639502026,0.3064185289942941,,,,,,
183,183,183,183,9.2,0.917,-4.15,-4.18,-0.502,1.16,-0.0402,3.31,4.79,-7.4,60.0,9200000000.0,-1.173984228186823,-8.435977034691215,0.2701732893104847,-0.3556013920638433,0.85150707534303,0.014039871324147428,1.1907297746685972,0.4056828976380789,-3.0923741899363515,,,,,,,,,,-1.7376371316175356,-0.5905667039068055,-0.4367584619755755,-0.6180113667801209,0.08609247379846886,0.9351258714974198,,,,,,
184,184,184,184,9.25,-4.35,-11.1,0.28300000000000003,-0.8740000000000001,0.184,-0.159,-1.9,-2.02,-2.45,60.0,9250000000.0,-2.3503371277024536,-9.379053541734839,0.2766088127273583,-0.7323903611691174,0.41872531893999465,-0.10476372439918333,-0.056214935503721364,-0.44575854412490296,-2.7677334002222254,,,,,,,,,,-0.7873336768920867,0.28587158386238976,-0.5095635364787271,-0.7680002982731456,0.913958655090606,1.162828985141493,,,,,,
185,185,185,185,9.3,-1.52,-9.77,0.97,-0.503,0.366,0.00863,0.897,-0.557,-1.38,60.0,9300000000.0,-2.0427915707238093,-9.517450546571077,0.6245029976907878,-0.5656620051656343,0.3845405762796639,-0.026911247217452527,0.32835648799195943,-0.4848055154240517,-2.0664055620110147,,,,,,,,,,-0.6510703478826277,0.1663951820806162,-0.3414027138151829,-0.402836544634768,0.6802666309692895,0.8213913388785307,,,,,,
186,186,186,186,9.35,-1.31,-10.1,0.611,-0.369,0.913,-0.0323,1.15,-0.8140000000000001,-1.42,60.0,9350000000.0,-1.7713755438238097,-9.72367586518152,0.6177281586519751,-0.42272165811348905,0.7271700416301212,-0.03061099064420716,0.65984583963854,-0.6003564136789818,-1.7397273658385417,,,,,,,,,,-0.7236450304085873,0.1945754661935862,-0.5470227132102391,-0.06978001670446897,0.3767538085967242,0.7681430109866694,,,,,,
187,187,187,187,9.4,-3.38,-9.36,-0.0455,-0.14800000000000002,1.1,0.18,-0.8059999999999999,-0.0554,-1.79,60.0,9400000000.0,-2.3671881501378915,-9.594932816129106,0.2849676418002716,-0.22304502805047816,0.9688963402537524,0.11398773366035413,0.06845517921558407,-0.4090707021404286,-1.765133953989631,,,,,,,,,,-0.3825720880959152,0.4710525937299614,-0.6251811925831868,-0.6289586689921972,0.21890656016731108,1.0194558843242114,,,,,,
188,188,188,188,9.45,-2.17,-8.28,-0.735,-0.359,0.199,0.0172,0.519,1.03,-2.23,60.0,9450000000.0,-2.2941523763737592,-9.129440462032342,-0.2267792743443701,-0.32186151922345224,0.4697299606646794,0.047536395042898284,0.2502259966391137,0.09605897490723436,-2.000066334597145,,,,,,,,,,-0.6556281518593539,0.12605983972404353,-0.43635061342414017,-1.0379501875824526,0.4149160529980568,0.698559176901689,,,,,,
189,189,189,189,9.5,-2.74,-10.0,0.00479,-0.364,0.124,-0.125,-0.0676,-0.674,-1.27,60.0,9500000000.0,-2.4592882602748087,-9.437622539052374,-0.11059435280501033,-0.35248913146861605,0.2455741035931393,-0.07092153393660246,0.12200014922451012,-0.1742402265025858,-1.631107962816771,,,,,,,,,,-0.41293030812846,0.3296670758653574,-0.3822828955901196,-0.8790804718952985,0.6285319533439708,0.5539454711982165,,,,,,
190,190,190,190,9.55,-2.51,-9.27,-0.405,-0.455,0.0855,-0.237,0.0863,0.136,-1.43,60.0,9550000000.0,-2.47807119364918,-9.3782835519837,-0.2583060785208368,-0.4269973725523985,0.1417892098019692,-0.1849456593542468,0.10759704214852596,-0.06534248295437246,-1.5294726998129151,,,,,,,,,,-0.5184626789187936,0.4219054855371357,-0.3687910275921056,-0.9375708419711124,0.7049163140922582,0.4116915609395749,,,,,,
191,191,191,191,9.6,-2.77,-9.31,0.271,-0.534,0.103,-0.285,-0.29100000000000004,0.15,-0.451,60.0,9600000000.0,-2.5861976358177783,-9.354111009336675,0.007261903620721322,-0.5047703455954249,0.11664001974078884,-0.2536397430095821,-0.05321562151677808,0.01024510553657515,-0.9844379540194156,,,,,,,,,,-0.4606306226856235,0.7515287258057521,-0.19835839485290596,-0.8908615389151622,0.6911572505618212,0.2136122652357052,,,,,,
192,192,192,192,9.65,-2.41,-9.41,0.223,-0.505,0.0965,-0.225,-0.0377,0.0911,-0.221,60.0,9650000000.0,-2.5209364658707774,-9.3738959148476,0.11550387321393026,-0.5049372624162012,0.10358213220014947,-0.2339766142613491,-0.0469558957236188,0.03862606513848353,-0.5986143603881733,,,,,,,,,,-0.3963692000650614,0.829027813343221,-0.11678247168416972,-0.8068090715074806,0.5923009016832476,0.050259002026566885,,,,,,
193,193,193,193,9.7,-2.11,-9.41,-0.0742,-0.596,0.0806,-0.335,0.141,0.135,-0.239,60.0,9700000000.0,-2.368731163443208,-9.386676872887868,0.020324021260210903,-0.5711246316909342,0.08868154535254251,-0.30333602123523656,0.02887429069944754,0.07245438100758284,-0.4168737132024477,,,,,,,,,,-0.5105194528014687,0.8737274025198984,-0.15155930823582472,-0.7194278125902477,0.553084704660697,-0.096715738524842,,,,,,
194,194,194,194,9.75,-2.63,-9.54,-0.455,-0.515,0.279,-0.364,-0.512,0.0313,-0.349,60.0,9750000000.0,-2.465501620320647,-9.440953950964252,-0.2181596280044464,-0.5303314145462277,0.21207553509841728,-0.34498594912913905,-0.18933966534104524,0.0580087397042783,-0.3825719377091318,,,,,,,,,,-0.464718094783024,1.0435751431985645,-0.2992607533216084,-0.8121009025627389,0.4783176761448261,-0.0424724965649071,,,,,,
195,195,195,195,9.8,-2.54,-9.76,-0.484,-0.544,0.2,-0.526,-0.5329999999999999,-0.16899999999999998,-0.106,60.0,9800000000.0,-2.4930947901908898,-9.553897799496072,-0.3515393370560272,-0.5402662082645295,0.2042462997308016,-0.4692643791282571,-0.327988289269091,-0.021673831390087363,-0.2427989817770121,,,,,,,,,,-0.4512079491060931,1.2227898308159073,-0.3884858931851756,-0.7743643439625832,0.503541899975428,-0.1006492688908469,,,,,,
196,196,196,196,9.85,-4.12,-11.0,1.14,-0.382,0.18,-0.411,-2.26,-1.39,1.73,60.0,9850000000.0,-3.095678253605926,-10.06582462390942,0.3968085582495679,-0.425233182843997,0.1885260871944717,-0.4292619431117299,-1.1074520292323389,-0.5019714019911942,0.7542072540864894,,,,,,,,,,0.4018939264468169,1.925224410774532,-0.15007832074933414,-0.6044931600437808,0.5438201087821852,-0.11513044985170867,,,,,,
197,197,197,197,9.9,-4.41,-11.5,0.153,0.0492,0.228,-0.403,-2.75,-1.84,0.879,60.0,9900000000.0,-3.5824850503217864,-10.573529297671776,0.2744828369081493,-0.08039972440871274,0.21411920823823294,-0.4112313372785064,-1.7701325831711447,-0.9716342079152728,0.8172745781750683,,,,,,,,,,1.104114770925055,2.176169830870609,-0.32958861866255457,-0.7027155649251071,0.5733553641645824,0.13339125016024156,,,,,,
198,198,198,198,9.95,-5.57,-10.9,-0.498,0.331,-0.142,-0.0952,-4.08,-1.19,0.163,60.0,9950000000.0,-4.318633550204333,-10.689101291521213,-0.1130938721393725,0.21861896876904646,-0.016772574362938608,-0.1942544064837349,-2.7020409328770234,-1.048283029246043,0.4866195891820777,,,,,,,,,,1.893396686310961,2.19136891345543,-0.3165763512166467,-1.3908817256670376,0.6950282803714292,0.4362566145138834,,,,,,
199,199,199,199,10.0,-3.4,-12.0,0.599,0.838,-0.949,0.758,-1.8,-2.3,1.01,60.0,10000000000.0,-3.9783842446975086,-11.153165458441954,0.24418395836686385,0.6688052360399983,-0.6211871763442638,0.4595327944492357,-2.3381154784538443,-1.4876494736712595,0.7511237396713657,,,,,,,,,,2.8831272095679847,1.1286970954389737,0.043994785953000784,-1.1419590921364162,0.5575083512731788,0.2502411743190167,,,,,,
200,200,200,200,10.0,0.965,-10.0,1.0,1.94,-0.918,1.02,3.02,-0.412,0.708,60.0,10000000000.0,-2.147422136435366,-10.744939586883476,0.6233984620456388,1.5927509545981433,-0.8136273354516289,0.8443315040464704,-0.17640149269378602,-1.1100846458936853,0.7293300176201665,0.6580904914616162,0.3216361517893888,0.7837894257635549,2.6158934471160267,3.1632639772590423,3.0938725633235764,2.9036029847965987,1.723343227818568,2.104817295602776,2.496381339940162,-0.8164703898509805,0.385825093145977,-0.3549323595257789,-0.3135914767636998,-0.39529335579034997,2.840523659404475,1.493861960569397,0.9345460821226292,2.653175321185085,2.1137545198890795,0.8163624828537874
201,201,201,201,10.1,0.0407,-10.6,0.297,2.39,-0.258,0.813,2.51,-1.22,-1.09,60.0,10100000000.0,-1.3369715336501815,-10.693630442111688,0.4596350230554419,2.172217553089584,-0.4533833934245031,0.8228203190442396,0.9074183132681262,-1.1486661574173531,-0.19011661893918164,0.6107246837982281,0.31162119859854304,0.779466970307313,2.72522458952182,3.032145784527219,3.0435277232861595,2.8447620517432983,1.6497008617689914,2.1918682726330805,2.007153089025885,-1.7045117486399983,0.03719655317825262,0.0420079471979174,-0.6827008162825657,-0.18348719819423967,2.767843392311064,1.3836306636647235,0.9012961274753073,2.5719908966129887,2.0930318844332225,0.8565932383506947
202,202,202,202,10.1,-2.48,-11.5,0.486,1.62,-0.21,0.6970000000000001,0.331,-2.38,-1.9,60.0,10100000000.0,-1.7603336987139893,-10.979088971204245,0.4728630860208698,1.7708478881233134,-0.29558447372701635,0.7364361607879658,0.6748642486215539,-1.5808779559688035,-1.0542514694797471,0.599958011460285,0.3014633815933825,0.7581509201726969,2.565980713771953,2.8135217288115766,2.9264752264729315,3.123499998177853,1.7144415373724893,2.2104234457877263,1.8836386698812568,-1.4653081420185818,-0.25796935623057315,0.03452175016589204,-0.1681966530766759,0.4169366757965881,2.7179469881807696,1.5802769055734516,0.9205079513508801,2.5267625009317083,2.058867286312648,0.8727350343287791
203,203,203,203,10.2,-3.75,-10.5,1.13,0.958,-1.05,0.698,-0.7240000000000001,-1.7,-1.93,60.0,10200000000.0,-2.4972789663159523,-10.809489273786884,0.8025674494489204,1.1800436230398548,-0.7847137550737948,0.710047140861681,0.11049709679893416,-1.6226911238861144,-1.4968341620427077,0.5960393219080082,0.28924174595010715,0.7212279024592722,2.4332369057174783,2.557771388350913,2.9684656817002977,3.2066686757016125,1.6355827921396422,2.128365284249545,1.9737394452014856,-1.1758247509320638,0.08999095863738424,-0.3604746673359638,0.6171003311787184,0.6448420867379043,2.604104383623099,1.6786281992000163,0.9689685220002145,2.6442315637582086,2.0719005891685,0.9476138201191442
204,204,204,204,10.2,-2.06,-8.01,1.78,0.5,-1.44,0.736,1.08,0.563,-1.79,60.0,10200000000.0,-2.335316778582019,-9.818457287085812,1.2929732734459785,0.6857658117465649,-1.2095721085168434,0.7278655386166186,0.5016398584179216,-0.8554894265375561,-1.644993265137747,0.571005709755536,0.2792764876593025,0.7076691310529448,2.3657852814531735,2.3839016621829203,2.9771708439650792,3.1337275351387044,1.7491520356039505,2.142056509526059,1.3278829998652266,-1.4130952665748682,0.7575493589373622,-0.6198069601978412,0.8622327389843129,0.3450464546170705,2.537350787243294,1.8186032932943643,1.013782571260746,2.5767356403595114,2.0166564883097946,0.9677962757162428
205,205,205,205,10.3,-1.16,-8.07,1.87,0.0156,-1.31,0.563,2.01,0.359,-2.02,60.0,10300000000.0,-1.8999954576411269,-9.199495264542747,1.5824840716753952,0.19866751449005995,-1.2746850281138584,0.614674188513431,1.1101827720083592,-0.4291902448753791,-1.8345128431438724,0.5724772337558874,0.27025117303310997,0.7325069641711347,2.442915800074898,2.2109402468433275,2.8968907600881995,3.179592696826625,1.7307036077370697,2.1957282951148183,0.4999538315962018,-1.5539499967094923,0.9992423401457724,-0.4883269636848805,0.9795653760800648,0.16653079729367376,2.6069234933634418,2.0078576085156494,1.0774804266322222,2.399748223665687,2.030439856587459,0.9850272731627074
206,206,206,206,10.3,-0.833,-8.1,1.93,-0.218,-1.14,0.358,2.28,0.266,-2.12,60.0,10300000000.0,-1.5047948908975672,-8.810269023303258,1.7568427160152795,-0.104179975772343,-1.1873612657094297,0.4384499688535458,1.5821416575262732,-0.18517080117154489,-1.978791282773801,0.5751783883401533,0.2628965498381731,0.7514837658224174,2.4679293861109053,2.1154220963525314,2.897407210489693,3.185954287133048,1.6482923840747687,2.194997257479081,-0.18988230506204026,-1.575389252660477,1.0550664994774404,-0.28399114712585344,1.000940147527907,0.06713718475233238,2.800056088241408,2.0393452088737534,1.1600548944816265,2.5016331133740515,2.037437747159131,1.0088300842798827
207,207,207,207,10.4,0.0838,-7.25,2.04,-0.177,-0.455,0.147,3.13,1.11,-2.07,60.0,10400000000.0,-0.9164010037477142,-8.257926618975395,1.898910796776564,-0.1571079373095454,-0.7125309588888886,0.2383498119152467,2.2066200398335334,0.2694484387149764,-2.024885990467327,0.5572155376976333,0.2610952491983072,0.7772164006942756,2.6298062174614727,2.1345440003873537,2.697732156713806,3.09694848188076,1.7606426253149103,2.088508905700463,-1.0633094451198346,-1.5623779195837089,1.0007966675309996,-0.04333793608537672,0.6295844785182192,-0.029771657443017782,2.85412782372814,2.0372498249819317,1.2351558883619833,2.385942450026766,2.024149351743786,1.0285579460324121
208,208,208,208,10.4,-1.68,-7.5,3.47,-0.248,0.11,-0.187,1.33,0.905,-0.573,60.0,10400000000.0,-1.1992276403629574,-7.98961711287326,2.6871711544127086,-0.22317124014059364,-0.1792386445959907,-0.05368166678420136,1.8529505973026816,0.4925340357966189,-1.2911369507284332,0.5686443199199652,0.2568761813329941,0.8238039151643531,2.8132482717958367,2.144708232591474,2.755886814555016,3.245586602991819,1.809061318713676,1.924649917684893,-1.3041722704128291,-0.5927905697857548,1.178062021835231,0.09272108128507434,0.427790474292817,-0.05477646350300415,2.9008154956567194,1.9661633834734202,1.2799228043312776,2.374887401494038,1.99663185479787,1.0214134060697306
209,209,209,209,10.5,-4.47,-8.5,4.3,-0.212,-0.055,-0.264,-1.55,-0.00978,0.363,60.0,10500000000.0,-2.4106770455534745,-8.170295000335612,3.4963735645733682,-0.2150516178451672,-0.09868785949526317,-0.1980794560362268,0.4800414370338762,0.3162162695275016,-0.4551750206966805,0.5678791499389381,0.2555408490282461,0.8787834711627088,2.9168689649786232,2.2154818292685383,2.8550319543379348,3.238642725111049,1.9480477077216327,1.8202375711995424,-0.5432396774953998,0.6629432095048238,1.516162219219917,-0.19935118274663285,0.6562925908183399,0.10441126235617593,2.928494363041817,1.9197639217797138,1.3510072110240643,2.413962291264941,2.019742343394644,0.9704722342482609
210,210,210,210,10.5,-4.03,-8.61,4.79,-0.267,-0.618,0.0734,-1.21,-0.0599,0.915,60.0,10500000000.0,-3.010452265068701,-8.325952469304468,4.1454228902931325,-0.25280938322145946,-0.4353866243819473,-0.011690410948353158,-0.2018002144029329,0.18419531072219705,0.2372792337222919,0.5719530022164575,0.246231262250925,0.9448737096475618,2.9788166154475264,2.315022963468143,2.835232725476644,3.16926143382812,1.9150350852812228,1.9455084443438064,0.20543138016531767,1.0208604562797825,1.9907948869065368,-0.3540807129633575,0.8431055817301981,0.0074871258746392515,3.0783773814565576,1.9889393035984222,1.3801484575864378,2.506612099147697,2.025560279372892,0.9349926797069267
211,211,211,211,10.6,-4.07,-9.51,5.51,-0.00886,-0.7290000000000001,0.478,-1.28,-0.949,1.63,60.0,10600000000.0,-3.402894362045644,-8.745110817381773,4.830070330516942,-0.07549904177041877,-0.6257523975640988,0.3245152351508394,-0.6367963453730341,-0.2135687410005528,0.9411275646687042,0.5702875651566863,0.23755794523279786,0.9442404327721741,2.9232500948032696,2.51062257484033,2.8627014719764237,3.081531057688253,1.80149270779772,1.7962024680178876,1.134733935472514,1.126712169672918,2.3305543449249084,-0.25888076274505073,0.8347976213830821,-0.000788057361142791,3.283321553990711,1.9858662009967354,1.3782291824816975,2.460059919558455,2.039851535339803,0.9310682322076799
212,212,212,212,10.6,-1.27,-7.19,5.25,-0.0809,0.007940000000000001,0.621,1.69,1.28,1.3,60.0,10600000000.0,-2.612899366681537,-8.194594461910501,5.040761044157954,-0.07942463272268163,-0.2148945668665556,0.5280721151298501,0.3019419785085168,0.3106903487128654,1.1224932325393844,0.5750986523964733,0.2282205160903512,1.0241032660787373,2.91768343369295,2.8473215693966547,3.0031713527264587,2.8364699504522783,1.8151554402870467,1.8769918115201232,0.4962058537881772,0.6953605286806961,2.423318695572441,-0.0012711395414252119,0.2416428791774225,-0.20561305674586106,3.4754982961448535,2.0415633117636385,1.4362600044680196,2.506826288202263,2.017125363221327,0.9389653075090071
213,213,213,213,10.7,0.201,-7.64,1.99,-0.865,-0.259,-0.0702,3.32,0.821,-1.86,60.0,10700000000.0,-1.5706694087566675,-7.998265426539597,3.510107065067139,-0.6504063531626942,-0.2434905607942471,0.11731775722643767,1.5195674925615457,0.4898146571808562,-0.3847887380226478,0.6125446979768143,0.2228750098865626,1.0836480255759893,3.0538563475402456,2.9856679494615097,3.040797466153556,2.965720899653945,1.9029762197608333,2.1026311225890035,-1.0195687818648786,-0.059289131786921835,1.6250382455214332,0.16656228085397198,0.5411147466843733,-0.2101608585062328,3.5129096175523076,2.0945225272640577,1.4341225452031245,2.5104205718059593,1.9964394671913557,0.9796324106969122
214,214,214,214,10.7,-4.42,-17.3,3.71,-1.34,0.389,-0.649,-1.49,-8.55,0.374,60.0,10700000000.0,-2.6260226355352203,-11.29112194076031,3.610399081113204,-1.1516254564537007,0.16658805177440933,-0.4088113133359287,0.30536742358296465,-2.6832600490785308,-0.0013147419280166162,0.5970334309140591,0.2132041788491869,1.1001319297833951,3.125588483808248,2.9799920477728645,3.2901426803289326,2.850541648335404,1.852901665341008,2.086242045422213,0.3461540750451238,1.5803277024392066,0.1915046773052828,1.7057756998021218,1.665790350439878,0.7706305007005445,3.2438302394925005,1.9450698873456354,1.4185476952241527,2.5260100328165183,1.9129225319499463,0.9426421963051811
215,215,215,215,10.8,-2.07,-9.38,5.93,0.359,0.293,0.096,0.722,-0.472,2.92,60.0,10800000000.0,-2.420079408337368,-10.614576031851662,4.774209052903883,-0.05365377095227308,0.2485479178227315,-0.06222413219552675,0.4734564616741333,-1.9070833862088807,1.4750490890715438,0.5698608911981408,0.2145973247718967,1.0740278137652286,2.720657557188886,2.949728169407566,3.2899853648183286,2.7218357593576683,2.074761286062915,2.018601559267833,0.9484774653003604,1.356833825184406,1.1061620044327516,1.6583662704043245,0.6374551253092268,0.13662050830240574,2.8261365188648453,1.8870635415987342,1.3964494164215837,2.602300274094802,1.82678125248855,0.9964576362734978
216,216,216,216,10.8,2.7,-2.82,-4.41,-0.752,1.83,-0.353,5.67,6.05,-7.34,60.0,10800000000.0,-0.5236717934413571,-7.855260273657997,0.16622903134988398,-0.5612344925365734,1.2738908003380391,-0.2618614628452802,2.569984820291263,0.8859407031521547,-2.9798695618347995,0.573002939497947,0.20960962958278131,1.0893766611681897,2.6113465537487768,3.16526835789282,3.0781029232038652,2.8726375654232355,1.9459579778606493,2.0516388650336492,-2.9199407584307218,-0.7140335077829659,-0.5515523341030673,-0.1999662457681919,-0.13374664222154667,0.6488816721741217,2.9096683944553723,1.7722265882206347,1.4141126223095892,2.4184506209907566,1.873513807590448,1.1081680873501005
217,217,217,217,10.9,-7.66,-13.0,1.55,-0.366,0.2,-0.459,-4.78,-3.99,-0.8859999999999999,60.0,10900000000.0,-3.166870396156642,-9.676521778980149,0.8605064402621709,-0.4193317144788953,0.5776279997141929,-0.39721042392017497,-0.3953423651984709,-0.8255682607975636,-1.9216770994104304,0.5275696128441659,0.20225522241612887,1.0863497455419238,2.4892423102305097,3.056059054023975,3.260974334174749,2.8770685145693755,1.972229784287528,2.05604629535674,-0.2929099697316163,1.1295645572620665,-0.3854655457390621,-0.5868035512870923,1.0597644269844873,1.1896521352916902,2.717862604659481,1.57036744816789,1.4117086224920783,2.4274023982188813,1.8105761435189425,1.1002876710970315
218,218,218,218,10.9,0.23,-7.59,0.141,-0.768,0.546,0.0306,3.05,1.56,-2.0,60.0,10900000000.0,-1.9087159184125009,-8.937883534811416,0.4995095023649353,-0.6727551633512564,0.5571218206340819,-0.10348957261050246,0.9946696138199741,0.011792487644363914,-1.961259652050133,0.5063546403586565,0.19229840564799808,1.0639941295827908,2.493374312415768,2.8844269425423947,3.242873903338144,3.0921258507235647,1.861574999802544,1.9985488564076068,-1.2480351678292159,0.11513179403496375,-0.26419862908281233,-0.4539190683603243,0.5595458701149076,0.645652735595187,2.538420517807807,1.5993680359741427,1.4108105988407502,2.325159893264453,1.7188214632339018,1.1473122614093156
219,219,219,219,11.0,-1.92,-9.97,-0.201,-0.636,0.713,-0.28800000000000003,0.883,-0.721,-1.86,60.0,11000000000.0,-1.912895372471459,-9.30325760101767,0.14804386717381013,-0.6460402995441255,0.6581862656004492,-0.2301684778329885,0.9496168834780508,-0.2454257625665525,-1.9100854116791988,0.5114794492119692,0.18392032152001547,0.9954521769708844,2.417297419198187,2.6429940438544044,3.0372054713289582,3.2795678157770145,1.988718014271212,1.8448306170964672,-1.207181865628729,0.2612127180629427,-0.576586906265352,-0.32303888210573056,0.5796321920731442,0.66849484804719,2.5752961777387697,1.754178176296531,1.4263087391530342,2.2320781976756776,1.6166483515728438,1.2052155711995312
220,220,220,220,11.0,-2.48,-9.56,-0.254,-0.609,0.7020000000000001,-0.17800000000000002,0.256,-0.218,-1.48,60.0,11000000000.0,-2.122943200732069,-9.394145738640676,-0.05367303247280392,-0.6191182255275389,0.6865931471623922,-0.1943512841712171,0.6697794475631902,-0.2357990156024477,-1.6927303652721206,0.5419864284930386,0.1713052394198701,0.9976011809101816,2.38741593931599,2.4277458535567082,2.947838523748376,3.481180550377593,1.9819651002862435,1.8445767771397148,-1.0043166626648636,0.4423708749973265,-0.6316520484491039,-0.4810081734053338,0.5328821447683194,0.6513886572824052,2.4892469251062534,1.9310263407688988,1.50376727450521,2.373678582426483,1.6520968868431376,1.2342389802109146
221,221,221,221,11.1,-3.22,-9.09,-0.0287,-0.5720000000000001,0.13,-0.0402,-0.545,0.305,-0.86,60.0,11100000000.0,-2.5292780906946124,-9.286476803503806,-0.04114334837500196,-0.5848711869581189,0.3257230217037737,-0.08851597902259599,0.1796806847805747,-0.045972594470674984,-1.2718880228190976,0.528401512089398,0.16124191218332873,1.0129614264875395,2.5001024591531182,2.246990213525643,2.8414555252994336,3.4214927653835425,2.1273929599775525,1.8835646070103518,-0.5632966976692255,0.5780717184414546,-0.3098262135372735,-0.8658202489018123,0.6203070063918714,0.44681995442699374,2.537469593294386,2.0362731211822753,1.6265412861188506,2.280611371978078,1.583386998003155,1.1923060737630917
222,222,222,222,11.1,-2.58,-9.59,-0.0527,-0.524,0.177,-0.21600000000000005,0.0634,-0.165,-0.568,60.0,11100000000.0,-2.5480647660168607,-9.393925463894321,-0.04694165157449351,-0.5406280215757844,0.2292976615866407,-0.17604240359468812,0.1327676266824492,-0.08775252879401567,-0.9161595734145972,0.5186182752149696,0.14697376632105805,1.0182229262746405,2.5880370801528696,2.154372397527033,2.740655872446609,3.3996336694355818,1.9864674161492768,1.8697992674290305,-0.4656746138758236,0.7080303512205112,-0.2757799635909636,-0.7921584272032164,0.6274062777282597,0.2635144286785151,2.636309530574816,2.007402557309724,1.7068366552875107,2.1075233453323183,1.4483106941678285,1.2459609289599658
223,223,223,223,11.2,-1.94,-9.42,-0.6990000000000001,-0.623,0.189,-0.429,0.562,0.0545,-0.917,60.0,11200000000.0,-2.3228458892365484,-9.403155996507364,-0.3740979564276382,-0.6004986718624274,0.20317045586425606,-0.3497149312049351,0.305940000638785,-0.03782032283064473,-0.9165843030841602,0.4962836198079572,0.1364358918201658,1.048085855929548,2.579865908837468,2.1922004352502444,2.660338899482096,3.1590603279829703,1.9601142110677248,1.8582334844812536,-0.7335755494629982,0.7016690311611863,-0.4270289727500214,-0.7102131883124291,0.6335786296943358,0.11048617760361268,2.791020400650551,2.001633245523603,1.7572929826318244,2.11427992409959,1.3911366553973585,1.3031762140268663
224,224,224,224,11.2,-2.02,-9.79,-0.17,-0.669,0.378,-0.514,0.256,-0.25,-0.0123,60.0,11200000000.0,-2.210675894299485,-9.54010053794701,-0.2716961809860444,-0.6502876854024017,0.3165221133970022,-0.4625077644933792,0.28579187722429245,-0.1122977295181938,-0.459580275211171,0.4810495260008151,0.12830738268512532,1.0997619150280329,2.583481379757583,2.203454384003542,2.42241757152417,3.262674977953881,1.9815739898176967,1.8216499716277843,-0.7767423946776093,0.9739265665806288,-0.4724882136944023,-0.4811872139265206,0.5311112953844779,-0.04312480970429142,2.9870210276453433,1.976729680946054,1.7519139121090266,2.0303926311885965,1.2620665350615212,1.2985128523385712
225,225,225,225,11.3,-2.64,-9.65,0.0311,-0.363,0.342,-0.399,-0.601,-0.0707,0.491,60.0,11300000000.0,-2.3696917277925578,-9.579005317505006,-0.11977468566583464,-0.44147766082335066,0.3330408414053707,-0.4189053723529188,-0.07198138124593989,-0.0976964667345607,0.020820646696196817,0.4751203045065898,0.1215976829337056,1.0940003917636751,2.6728925657543563,2.3776499970761176,2.4962653152455765,3.3161255864723262,2.1581133679773865,1.712402634955814,-0.4274068019070373,1.1880139656032034,-0.3510120265099865,-0.5497301566387092,0.347848548398088,-0.14089846167644338,2.9475227309833216,1.8856440424652499,1.7530153131159691,2.224143140073065,1.1127583394084566,1.3328028550414985
226,226,226,226,11.3,-2.41,-10.1,-0.6970000000000001,-0.224,0.5720000000000001,-0.421,-0.542,-0.457,-0.0874,60.0,11300000000.0,-2.3846213939791974,-9.763439964335324,-0.4093851320638786,-0.2834078324512597,0.487971298021065,-0.4203434788166356,-0.26160883891343617,-0.22381596501626547,-0.0338715223415076,0.4552109746833273,0.11328416450371845,1.128157658138493,2.739598485272128,2.52267678901218,2.6810561248567684,3.2094253116961275,2.215755278925712,1.7572847343146196,-0.29319887690025737,1.2379558933825412,-0.5819529343820783,-0.5815237086204318,0.2112155444852006,-0.0335283485757094,3.1652715965256273,1.8705595373122808,1.7686256940278355,2.1528057809783885,1.064909198874744,1.3561093140740765
227,227,227,227,11.4,-2.74,-9.96,-0.306,-0.253,0.471,-0.484,-1.11,-0.316,0.452,60.0,11400000000.0,-2.516248787363101,-9.83302313373911,-0.3575138544596903,-0.2613064249514553,0.4769678577145095,-0.4640479931765069,-0.6038894566311621,-0.2561735830423668,0.2116765185637639,0.4281637406096444,0.10480712065353844,1.2042748839360704,2.8764235922033166,2.540431383034326,2.883203054153073,2.8519392509458426,2.2657605533410705,1.8980488182188369,-0.12604147909904226,1.481993712573084,-0.5511981429379972,-0.6276230686515099,0.18802664390684104,-0.07517203228144083,3.1682650720724097,1.9190317809300497,1.8192557904277629,2.1693278605963124,0.9876273376953778,1.4004724385036997
228,228,228,228,11.4,-4.22,-10.4,1.3,0.0205,0.384,-0.0964,-2.74,-0.7809999999999999,2.18,60.0,11400000000.0,-3.1472949270575143,-10.033735414845546,0.4741081817954759,-0.056480354249354686,0.4166916556876953,-0.21163272835094493,-1.4656962042370931,-0.4403934497473239,1.2064209658692433,0.4239791213919292,0.09207704448951012,1.1829575103254923,2.8793788824676523,2.7333966550965405,3.0731900320161154,2.646115230602005,2.2250922466462764,1.940735461907498,0.832735195966399,2.005773358503429,-0.0963789693159558,-0.7235420433127506,0.06718942083683586,-0.10738509939794898,3.3276535714842423,1.8812938178272864,1.8861842426726279,1.9853153698606196,0.9696164164291078,1.410239641291328
229,229,229,229,11.5,-4.71,-12.0,0.541,0.55,0.232,0.229,-3.21,-2.37,1.34,60.0,11500000000.0,-3.7260995917042585,-10.729802113785484,0.5076697225648582,0.3843292906422531,0.2969458357165985,0.09089150534621354,-2.169429825090037,-1.1177065891775335,1.2739286862352035,0.4526043386557215,0.08272126370849052,1.2297645985927694,3.1206622378551847,2.98644944641658,3.40126376568085,2.495971355680695,2.169485084236783,1.9360781848983035,1.9720948067368167,1.991661227876272,-0.16778098735252325,-0.8298795964452296,0.10871188290643308,0.22928218333957076,3.342518425029066,2.0393442177969265,1.975696841139864,1.80979370632073,1.0195308515108676,1.53122514757206
230,230,230,230,11.5,-3.08,-12.6,0.8740000000000001,1.32,-0.691,0.61,-1.41,-2.9,1.24,60.0,11500000000.0,-3.4867930846670103,-11.39186089487669,0.6914680962036921,1.064405216023566,-0.34359408278257114,0.4472946797119405,-1.8630403568710583,-1.7433112656854224,1.2567819306719767,0.4807003464931471,0.07754160488249262,1.2485186383642937,3.1678986777825293,3.145319804326036,3.1393499773575613,2.6764613117559723,2.1607597818839084,2.0208005625210044,2.9426104110731472,1.0125206242997455,0.008952590095825165,-0.5278829717320687,0.13801875517369536,0.11293451661216065,3.0584646101633535,2.1207031319562897,1.9365615496837383,1.77933505361065,1.0419365797803768,1.5700250332359305
231,231,231,231,11.6,0.7709999999999999,-10.6,0.388,2.11,-0.883,1.01,2.84,-0.987,-0.128,60.0,11600000000.0,-1.9097645736413127,-11.111538634205566,0.5392094872228597,1.8243774177501861,-0.6933207838652717,0.8336300133138406,0.03438570767971627,-1.4778376665141166,0.556945695121714,0.458117317884776,0.07180019547672596,1.1805859108044556,3.0539181060450926,3.1856159697718467,3.4013475683496837,2.631824276337412,1.9457036018617484,1.9071481534581203,2.58980493675356,-1.0248363903131414,0.12951819779072302,-0.04937887617776593,-0.4067719861689237,-0.27645960821221083,2.5797006189473453,2.109675453752175,1.9031543026577424,1.9266034777992576,1.0929158113085002,1.494460586327886
232,232,232,232,11.6,-1.79,-10.3,-0.0551,1.99,-0.138,0.643,0.6579999999999999,-0.901,-1.68,60.0,11600000000.0,-1.8654053945033249,-10.824250295863683,0.2410274358459915,1.9447573013274249,-0.33327560275653945,0.7027495936662314,0.2859808312181605,-1.2753612920085335,-0.5735540436087989,0.4642875419284858,0.07566639778968659,1.1878947026779147,2.5976020087546963,3.2722859690963304,3.3990469047431544,2.7621807629462767,2.209639801755248,2.0600345075008057,2.0468500892975783,-1.2420118128581104,-0.17485346819779135,-0.2453946851613799,-0.3955129107428246,0.16547117609150733,2.5584293909364377,2.165914825221277,1.9509921605276859,2.123486528967484,1.0733457345867128,1.4099363112635672
233,233,233,233,11.7,-3.44,-9.9,1.3,1.07,-0.303,0.747,-0.7,-0.779,-1.06,60.0,11700000000.0,-2.4486137869511886,-10.497061308775287,0.7723442049040191,1.3089552972526044,-0.3136462569611552,0.7331304823138125,-0.1118098739139146,-1.1011329989222027,-0.8193923650365637,0.4771785591479629,0.06957097933548237,1.0702633076781656,2.1700100000417457,2.8523487664757097,3.2674813248317682,3.0736098313100872,2.0488218170537658,2.0373636276327214,1.8520591532449642,-0.7631848843932851,0.1013574245264375,-0.536165826613127,0.04336962762170018,0.4502263969271415,2.5947671772665704,2.1093687467711453,1.9359501505834888,1.9357873747713819,1.12093434034784,1.479775918883663
234,234,234,234,11.7,-2.43,-9.13,1.11,0.893,-1.62,0.7070000000000001,0.527,-0.249,-1.82,60.0,11700000000.0,-2.44171951880152,-10.013115363771927,0.941755772167952,1.0066254706700568,-1.1606276458431521,0.7151901469782158,0.14591586394980854,-0.8020249179306054,-1.3250759666483605,0.4514780424944779,0.0647888759253495,1.011830716131228,2.064683984992166,2.804291725951084,3.137794577078937,3.1649174715647685,1.949297320563072,2.0820776735127366,1.6451768163113334,-1.2781065491368766,0.6315737854505115,-0.7915683541337809,0.6358901808521527,0.2229573212284672,2.553545861034328,2.142587270129596,1.916412351130176,1.9587220376378534,1.085726606246227,1.5280413497895
235,235,235,235,11.8,-1.51,-8.12,2.26,0.319,-1.51,0.456,1.43,0.5870000000000001,-1.16,60.0,11800000000.0,-2.096623310106917,-9.342943784839582,1.6031565620851802,0.5068369302162121,-1.3871450605786322,0.5372385444362973,0.6639753465140232,-0.31446184867096433,-1.241650437059522,0.4246914424759717,0.06070578169551636,0.8854593976761316,1.936682178012316,2.4302964946114565,2.819514885221155,3.3419636315194303,2.1258214296886435,1.9590919430245648,0.8853059696498147,-1.2825216484472848,1.120644133505212,-0.6276657276422686,0.8475771578625332,-0.10853938549447227,2.4504233165515923,2.322825697466829,1.8685152651370083,1.900031661114516,1.0813002577822652,1.6349276886921031
236,236,236,236,11.8,-1.35,-9.75,2.64,0.1,-1.21,0.406,1.54,-1.13,-1.04,60.0,11800000000.0,-1.820084225568556,-9.48704355559726,2.1233705927811517,0.2111346254359293,-1.2722921446785194,0.4471343808699457,1.017404584313128,-0.6007247321898626,-1.1397410275560502,0.402004629066312,0.0529311668732836,0.7628966848679455,2.0258395285320563,2.199101389990879,2.647032122443769,3.720801703663116,2.0466860443093227,1.830334827788534,0.6079433357893281,-1.182924537844929,1.1254210546125392,-0.09786488645482626,0.9524680685061836,-0.08731235723136298,2.496867921495192,2.315578093751132,1.9183742312250263,1.8603179466824011,1.1270880864770836,1.6435502676019684
237,237,237,237,11.9,-0.429,-8.85,2.21,0.184,-1.1,0.245,2.36,-0.278,-1.66,60.0,11900000000.0,-1.3048455931357474,-9.261527344480463,2.16683506074532,0.1914122978681568,-1.160585633295513,0.3083554318684752,1.559070228239074,-0.4874447910514294,-1.4026676644249172,0.3937358556045397,0.04594092180889253,0.8399354716201192,2.083846804560688,1.834413744365124,2.6085411259093005,3.73180026633607,1.997698020426385,1.9023283683445948,0.07396625989371593,-1.422999449619882,1.0648277175425156,0.16776484051395488,0.8490167034230652,-0.14296640380075984,2.5830929601082047,2.2936278389230234,2.025691692416437,1.9702212313634657,1.011282013568592,1.6311403679579355
238,238,238,238,11.9,-0.103,-6.79,2.15,0.14800000000000002,-0.452,0.0862,2.57,1.73,-1.91,60.0,11900000000.0,-0.859698373428931,-8.386595293344524,2.1583884775973474,0.1598588299673671,-0.7011703703916077,0.1558306703553612,1.9669264789103809,0.29090279215773496,-1.6590614829167232,0.3959916791610623,0.04108055469269913,0.8750549198767482,2.116022690390462,1.7503273138091726,2.3827267628831104,3.504352714638784,1.8950875108390448,1.8931575066025288,-0.8461521724556619,-1.4246446495979463,1.0930868632722597,0.03737389291758728,0.4384060418027984,-0.19381655406147524,2.663408193609064,2.280302868513585,2.004418266492587,2.0286843485336092,0.9618029481965227,1.5741821618328788
239,239,239,239,12.0,-1.18,-8.08,3.41,-0.0412,0.013999999999999999,-0.069,1.47,0.426,-0.7040000000000001,60.0,12000000000.0,-0.9783337089622696,-8.27805912356056,2.7863577831829245,0.013722735984069284,-0.2374858630487039,0.0014691782771916186,1.7664431437431007,0.3383234016808732,-1.1763958603703883,0.4090213287547346,0.04112635240598056,0.9183084364294632,2.056554997770342,1.8089357625453648,2.1437577799700045,3.5029729044729865,1.8942381753241282,1.8492476640433493,-1.047197836394774,-0.7472693744047108,1.1606738625743778,0.24910204961946336,0.2812468923890686,-0.13535846002412244,2.8236732113898912,2.414086122641445,1.931915006227771,2.0603705281968425,0.9787768429285879,1.6028845438201333
240,240,240,240,12.0,-4.3,-8.4,4.57,-0.0327,-0.13,0.0233,-1.69,0.117,0.465,60.0,12000000000.0,-2.208633680727483,-8.321226619146612,3.681262132693396,-0.020018816472122246,-0.1677968299198854,0.016457516670888725,0.3719525499602872,0.2606364463889021,-0.3468729788351288,0.3391836345194929,0.046281168819609184,1.0576782132794031,2.08343463226464,2.016413718570114,2.229226086533424,3.269200877164556,1.9376856232123527,2.0381620618951852,-0.2264609148356671,0.4122449124199572,1.610085412064674,-0.14710943121729098,0.452666631083984,0.054800391976809366,2.940307931773824,2.2662889621269153,2.0425171968393316,2.0059668712858088,0.9232489081425377,1.2959747435583704
241,241,241,241,12.1,-3.0,-7.67,3.67,-0.298,-0.271,0.136,-0.383,0.858,-0.41,60.0,12100000000.0,-2.501744974591445,-8.090689430322701,3.675611637212125,-0.22206458266808093,-0.2347091518394112,0.09853153863148367,0.06736944255451366,0.4703176348047241,-0.3787758894510396,0.3594476035380954,0.05140523497500968,1.0114788055636357,2.5452559864299604,2.261946316790916,2.579323287534172,3.102226902015448,1.9481492806847225,1.7352850624819949,-0.19813900523061972,0.5636269268644485,1.7517505817201695,-0.4712568772715807,0.5566285970934846,0.10548857583654264,3.057186293263554,2.203593636199169,1.972492131979593,1.9928313551050594,0.9911866468376597,1.3323684452048243
242,242,242,242,12.1,-1.52,-8.72,4.29,-0.575,-0.28,0.206,1.12,-0.128,0.373,60.0,12100000000.0,-2.1381200156696067,-8.313468358459039,3.983867814325421,-0.4785895081348555,-0.2640737145030617,0.1723159212795926,0.4920497663412128,0.2603015443715442,0.0011539692879425356,0.3835544050818715,0.053502246925841095,1.044763777859704,2.8511716753115226,2.4154369068178654,2.8633662719059503,3.000885724912004,1.9342876523572192,1.4503261044740017,-0.29053076426617114,0.4733055101958124,1.7942484407916768,-0.005189526741005991,0.5586037648947902,-0.07456601159495703,3.042096839458494,2.4214565946402464,1.889410907044518,2.18244367128228,1.0914029075441951,1.3583713268601254
243,243,243,243,12.2,-2.08,-8.55,4.8,-0.399,-0.189,0.3,1.15,-0.0753,0.517,60.0,12200000000.0,-2.116593126111572,-8.397201714045828,4.393344746552944,-0.4207412584478337,-0.21539927021805536,0.2599797033891176,0.7574976054699917,0.14250170093762826,0.26185043589981183,0.374056700817171,0.052436058862243805,1.1035069451830402,2.703427474207757,2.565882764730891,2.994445690570951,2.849567813501253,1.977937714517353,1.4133690479158856,-0.18713355042548707,0.4263614761445361,1.9218883144058792,0.2300847189642737,0.5183826977092556,-0.10203752436469847,3.0586968973107886,2.3722762372486703,1.9776205015827901,2.184357990036784,1.0850660110016876,1.4742883146167851
244,244,244,244,12.2,-1.35,-9.49,4.3,-0.892,0.111,0.133,1.39,-0.7829999999999999,0.7240000000000001,60.0,12200000000.0,-1.832657494026518,-8.784057248106402,4.34651111580705,-0.7632674451493515,-0.0037765693263420155,0.17279953176890878,1.012678601796786,-0.18235960021099995,0.4954099492061258,0.3552828363682376,0.047895658986866575,1.166315260061472,2.5980600114165657,2.8249724105960667,3.029766164220151,2.765829108463516,1.897035460894101,1.5788254875247631,-0.4257509304293913,0.6179607673974588,1.6315731983792705,0.6935441974204926,0.5393969488865182,-0.13250841401236085,3.1640208712522235,2.4136457810340413,2.042992817731452,2.195889031187369,1.0364789509354762,1.5421161305860294
245,245,245,245,12.3,-2.24,-14.3,3.08,-1.02,0.969,-0.0885,0.55,-5.41,-0.0131,60.0,12300000000.0,-1.9835316073913136,-10.73672639782556,3.71106626327597,-0.9498689977151564,0.6269282729078116,-0.006600306928938314,0.8260124528067737,-2.017318979455585,0.2384209755516256,0.3481754189861536,0.0414955301147397,1.2231446354156177,2.9103095486236814,3.1585032748079223,3.0742315346114646,2.782686230447409,1.6425479612755731,1.7211273820295685,0.049231692112212525,1.1341049739561833,0.3123059672282469,1.6577663583005977,0.8537671826106636,0.6148484777515727,3.1660369416490046,2.403883244556297,2.1249918765303915,2.0908579560901703,1.0734476039084977,1.5686988185620725
246,246,246,246,12.3,-1.19,-11.4,5.36,0.317,0.416,0.0013,1.67,-2.38,2.6,60.0,12300000000.0,-1.6896183415269397,-10.97152816596854,4.538383500219589,-0.029067427057404727,0.4901718127436969,-0.0011762107706119887,1.166516423957708,-2.1446240576259354,1.431907447190394,0.3229518570287745,0.03483106419104607,1.2659180676162058,3.010772045858913,3.266531062022037,3.2316720227226927,2.698879975089365,1.4601087572991638,1.9359215582256235,0.6854542056658548,0.9488128725596828,0.7381114882969725,2.1841470087669093,0.363819060473886,0.072616982820618,2.999259521428657,2.4085895507935695,2.1121595531906627,1.9659805085783473,1.09822330643436,1.46369949304665
247,247,247,247,12.4,0.637,-6.16,-4.31,-0.243,0.988,-0.38,3.51,2.81,-7.05,60.0,12400000000.0,-0.8278706237726929,-9.26822503024608,0.09889670599103616,-0.18456057586345706,0.8129413455576319,-0.2612644138669584,2.111987129006636,-0.4054963919373901,-2.854649269121828,0.33050255465036443,0.03898168859999812,1.2631865972355665,2.5263655517135986,3.329614358402442,3.3396397817863117,2.8179901769778963,1.884162728978527,1.8981766214660407,-1.7455435389569067,-0.78731274731434,-0.8499839011888779,0.2550148270523082,0.2797289065746643,0.7899713367667585,2.8693161158586,2.6113437606771535,2.2518451587757786,2.3795069354953426,1.1848913363324165,1.4844887226125312
248,248,248,248,12.4,-3.48,-10.7,-0.5670000000000001,-0.398,0.58,-0.421,-0.718,-1.57,-2.95,60.0,12400000000.0,-1.810183188282486,-9.775079881613383,-0.2352026836560819,-0.33969528895301404,0.6619125764702812,-0.3709337225645423,0.9702381705652976,-0.8142500193833782,-2.902837310974878,0.29942670154082085,0.04089322672972332,1.2132062686738214,2.099052135864045,3.6204023313021376,3.1292797155718737,3.0044306422628053,1.960180142088004,1.8720872764717689,-1.1213778541345796,-0.0908996860094361,-1.035624558992655,-0.1665298925980033,0.7664866174874094,1.0950119208168694,2.6004789248978333,2.622077125167028,2.348272205688156,2.469767691415813,1.2521671376767587,1.372041470787575
249,249,249,249,12.5,-1.02,-9.12,1.13,-0.396,1.53,-0.28300000000000003,1.67,0.0912,-0.916,60.0,12500000000.0,-1.5175101029399118,-9.543178552647893,0.4497585076633063,-0.3806193816704737,1.224741648346123,-0.31056125701241305,1.2525547522229603,-0.4964270763803525,-1.8987364475433453,0.2760923970815345,0.03406741923909372,1.0268956105606786,1.9627831746017843,2.6757380603036767,3.0803564081963013,2.9756470064862888,1.8710983365709977,1.7221161503086793,-1.3805166576241628,0.31085985784629144,-0.8558590796521421,0.18571280708885998,0.20435027828600447,0.8404347229314312,2.5068348162626077,2.3624629965511357,2.176520960793648,2.347674310620623,1.2387021168080454,1.411857673194689
250,250,250,250,12.5,-3.41,-9.2,-0.821,-0.75,2.06,-0.069,-0.6729999999999999,0.095,-2.33,60.0,12500000000.0,-2.2184625872705985,-9.421691700442787,-0.1878173343938212,-0.6490972224683135,1.7662857986055098,-0.14471308089270574,0.4756960558460901,-0.2888296504983913,-2.1166868696841847,0.21871767113481635,0.031980683050718134,0.9272824536724166,2.163228930323619,2.3701052530282727,3.3084494279687613,3.1897004080325138,2.041723638052719,1.6738841510627889,-1.320293121462344,0.8960960523653506,-1.2080192852416405,-0.4823761796754082,0.10241993559989973,1.3159619998454386,2.5655522776709216,2.4450894856500334,2.031514346963161,2.1582082723526557,1.361925721825699,1.5346547144157452
251,251,251,251,12.6,-3.13,-9.98,0.28300000000000003,-0.488,1.37,-0.28,-0.355,-0.621,-0.6509999999999999,60.0,12600000000.0,-2.5560836579273105,-9.619335242092085,0.048405170895370886,-0.5320065284027002,1.5093517999686286,-0.2375967208499196,0.1405544799956131,-0.4054251036336105,-1.3759631946170638,0.20908648140186345,0.03012049302035642,0.8119684923480258,2.313531953673096,1.9832436601749297,2.895481418730596,3.5235656041083123,2.0619848865223123,1.5711589997778892,-0.8768520458602849,1.2469326086321078,-0.9803781930120352,-0.4627980929665015,0.20508197329439776,1.0455919438188797,2.6097268033870464,2.539079907625079,1.9854024582420486,2.0811320054718014,1.1878227237210381,1.6648302862083428
252,252,252,252,12.6,-3.65,-9.76,0.486,-0.107,1.0,-0.171,-0.938,-0.35700000000000004,-0.0681,60.0,12600000000.0,-2.9612553900928704,-9.66913129382918,0.2679590005749047,-0.2230979685044211,1.1791108558972996,-0.1918735609631906,-0.2945847722273701,-0.3884273558638333,-0.71499988199192,0.17125668474942832,0.025426546684253287,0.7339667416597963,2.2230011999661734,1.6687329776969135,2.6745563196276234,3.5355841535466856,1.954012690906978,1.5781944720657568,-0.2471066060268219,1.4150151994485411,-0.6354954154126192,-0.6545130878884025,0.20799663979726304,0.7971694461243427,2.5199843743981587,2.4434604183977315,2.1501802626930537,2.007990245599103,0.9030528725320309,1.6259543670219723
253,253,253,253,12.7,-3.05,-8.61,0.453,-0.133,0.94,-0.16899999999999998,-0.362,0.8109999999999999,0.0606,60.0,12700000000.0,-2.994125165850585,-9.294193827131489,0.3607993616252455,-0.1576118371484338,1.02408206129709,-0.1761693109256562,-0.32178321860188963,0.032584870119726106,-0.32302993477052017,0.1720442207323058,0.019547751278434444,0.7845579368495271,2.0439932374846035,1.5916273668374774,2.5733500644185723,3.523735120507435,1.922106972463083,1.7121249374969831,-0.25578889461583104,1.4411511321177553,-0.3270948981053809,-0.8679197618895842,0.09476045381591412,0.5012623537597237,2.481249777446762,2.4682956911891205,2.219170723925843,1.9420828150061984,0.7356848427180063,1.7308410616930627
254,254,254,254,12.7,-3.79,-9.22,0.51,-0.363,0.462,-0.315,-1.18,0.234,0.334,60.0,12700000000.0,-3.2889063380192978,-9.267928965905186,0.4356575801556619,-0.3068946344143786,0.6596531803439014,-0.2714859866915381,-0.6680279234501152,0.10328380107257447,0.009017543596723077,0.21960179989688447,0.013141019109056634,0.8863052357012838,1.9849351444555925,1.5127470273117165,2.4888392424214825,3.2622429436363847,1.6735608279966712,1.7859859076989926,-0.08477865715855112,1.6921499729407918,-0.0861427857091284,-1.0348029844818711,0.3565012161005703,0.28199649698768786,2.560760266460286,2.4613517660414037,2.2061450355139964,2.0197625679046247,0.7651599277163776,1.6854834773990741
255,255,255,255,12.8,-2.35,-9.15,0.5479999999999999,-0.388,0.272,-0.278,0.161,0.334,0.583,60.0,12800000000.0,-2.9411481976928684,-9.226181435000566,0.4920229710957733,-0.3658446589189305,0.4083161920868614,-0.2759582963556098,-0.333559346402145,0.18426772831252208,0.2990947852935679,0.22279178421139584,0.011454873456324068,1.0052441707989908,2.07509574955718,1.6972020755542037,2.23955855421828,3.1369803295173955,1.4402087209823349,1.8291599914887016,-0.18691906949823373,1.4700035578475437,0.06596914407362398,-0.8518938296631547,0.3427978500551927,-0.05482561406157,2.822976204206409,2.418112672866125,2.2218160762557786,2.081789624005481,0.806585490266684,1.4754378826871046
